millis,ax,ay,az,gx,gy,gz,label
606394,1479,-6041,6584,0,2,-1,0
606399,1472,-6040,6580,0,2,-1,1
606404,1465,-6040,6574,0,2,-1,1
606409,1460,-6044,6569,0,2,-1,1
606414,1451,-6044,6563,0,2,-1,1
606418,1440,-6044,6553,0,2,-1,1
606423,1433,-6044,6548,0,2,-1,1
606429,1428,-6047,6546,0,2,-1,1
606434,1427,-6049,6539,0,2,-1,1
606438,1427,-6050,6525,0,2,-1,1
606443,1430,-6051,6512,0,2,-1,1
606448,1431,-6049,6502,0,2,-1,1
606453,1431,-6046,6489,0,2,-1,1
606458,1430,-6046,6482,0,3,-1,1
606463,1430,-6046,6477,0,3,-1,1
606468,1428,-6047,6476,0,3,-1,1
606473,1428,-6049,6472,0,3,-1,1
606478,1425,-6049,6463,0,3,-1,1
606483,1425,-6050,6452,1,3,-1,1
606488,1423,-6047,6443,1,2,-1,1
606493,1421,-6043,6435,1,2,-1,1
606498,1419,-6044,6425,1,2,-1,1
606503,1415,-6043,6419,1,2,-1,1
606508,1414,-6044,6416,1,2,-1,1
606513,1411,-6042,6417,1,2,-1,1
606518,1412,-6043,6420,1,2,-1,1
606523,1415,-6043,6427,1,2,-1,1
606528,1418,-6038,6437,1,1,-1,1
606533,1421,-6039,6456,1,1,-1,1
606538,1420,-6038,6482,1,1,-1,1
606543,1421,-6037,6500,1,1,-1,1
606548,1420,-6035,6518,1,1,-1,1
606553,1418,-6035,6536,1,1,-1,1
606558,1417,-6031,6554,1,1,-1,1
606563,1414,-6031,6571,1,1,-1,1
606568,1415,-6029,6586,1,1,-1,1
606573,1417,-6029,6599,1,1,-1,1
606578,1421,-6031,6610,1,0,-1,1
606583,1422,-6030,6614,1,0,-1,1
606588,1422,-6028,6620,1,0,-1,1
606593,1421,-6027,6620,1,0,-1,1
606598,1420,-6025,6621,1,1,-1,1
606603,1424,-6022,6622,1,1,-1,1
606608,1426,-6018,6635,1,1,-1,1
606613,1427,-6015,6650,1,1,-1,1
606618,1436,-6014,6668,1,1,-1,1
606623,1445,-6010,6682,1,1,-1,1
606628,1454,-6006,6692,1,1,-1,1
606633,1468,-6005,6697,1,1,-1,1
606638,1481,-6003,6700,1,0,-1,1
606643,1491,-6004,6704,1,1,-1,1
606648,1497,-6003,6699,1,1,-1,1
606653,1501,-6003,6698,1,0,-1,1
606658,1502,-6003,6698,1,0,-1,1
606663,1499,-6001,6699,1,0,-1,1
606668,1498,-6000,6704,0,0,-1,1
606673,1494,-6002,6714,0,-1,-1,1
606678,1485,-6003,6725,0,-1,-1,1
606683,1475,-5998,6731,0,0,-1,1
606688,1466,-5993,6737,0,0,-1,1
606693,1460,-5986,6746,0,0,-1,1
606698,1455,-5983,6748,0,1,0,1
606703,1452,-5983,6745,0,1,0,1
606708,1455,-5978,6738,0,1,0,1
606713,1458,-5960,6731,0,1,0,1
606718,1463,-5924,6725,0,1,0,1
606723,1474,-5871,6733,0,1,0,1
606728,1482,-5818,6755,0,1,0,1
606733,1496,-5771,6769,1,1,0,1
606738,1510,-5740,6784,1,1,0,1
606743,1515,-5718,6790,1,1,0,1
606747,1510,-5701,6784,1,0,0,1
606753,1497,-5676,6748,1,0,0,1
606757,1480,-5649,6714,1,0,0,1
606763,1452,-5628,6666,2,1,0,1
606767,1427,-5604,6611,2,2,0,1
606772,1402,-5581,6580,2,2,0,1
606777,1386,-5552,6543,2,2,0,1
606782,1364,-5517,6527,2,2,0,1
606787,1344,-5491,6515,3,2,0,1
606792,1321,-5467,6477,3,2,0,1
606797,1306,-5442,6448,3,2,0,1
606802,1287,-5426,6411,3,2,0,1
606807,1286,-5417,6368,4,2,0,1
606812,1291,-5429,6337,4,3,0,1
606817,1303,-5450,6298,4,3,0,1
606822,1318,-5482,6298,5,2,0,1
606827,1330,-5515,6280,5,1,0,1
606832,1337,-5548,6271,5,0,0,1
606837,1347,-5566,6260,5,-1,0,1
606842,1366,-5590,6265,5,0,0,1
606847,1390,-5619,6256,5,0,0,1
606852,1430,-5648,6280,6,0,0,1
606857,1467,-5669,6313,6,1,0,1
606862,1510,-5673,6356,6,0,0,1
606867,1536,-5661,6420,6,1,0,1
606872,1551,-5636,6445,6,1,0,1
606877,1549,-5600,6466,7,2,0,1
606882,1529,-5545,6466,7,2,0,1
606887,1502,-5489,6493,7,2,0,1
606892,1468,-5456,6472,7,2,0,1
606897,1449,-5454,6445,7,0,0,1
606902,1438,-5464,6411,7,-1,0,1
606907,1429,-5494,6403,8,-1,0,1
606912,1401,-5530,6380,8,-2,-1,1
606917,1348,-5556,6362,8,-4,-1,1
606922,1293,-5561,6353,8,-5,-1,1
606927,1230,-5535,6370,9,-5,-1,1
606932,1190,-5508,6394,9,-3,-1,1
606937,1158,-5491,6368,9,0,-1,1
606942,1146,-5488,6359,9,2,-1,1
606947,1132,-5505,6356,9,3,-1,1
606952,1130,-5568,6382,9,3,-1,1
606957,1131,-5648,6405,9,2,-1,1
606962,1159,-5725,6501,9,1,-1,1
606967,1186,-5747,6607,9,2,-1,1
606972,1232,-5685,6742,9,4,-1,1
606977,1269,-5587,6849,10,7,-1,1
606982,1300,-5503,6874,10,9,-2,1
606987,1312,-5436,6829,10,11,-2,1
606992,1326,-5400,6824,9,11,-2,1
606997,1344,-5419,6822,9,9,-2,1
607002,1350,-5524,6792,9,6,-2,1
607007,1326,-5617,6853,8,2,-2,1
607012,1303,-5645,7038,9,0,-2,1
607017,1271,-5614,7175,10,2,-2,1
607022,1233,-5530,7195,10,6,-2,1
607027,1177,-5422,7153,10,10,-2,1
607032,1141,-5332,7058,10,14,-2,1
607037,1098,-5312,6977,10,16,-2,1
607042,1054,-5315,6904,9,15,-2,1
607047,1022,-5307,6970,9,13,-2,1
607052,1026,-5332,7028,9,11,-2,1
607056,1044,-5407,6977,10,9,-3,1
607062,1082,-5482,6994,10,8,-3,1
607067,1077,-5531,6994,10,9,-3,1
607071,1081,-5560,7062,10,10,-3,1
607077,1068,-5558,7066,10,11,-3,1
607081,1081,-5539,7084,10,12,-3,1
607086,1112,-5517,7030,10,13,-3,1
607091,1156,-5535,6982,10,13,-3,1
607096,1184,-5597,6926,9,12,-3,1
607101,1183,-5722,6895,9,9,-3,1
607106,1158,-5806,6867,9,6,-2,1
607111,1159,-5795,7051,9,4,-2,1
607116,1174,-5729,7199,10,5,-2,1
607121,1185,-5674,7196,10,7,-2,1
607126,1170,-5637,7089,10,6,-2,1
607131,1151,-5586,7024,9,4,-2,1
607136,1144,-5534,7086,9,1,-2,1
607141,1166,-5516,7121,10,-1,-2,1
607146,1193,-5502,7109,10,-4,-2,1
607151,1214,-5469,7127,10,-7,-2,1
607156,1212,-5457,7108,10,-8,-2,1
607161,1196,-5489,7061,10,-9,-2,1
607166,1156,-5538,7085,10,-9,-2,1
607171,1106,-5609,7155,10,-10,-2,1
607176,1072,-5640,7207,10,-10,-2,1
607181,1072,-5607,7331,10,-9,-2,1
607186,1078,-5571,7392,10,-4,-2,1
607191,1048,-5597,7291,10,1,-2,1
607196,981,-5656,7183,9,3,-2,1
607201,891,-5677,7216,9,5,-2,1
607206,828,-5660,7325,9,8,-1,1
607211,803,-5618,7368,9,11,-1,1
607216,814,-5531,7369,9,13,-1,1
607221,851,-5434,7391,9,15,-2,1
607226,861,-5387,7345,9,16,-2,1
607231,848,-5420,7295,8,13,-2,1
607236,838,-5484,7253,8,9,-2,1
607241,852,-5518,7332,8,6,-2,1
607246,885,-5539,7461,9,4,-2,1
607251,927,-5558,7490,9,2,-2,1
607256,959,-5555,7455,9,0,-2,1
607261,991,-5545,7462,9,0,-2,1
607266,990,-5563,7457,8,0,-2,1
607271,950,-5633,7406,8,-1,-2,1
607276,896,-5714,7399,7,-2,-1,1
607281,867,-5765,7450,7,-1,-1,1
607286,868,-5785,7528,7,2,-1,1
607291,906,-5765,7586,8,6,-1,1
607296,949,-5745,7631,8,8,0,1
607301,983,-5734,7606,8,10,0,1
607306,1015,-5738,7575,7,9,0,1
607311,1061,-5748,7578,7,9,0,1
607316,1118,-5764,7615,6,9,0,1
607321,1165,-5785,7618,6,8,1,1
607326,1216,-5800,7631,6,5,1,1
607331,1263,-5801,7649,6,3,1,1
607336,1291,-5801,7670,6,2,1,1
607341,1291,-5798,7663,6,1,1,1
607346,1291,-5791,7651,6,0,1,1
607351,1279,-5783,7628,6,0,1,1
607356,1257,-5785,7578,6,1,1,1
607361,1203,-5803,7505,5,0,1,1
607366,1158,-5839,7425,5,-1,1,1
607371,1130,-5875,7382,5,-1,1,1
607376,1138,-5897,7353,4,1,1,1
607381,1149,-5906,7344,4,3,0,1
607386,1166,-5911,7365,4,4,0,1
607390,1163,-5921,7399,4,4,0,1
607396,1157,-5930,7409,4,3,0,1
607400,1160,-5941,7416,4,3,0,1
607405,1189,-5938,7393,4,3,0,1
607410,1233,-5935,7364,4,4,0,1
607415,1279,-5926,7325,3,3,-1,1
607420,1317,-5913,7294,3,1,-1,1
607425,1342,-5911,7330,3,-1,-1,1
607430,1356,-5907,7363,2,-3,-2,1
607435,1386,-5915,7361,2,-6,-2,1
607440,1475,-5897,7345,2,-6,-2,1
607445,1543,-5842,7350,3,-4,-2,1
607450,1585,-5785,7368,2,-4,-2,1
607455,1593,-5749,7428,2,-4,-2,1
607460,1574,-5736,7496,2,-5,-2,1
607465,1531,-5725,7546,1,-5,-2,1
607470,1496,-5718,7562,2,-6,-1,1
607475,1483,-5709,7602,2,-5,-1,1
607480,1496,-5698,7605,2,-5,-1,1
607485,1513,-5689,7565,1,-5,-1,1
607490,1523,-5683,7547,1,-5,0,1
607495,1516,-5681,7575,1,-5,0,1
607500,1475,-5681,7558,1,-5,0,1
607505,1427,-5685,7543,1,-6,0,1
607510,1371,-5681,7531,1,-5,0,1
607515,1295,-5678,7500,1,-4,0,1
607520,1153,-5663,7398,1,-5,-1,1
607525,975,-5646,7326,2,-9,-1,1
607530,812,-5624,7279,1,-11,-1,1
607535,741,-5606,7282,1,-13,-1,1
607540,762,-5581,7268,1,-13,-1,1
607545,819,-5541,7277,1,-12,-1,1
607550,853,-5498,7338,0,-12,-1,1
607555,818,-5459,7449,0,-12,-1,1
607560,733,-5433,7555,0,-12,-1,1
607565,644,-5421,7637,1,-11,0,1
607570,605,-5400,7684,1,-8,0,1
607575,509,-5365,7752,1,-4,0,1
607580,354,-5325,7822,2,-3,1,1
607585,267,-5273,7856,3,-3,1,1
607590,341,-5192,7696,3,2,1,1
607595,440,-5088,7519,2,11,1,1
607600,419,-4978,7364,2,18,1,1
607605,240,-4889,7275,1,17,1,1
607610,27,-4830,7189,1,10,2,1
607615,-97,-4798,7135,1,5,3,1
607620,-57,-4769,7143,1,6,3,1
607625,106,-4735,7278,1,11,3,1
607630,251,-4702,7440,2,15,3,1
607635,291,-4673,7535,2,14,4,1
607640,282,-4634,7544,3,9,4,1
607645,323,-4583,7541,4,6,5,1
607650,419,-4534,7546,4,5,5,1
607655,490,-4502,7494,4,2,6,1
607660,488,-4487,7410,4,-2,6,1
607665,436,-4489,7327,4,-6,7,1
607670,372,-4520,7259,4,-8,8,1
607675,321,-4568,7208,4,-10,9,1
607680,350,-4608,7286,4,-11,10,1
607685,380,-4657,7389,5,-8,10,1
607690,354,-4713,7348,5,-7,10,1
607695,327,-4742,7340,5,-5,11,1
607700,335,-4748,7406,5,-2,11,1
607705,377,-4750,7467,6,-1,12,1
607710,401,-4754,7478,6,-4,12,1
607714,461,-4750,7538,6,-6,12,1
607720,478,-4752,7547,6,-6,12,1
607725,518,-4748,7615,6,-8,12,1
607729,533,-4745,7658,6,-8,13,1
607734,519,-4776,7642,5,-8,13,1
607739,482,-4785,7572,5,-10,13,1
607744,566,-4772,7716,5,-9,13,1
607749,653,-4770,7837,6,-6,12,1
607754,745,-4791,7983,6,-6,12,1
607759,754,-4814,7959,6,-5,12,1
607764,758,-4812,7924,6,-4,12,1
607769,718,-4808,7842,6,-3,12,1
607774,695,-4812,7754,6,-5,12,1
607779,693,-4828,7659,5,-6,12,1
607784,749,-4832,7639,5,-6,11,1
607789,799,-4846,7673,5,-2,11,1
607794,802,-4876,7644,5,-2,11,1
607799,792,-4898,7612,5,-2,11,1
607804,817,-4909,7660,5,-2,10,1
607809,895,-4912,7646,5,-2,10,1
607814,970,-4927,7670,5,-2,10,1
607819,1076,-4946,7734,5,-3,9,1
607824,1098,-4962,7737,5,-3,9,1
607829,1175,-4957,7812,5,-3,8,1
607834,1203,-4956,7887,5,0,8,1
607839,1212,-4969,7877,5,-1,8,1
607844,1189,-4973,7805,5,-2,8,1
607849,1136,-5000,7705,4,-3,8,1
607854,1120,-5006,7632,4,-3,7,1
607859,1203,-4987,7782,4,-2,7,1
607864,1258,-4995,7897,4,0,6,1
607869,1182,-5039,7824,4,-1,6,1
607874,1116,-5046,7777,3,-2,6,1
607879,1130,-5032,7848,4,3,6,1
607884,1212,-5025,7888,4,5,6,1
607889,1271,-5024,7883,4,3,5,1
607894,1285,-5022,7843,3,2,5,1
607899,1287,-5012,7796,3,2,5,1
607904,1275,-4988,7813,3,3,5,1
607909,1250,-4966,7832,3,3,5,1
607914,1188,-4975,7791,3,2,5,1
607919,1125,-4979,7703,3,1,6,1
607924,1083,-4957,7687,3,1,5,1
607929,1114,-4934,7755,4,2,5,1
607934,1149,-4933,7815,4,2,5,1
607939,1185,-4933,7792,3,2,5,1
607944,1220,-4918,7769,3,2,5,1
607949,1214,-4899,7754,3,4,5,1
607954,1134,-4902,7674,3,2,6,1
607959,1069,-4915,7617,3,0,6,1
607964,1062,-4908,7599,3,-1,7,1
607969,1104,-4903,7651,3,0,7,1
607974,1144,-4907,7666,3,0,7,1
607979,1159,-4903,7688,3,0,7,1
607984,1210,-4885,7754,3,1,7,1
607989,1234,-4875,7820,3,4,7,1
607994,1236,-4864,7792,3,4,7,1
607999,1231,-4837,7727,3,7,7,1
608004,1224,-4815,7679,3,13,7,1
608009,1198,-4814,7592,3,18,7,1
608014,1181,-4833,7539,2,20,7,1
608019,1257,-4844,7464,2,22,7,1
608024,1434,-4832,7519,2,24,7,1
608029,1644,-4813,7619,2,26,7,1
608034,1893,-4824,7685,2,25,6,1
608038,2147,-4837,7655,2,24,7,1
608043,2514,-4831,7590,2,26,7,1
608048,3096,-4831,7595,3,30,8,1
608054,3325,-4840,7592,4,35,9,1
608058,3121,-4857,7663,3,29,3,1
608063,3363,-4856,7222,1,31,-3,1
608068,2743,-5010,7647,2,32,-2,1
608073,2344,-5181,7637,2,17,-1,1
608078,2169,-5358,7642,3,14,0,1
608083,2346,-5393,7422,3,26,0,1
608088,2534,-5423,7480,3,39,-2,1
608093,2631,-5468,7362,3,43,-5,1
608098,2562,-5571,7296,3,40,-6,1
608103,2556,-5647,7109,3,36,-8,1
608108,2652,-5694,6980,2,34,-9,1
608113,2894,-5696,6847,1,32,-11,1
608118,3093,-5677,6902,1,32,-14,1
608123,3254,-5660,6922,1,30,-16,1
608128,3347,-5678,6865,1,29,-18,1
608133,3375,-5636,6854,1,27,-20,1
608138,3310,-5589,7198,2,20,-22,1
608143,3412,-5604,7278,3,12,-23,1
608148,3606,-5566,7086,2,14,-25,1
608153,3751,-5524,7393,3,16,-27,1
608158,3889,-5511,7280,3,11,-29,1
608163,3941,-5551,7101,3,6,-31,1
608168,3931,-5532,7014,2,7,-33,1
608173,3847,-5510,7170,2,5,-34,1
608178,3782,-5531,7277,2,0,-36,1
608183,3815,-5519,7065,2,4,-37,1
608188,3817,-5549,7149,2,9,-39,1
608193,3810,-5525,7172,1,9,-41,1
608198,3685,-5549,7489,3,4,-42,1
608203,3702,-5543,7199,2,3,-44,1
608208,3611,-5519,7319,2,6,-45,1
608213,3673,-5486,7065,1,7,-47,1
608218,3577,-5491,7166,1,6,-48,1
608223,3485,-5510,7222,0,5,-50,1
608228,3370,-5469,7189,0,7,-51,1
608233,3135,-5417,7562,0,6,-51,1
608238,2954,-5372,7791,0,2,-52,1
608243,2884,-5412,7691,0,1,-53,1
608248,2917,-5377,7435,-2,9,-54,1
608253,2758,-5300,7475,-2,9,-54,1
608258,2584,-5267,7717,-2,-1,-55,1
608263,2532,-5244,7805,-1,-5,-55,1
608268,2448,-5241,8027,-1,-2,-55,1
608273,2543,-5169,7617,-3,4,-56,1
608278,2426,-5143,7739,-2,4,-56,1
608283,2358,-5169,7739,-3,-3,-56,1
608288,2158,-5181,7630,-4,-7,-55,1
608293,1990,-5175,7645,-3,-9,-55,1
608298,1793,-5161,7750,-3,-10,-54,1
608303,1522,-5160,7954,-2,-15,-54,1
608308,1414,-5207,7698,-3,-16,-53,1
608313,1101,-5172,7450,-2,-14,-53,1
608318,888,-5170,7327,0,-19,-53,1
608323,510,-5176,7668,-1,-22,-52,1
608328,49,-5194,7538,-2,-27,-52,1
608333,191,-5315,7611,-4,-22,-52,1
608338,191,-5321,7208,-9,-5,-48,1
608342,593,-5347,7631,-9,-7,-47,1
608347,575,-5353,8129,-7,-8,-45,1
608352,572,-5402,8168,-5,-17,-44,1
608358,147,-5411,8238,-5,-14,-42,1
608362,-197,-5377,8481,-4,-23,-39,1
608367,-538,-5362,8648,-3,-33,-36,1
608373,-880,-5402,8719,-4,-40,-35,1
608377,-970,-5374,8275,-7,-41,-35,1
608382,-1025,-5433,8075,-6,-37,-32,1
608387,-1190,-5453,7977,-6,-39,-29,1
608392,-1284,-5509,8240,-6,-42,-27,1
608397,-1499,-5541,8215,-6,-39,-26,1
608402,-1834,-5587,8401,-5,-36,-24,1
608407,-2195,-5600,8235,-5,-33,-22,1
608412,-2485,-5593,8378,-5,-32,-20,1
608417,-2819,-5589,8592,-4,-31,-17,1
608422,-2980,-5606,8519,-4,-29,-14,1
608427,-2935,-5596,8335,-4,-22,-12,1
608432,-2918,-5597,8401,-3,-16,-10,1
608437,-2911,-5589,8456,-3,-16,-8,1
608442,-3002,-5585,8495,-2,-15,-5,1
608447,-3122,-5567,8444,-2,-15,-2,1
608452,-3221,-5528,8538,-2,-15,1,1
608457,-3379,-5493,8768,-1,-18,4,1
608462,-3526,-5510,8946,0,-23,7,1
608467,-3510,-5529,8981,1,-23,9,1
608472,-3406,-5529,8982,2,-21,11,1
608477,-3328,-5538,9020,3,-23,12,1
608482,-3031,-5539,8883,3,-22,13,1
608487,-2782,-5527,8767,4,-18,13,1
608492,-2675,-5497,8665,4,-17,14,1
608497,-2854,-5465,8502,3,-18,16,1
608502,-3181,-5444,8317,3,-21,18,1
608507,-3291,-5413,8302,3,-20,21,1
608512,-3178,-5379,8398,4,-14,23,1
608517,-3082,-5389,8344,4,-9,25,1
608522,-3087,-5379,8195,4,-7,26,1
608527,-2928,-5343,8403,5,-4,27,1
608532,-2671,-5330,8799,7,-1,27,1
608537,-2790,-5325,8595,7,-3,29,1
608542,-2899,-5257,8405,7,-5,31,1
608547,-2744,-5212,8537,8,1,32,1
608552,-2624,-5197,8551,8,-3,33,1
608557,-2671,-5170,8331,8,-3,34,1
608562,-2724,-5166,8171,7,1,36,1
608567,-2747,-5113,8058,7,0,38,1
608572,-2579,-5122,8261,8,0,39,1
608577,-2455,-5097,8236,8,1,40,1
608582,-2308,-5082,8167,8,7,41,1
608587,-2142,-5037,8154,8,7,42,1
608592,-1809,-4974,8366,9,6,42,1
608597,-1584,-4945,8359,10,9,43,1
608602,-1584,-4917,8066,10,6,45,1
608607,-1642,-4849,7669,9,6,46,1
608612,-1424,-4787,7764,9,4,47,1
608617,-1074,-4741,8016,9,8,48,1
608622,-875,-4769,7881,10,11,48,1
608627,-868,-4710,7468,8,8,50,1
608632,-460,-4642,7859,9,11,50,1
608637,-76,-4649,7990,9,11,51,1
608642,31,-4675,7673,9,2,51,1
608647,243,-4651,7634,9,4,52,1
608652,600,-4584,7767,9,6,52,1
608657,1012,-4652,8132,10,4,51,1
608662,901,-4661,7598,9,-2,51,1
608667,1052,-4666,7783,10,-4,50,1
608672,1185,-4634,7593,8,-1,50,1
608676,1389,-4723,7731,9,-6,50,1
608682,1437,-4675,7483,8,-4,49,1
608687,1712,-4701,7376,8,3,48,1
608691,1752,-4742,7074,7,2,49,1
608696,1777,-4799,7147,6,0,48,1
608701,2043,-4845,7510,5,0,47,1
608706,2191,-4882,7437,6,1,47,1
608711,2388,-4919,7746,6,-1,46,1
608716,2792,-4867,7708,6,8,44,1
608721,3337,-4934,7993,8,7,44,1
608726,3536,-4938,7421,6,7,46,1
608731,3730,-4971,7713,6,0,41,1
608736,4098,-4990,7320,4,1,37,1
608741,4071,-5086,7437,4,-6,36,1
608746,3790,-5157,7328,3,-13,37,1
608751,3619,-5274,7331,4,-15,37,1
608756,3744,-5349,7269,5,-12,35,1
608761,4208,-5425,7409,5,-4,32,1
608766,4685,-5524,7261,5,6,30,1
608771,4885,-5602,6998,3,8,29,1
608776,4945,-5655,6625,2,7,26,1
608781,4929,-5686,6534,2,0,24,1
608786,4956,-5716,6417,2,-9,22,1
608791,5089,-5715,6331,1,-11,20,1
608796,5456,-5705,6452,1,-2,18,1
608801,5828,-5716,6524,1,4,15,1
608806,6036,-5703,6418,1,1,12,1
608811,6250,-5690,6515,1,-1,10,1
608816,6449,-5657,6566,1,-1,7,1
608821,6623,-5611,6553,1,-3,5,1
608826,6778,-5560,6525,1,-1,2,1
608831,7059,-5548,6542,0,4,-1,1
608836,6975,-5530,6624,0,2,-4,1
608841,6736,-5497,6631,1,-6,-5,1
608846,6490,-5478,6665,1,-11,-6,1
608851,6377,-5458,6723,1,-12,-8,1
608856,6468,-5449,6629,1,-8,-10,1
608861,6609,-5409,6484,0,-5,-13,1
608866,6634,-5403,6572,0,-6,-16,1
608871,6649,-5462,6295,-1,-9,-18,1
608876,6584,-5422,6108,-2,-7,-21,1
608881,6405,-5370,6550,-2,-9,-23,1
608886,6221,-5399,7001,0,-16,-25,1
608891,6221,-5369,6754,-1,-11,-27,1
608896,6254,-5261,6980,-1,-1,-29,1
608901,6310,-5235,7161,0,-6,-32,1
608906,6306,-5245,6925,-1,-11,-35,1
608911,6365,-5174,6632,-3,-3,-37,1
608916,6308,-5135,6966,-4,-3,-39,1
608921,6204,-5104,7171,-4,-13,-42,1
608926,6076,-5108,7317,-4,-14,-44,1
608931,6065,-5044,7142,-5,-5,-46,1
608936,5919,-5014,7610,-4,-4,-48,1
608941,5741,-4982,7787,-4,-14,-50,1
608946,5507,-4986,7804,-4,-14,-52,1
608951,5443,-4900,7496,-5,-6,-54,1
608956,5382,-4890,7508,-6,-2,-56,1
608961,5343,-4936,7365,-7,-6,-58,1
608966,5172,-4898,7391,-8,-4,-60,1
608971,5029,-4886,7432,-9,-4,-62,1
608976,4849,-4927,7191,-11,-3,-63,1
608981,4621,-4987,7404,-12,0,-65,1
608986,4456,-4944,7341,-13,1,-66,1
608990,4133,-4980,7926,-11,-2,-67,1
608996,3925,-5006,7716,-13,-1,-68,1
609000,3726,-5005,7592,-13,4,-69,1
609006,3467,-5028,8204,-13,3,-70,1
609011,3221,-5073,8159,-13,-6,-70,1
609015,2944,-5064,7984,-14,-5,-71,1
609020,2636,-5045,8434,-15,0,-71,1
609026,2394,-5118,8172,-15,-6,-72,1
609030,2090,-5213,8009,-16,-7,-72,1
609035,1650,-5229,8011,-17,-8,-72,1
609040,1107,-5339,7840,-15,-20,-74,1
609045,827,-5397,7786,-17,-23,-72,1
609050,424,-5447,7984,-20,-20,-68,1
609055,294,-5543,8276,-21,-26,-70,1
609060,225,-5622,8035,-23,-27,-69,1
609065,137,-5644,7793,-22,-25,-65,1
609070,-131,-5625,8015,-20,-21,-61,1
609075,-418,-5667,8436,-18,-26,-58,1
609080,-771,-5701,8418,-18,-28,-56,1
609085,-976,-5715,8166,-18,-29,-54,1
609090,-1205,-5686,8227,-18,-23,-51,1
609095,-1490,-5706,8398,-16,-20,-49,1
609100,-2363,-5755,8685,-14,-30,-43,1
609105,-3231,-5726,8822,-12,-36,-38,1
609110,-3862,-5711,9032,-11,-34,-32,1
609115,-4069,-5700,8831,-11,-28,-28,1
609120,-3970,-5678,8678,-10,-18,-25,1
609125,-3866,-5720,8519,-10,-7,-23,1
609130,-3708,-5721,8352,-11,-5,-21,1
609135,-3801,-5719,8789,-9,-5,-19,1
609140,-4018,-5694,9139,-8,-12,-15,1
609145,-4272,-5633,9413,-6,-9,-11,1
609150,-4288,-5554,9565,-4,-4,-7,1
609155,-4160,-5494,9569,-3,1,-4,1
609160,-3993,-5482,9597,-1,3,-1,1
609165,-4010,-5452,9571,0,-1,2,1
609170,-3922,-5414,9409,1,-6,5,1
609175,-3615,-5399,9206,1,0,8,1
609180,-3184,-5382,9065,1,3,9,1
609185,-2726,-5352,8941,2,5,10,1
609190,-2462,-5337,8886,3,7,10,1
609195,-2369,-5312,8788,4,4,12,1
609200,-2331,-5281,8661,4,2,14,1
609205,-2207,-5243,8481,5,2,16,1
609210,-1955,-5216,8317,5,2,18,1
609215,-1784,-5222,8114,5,3,19,1
609220,-1547,-5217,8034,6,1,20,1
609225,-1194,-5194,8171,7,3,20,1
609230,-898,-5161,8315,8,3,20,1
609235,-824,-5144,8210,8,0,21,1
609240,-893,-5103,7897,8,-6,22,1
609245,-847,-5024,7807,7,-11,23,1
609250,-556,-4958,7933,7,-11,24,1
609255,-240,-4955,8098,8,-7,23,1
609260,-163,-4975,8020,8,-3,23,1
609265,-168,-4956,7915,8,-3,24,1
609270,69,-4848,8048,8,0,24,1
609275,450,-4816,8302,9,3,23,1
609280,568,-4811,8059,9,-3,24,1
609285,590,-4806,7891,8,-7,23,1
609290,737,-4746,7916,8,-2,24,1
609295,950,-4716,8059,8,2,23,1
609300,990,-4709,7944,8,-3,24,1
609305,990,-4763,7910,8,-5,23,1
609310,983,-4795,7723,7,-3,24,1
609315,1169,-4765,7831,7,0,23,1
609320,1461,-4767,8055,8,7,22,1
609325,1451,-4848,7863,8,8,21,1
609329,1338,-4823,7652,7,3,21,1
609335,1574,-4754,7931,8,10,20,1
609339,1722,-4755,7960,8,15,20,1
609344,1755,-4795,7822,7,7,19,1
609349,1703,-4749,7542,6,2,20,1
609354,1772,-4730,7458,5,5,20,1
609359,1897,-4714,7366,5,2,21,1
609364,1991,-4710,7422,5,-2,21,1
609369,2149,-4753,7486,5,-1,20,1
609374,2223,-4732,7623,6,3,20,1
609379,2511,-4681,7937,7,7,18,1
609384,2520,-4653,7859,7,11,18,1
609389,2457,-4677,7663,7,5,18,1
609394,2327,-4640,7368,6,3,19,1
609399,2484,-4625,7498,6,4,19,1
609404,2528,-4635,7459,6,7,19,1
609409,2385,-4707,7253,5,3,19,1
609414,2292,-4685,7019,3,1,20,1
609419,2386,-4684,7239,4,7,19,1
609424,2563,-4721,7348,5,8,19,1
609429,2606,-4755,7307,5,4,19,1
609434,2640,-4750,7248,5,5,19,1
609439,2725,-4728,7295,6,9,18,1
609444,2863,-4718,7394,6,7,18,1
609449,2899,-4720,7392,6,3,18,1
609454,2889,-4694,7266,6,0,18,1
609459,2846,-4698,7192,5,1,18,1
609464,2797,-4711,7078,4,-1,19,1
609469,2885,-4732,7246,5,-3,18,1
609474,2977,-4753,7317,5,-1,18,1
609479,2936,-4771,7272,5,-2,18,1
609484,2895,-4785,7155,4,-3,17,1
609489,2860,-4780,7186,4,-5,17,1
609494,2962,-4802,7308,5,-7,17,1
609499,3136,-4791,7488,5,-8,16,1
609504,3263,-4763,7643,6,-4,15,1
609509,3177,-4770,7550,6,-3,14,1
609514,3014,-4759,7368,5,-6,15,1
609519,2926,-4746,7328,4,-6,15,1
609524,2913,-4743,7287,4,-5,15,1
609529,2944,-4781,7254,3,-4,15,1
609534,2936,-4834,7194,2,-3,14,1
609539,2946,-4853,7250,2,-1,14,1
609544,3111,-4845,7543,3,2,13,1
609549,3221,-4859,7777,4,6,12,1
609554,3249,-4893,7754,4,5,12,1
609559,3248,-4892,7676,3,4,11,1
609564,3291,-4877,7659,3,4,11,1
609569,3392,-4893,7724,2,3,11,1
609574,3470,-4921,7778,1,0,11,1
609579,3502,-4950,7787,0,-3,11,1
609584,3527,-4963,7798,0,-4,10,1
609589,3609,-4945,7901,1,-4,9,1
609594,3715,-4942,8119,0,-3,10,1
609599,3768,-4928,8070,-1,-2,10,1
609604,3606,-4953,7668,1,-7,9,1
609609,3335,-4926,7357,3,-12,8,1
609614,3161,-4859,7294,3,-11,6,1
609619,3038,-4850,7334,3,-10,6,1
609624,2903,-4896,7401,3,-15,6,1
609629,2807,-4958,7230,2,-19,5,1
609633,2723,-4985,6973,1,-16,5,1
609639,2657,-4964,6923,0,-12,5,1
609644,2592,-4933,6993,0,-9,4,1
609649,2494,-4933,7078,1,-10,4,1
609653,2409,-4960,7062,1,-9,4,1
609658,2334,-4988,7026,1,-4,3,1
609663,2271,-4992,7013,0,2,3,1
609668,2194,-4988,7067,0,4,2,1
609673,2100,-4973,7084,0,4,2,1
609678,1996,-4952,7087,-1,3,2,1
609683,1962,-4919,7101,-1,4,2,1
609688,1989,-4880,7192,-1,5,2,1
609693,2043,-4838,7297,-1,4,1,1
609698,2055,-4800,7423,-2,2,1,1
609703,2058,-4755,7563,-2,0,1,1
609708,2058,-4707,7721,-2,-3,0,1
609713,2062,-4663,7853,-1,-5,0,1
609718,2050,-4608,7948,-1,-5,-1,1
609723,2018,-4548,7970,0,-4,-1,1
609728,1986,-4492,7909,0,-2,-1,1
609733,1936,-4442,7793,0,-2,-1,1
609738,1882,-4390,7691,0,-3,-1,1
609743,1840,-4351,7603,0,-3,-1,1
609748,1793,-4331,7541,0,-3,0,1
609753,1736,-4323,7463,-1,-2,0,1
609758,1689,-4327,7387,-1,-1,0,1
609763,1649,-4321,7342,-1,0,0,1
609768,1633,-4308,7363,0,1,0,1
609773,1660,-4289,7427,0,2,0,1
609778,1696,-4277,7486,1,4,0,1
609783,1732,-4277,7496,1,5,1,1
609788,1735,-4282,7440,1,4,1,1
609793,1731,-4268,7364,1,3,1,1
609798,1724,-4249,7351,1,2,1,1
609803,1695,-4249,7392,1,1,1,1
609808,1627,-4275,7405,1,0,2,1
609813,1557,-4308,7409,1,-1,2,1
609818,1498,-4317,7451,0,1,2,1
609823,1400,-4298,7523,0,3,3,1
609828,1331,-4272,7533,0,3,3,1
609833,1294,-4250,7505,0,3,3,1
609838,1427,-4268,7584,0,4,1,1
609843,1647,-4313,7688,1,6,1,1
609848,1736,-4318,7756,0,6,1,1
609853,1781,-4298,7853,1,5,0,1
609858,1748,-4305,7944,1,6,1,1
609863,1663,-4330,7921,1,4,1,1
609868,1567,-4337,7861,2,2,1,1
609873,1573,-4334,7840,3,3,0,1
609878,1522,-4298,7799,3,5,0,1
609883,1553,-4279,7788,3,3,0,1
609888,1629,-4281,7821,3,4,1,1
609893,1675,-4303,7809,2,5,1,1
609898,1649,-4337,7746,2,3,1,1
609903,1576,-4375,7668,2,0,1,1
609908,1470,-4408,7647,2,-2,1,1
609913,1446,-4412,7702,2,-4,2,1
609918,1638,-4390,7945,2,-2,3,1
609923,1870,-4367,8249,1,1,3,1
609928,2018,-4380,8439,2,-1,3,1
609933,2006,-4366,8474,2,-4,3,1
609938,1928,-4338,8497,3,-3,4,1
609943,1858,-4373,8415,3,-1,4,1
609948,1766,-4409,8191,3,-4,5,1
609953,1822,-4381,8149,3,-8,6,1
609958,1886,-4339,8140,3,-6,6,1
609962,1873,-4371,8173,3,-7,6,1
609968,1658,-4417,8035,3,-11,7,1
609972,1501,-4450,8044,3,-12,7,1
609977,1446,-4448,8089,3,-8,8,1
609982,1462,-4491,8177,3,-7,8,1
609987,1437,-4498,8042,3,-11,9,1
609992,1476,-4478,8124,3,-9,8,1
609997,1463,-4450,8150,4,-4,9,1
610002,1395,-4487,8161,4,-4,9,1
610007,1149,-4560,7814,3,-10,10,1
610012,1122,-4545,7851,3,-14,11,1
610017,1247,-4504,7997,3,-8,12,1
610022,1369,-4566,8061,3,-9,12,1
610027,1340,-4555,7969,3,-15,12,1
610032,1493,-4541,8227,4,-10,12,1
610037,1450,-4537,8165,4,-6,12,1
610042,1418,-4584,8189,4,-15,13,1
610047,1350,-4567,8022,4,-19,14,1
610052,1427,-4557,8112,4,-17,14,1
610057,1578,-4522,8157,4,-15,14,1
610062,1605,-4524,8232,5,-15,14,1
610067,1435,-4587,7964,4,-18,14,1
610072,1198,-4616,7763,3,-21,16,1
610077,1264,-4611,7884,3,-18,16,1
610082,1387,-4634,7987,4,-15,16,1
610087,1476,-4687,7975,4,-19,16,1
610092,1559,-4647,8028,4,-18,16,1
610097,1660,-4614,8224,5,-7,15,1
610102,1548,-4660,8062,5,-6,16,1
610107,1410,-4684,7859,5,-17,16,1
610112,1410,-4713,7808,4,-18,17,1
610117,1430,-4750,7687,4,-16,17,1
610122,1577,-4760,7817,4,-18,16,1
610127,1589,-4769,7863,4,-14,16,1
610132,1504,-4814,7797,4,-13,16,1
610137,1364,-4860,7707,3,-14,16,1
610142,1361,-4892,7759,3,-13,16,1
610147,1394,-4965,7735,3,-10,16,1
610152,1481,-5024,7661,3,-12,15,1
610157,1563,-5027,7651,3,-10,15,1
610162,1729,-4978,7755,4,-7,14,1
610167,1786,-4981,7822,4,-4,14,1
610172,1714,-5008,7612,3,-10,14,1
610177,1692,-5009,7555,3,-16,14,1
610182,1786,-5012,7549,3,-12,14,1
610187,1867,-5052,7518,3,-11,14,1
610192,1928,-5105,7481,2,-15,13,1
610197,1973,-5093,7539,2,-14,13,1
610202,2095,-5060,7725,3,-9,12,1
610207,2070,-5060,7694,3,-6,12,1
610212,1949,-5101,7502,3,-9,11,1
610217,1848,-5130,7340,2,-11,11,1
610222,1883,-5138,7323,2,-7,11,1
610227,2013,-5157,7381,2,-3,10,1
610232,2078,-5203,7307,2,-1,10,1
610237,1987,-5235,7136,1,-2,9,1
610242,1951,-5216,7157,1,-2,9,1
610247,1924,-5250,7195,1,2,9,1
610252,1922,-5318,7132,1,-2,8,1
610257,2056,-5322,7151,1,-3,8,1
610262,2208,-5292,7247,1,2,7,1
610267,2253,-5280,7271,1,4,6,1
610272,2172,-5269,7228,1,0,6,1
610277,2105,-5249,7210,1,-2,6,1
610282,2086,-5249,7218,0,-1,6,1
610287,2127,-5285,7185,0,-1,6,1
610291,2192,-5334,7159,0,-3,5,1
610297,2279,-5357,7192,0,-3,5,1
610302,2344,-5369,7274,0,-2,4,1
610307,2373,-5380,7297,0,-2,3,1
610312,2350,-5393,7304,0,-4,3,1
610317,2287,-5407,7263,0,-4,3,1
610321,2209,-5428,7197,0,-4,2,1
610327,2164,-5447,7139,0,-2,2,1
610331,2147,-5476,7110,0,0,2,1
610336,2132,-5524,7072,0,2,1,1
610341,2078,-5570,7012,-1,2,1,1
610346,2006,-5606,6958,-1,0,1,1
610351,1952,-5626,6921,-1,0,1,1
610356,1917,-5638,6905,-1,-1,1,1
610361,1910,-5641,6906,-2,-1,1,1
610366,1920,-5648,6942,-2,1,0,1
610371,1914,-5656,6999,-1,3,0,1
610376,1901,-5667,7054,-1,5,-1,1
610381,1878,-5678,7101,-1,6,-1,1
610386,1854,-5683,7120,-1,6,-1,1
610391,1856,-5692,7112,-1,6,-1,1
610396,1848,-5702,7089,-1,6,-1,1
610401,1845,-5711,7056,-1,4,-1,1
610406,1819,-5720,7022,-1,2,-1,1
610411,1777,-5731,7001,-1,0,-1,1
610416,1723,-5745,7000,-1,-1,-1,1
610421,1679,-5758,7009,-1,-1,-1,1
610426,1616,-5765,7006,-1,-1,-1,1
610431,1550,-5762,6987,-1,0,-1,1
610436,1473,-5756,6946,-1,1,0,1
610441,1416,-5754,6874,-1,1,0,1
610446,1388,-5761,6804,-1,2,0,1
610451,1376,-5765,6757,-1,3,1,1
610456,1343,-5757,6708,-1,3,1,1
610461,1335,-5743,6700,-1,3,1,1
610466,1391,-5731,6766,-1,4,1,1
610471,1452,-5723,6869,-1,5,1,1
610476,1496,-5714,6914,0,6,1,1
610481,1488,-5692,6870,0,5,2,1
610486,1482,-5677,6873,0,4,2,1
610491,1501,-5670,6895,0,3,3,1
610496,1534,-5656,6854,0,1,3,1
610501,1539,-5625,6698,0,-2,4,1
610506,1566,-5598,6697,0,-4,4,1
610511,1612,-5594,6831,1,-4,4,1
610516,1617,-5594,6991,2,-4,4,1
610521,1592,-5569,7036,1,-5,5,1
610526,1591,-5521,7032,1,-4,5,1
610531,1652,-5483,7134,2,-3,5,1
610536,1702,-5438,7190,1,-1,5,1
610541,1711,-5403,7192,1,-3,5,1
610546,1639,-5377,7113,1,-5,6,1
610551,1612,-5360,7132,1,-6,6,1
610556,1628,-5336,7248,1,-5,6,1
610561,1692,-5311,7280,2,-5,6,1
610566,1763,-5281,7369,2,-5,5,1
610571,1785,-5235,7358,2,-4,5,1
610576,1776,-5189,7357,2,-4,5,1
610581,1754,-5152,7323,2,-5,5,1
610586,1741,-5120,7363,2,-7,6,1
610591,1695,-5086,7222,2,-8,6,1
610596,1588,-5057,6948,1,-11,7,1
610601,1659,-5011,7028,0,-12,7,1
610606,1770,-4969,7166,1,-10,7,1
610611,1976,-4957,7428,2,-12,6,1
610616,2052,-4912,7593,3,-10,5,1
610621,2069,-4836,7617,3,-10,5,1
610626,2010,-4750,7528,3,-8,5,1
610631,1997,-4666,7491,3,-8,5,1
610636,2037,-4592,7456,2,-9,5,1
610641,2100,-4532,7449,2,-11,5,1
610645,2169,-4458,7456,2,-12,5,1
610650,2236,-4365,7549,1,-11,4,1
610655,2282,-4285,7591,1,-9,4,1
610661,2314,-4224,7775,2,-8,4,1
610665,2214,-4177,7949,2,-9,4,1
610670,2154,-4136,8057,2,-11,4,1
610675,2128,-4075,8077,2,-11,4,1
610680,2183,-3992,8090,2,-10,4,1
610685,2216,-3940,8143,2,-8,4,1
610690,2251,-3909,8199,2,-8,3,1
610695,2258,-3880,8295,2,-8,3,1
610700,2262,-3836,8311,2,-7,2,1
610705,2251,-3793,8269,2,-5,2,1
610710,2302,-3762,8307,2,-4,2,1
610715,2358,-3738,8387,2,-2,2,1
610720,2373,-3709,8390,2,-3,1,1
610725,2327,-3672,8323,2,-4,1,1
610730,2299,-3640,8305,1,-5,1,1
610735,2310,-3620,8340,1,-3,1,1
610740,2327,-3615,8344,1,-3,1,1
610745,2357,-3606,8363,1,-4,1,1
610750,2378,-3603,8436,1,-3,1,1
610755,2340,-3597,8468,1,-3,0,1
610760,2297,-3591,8483,1,-3,0,1
610765,2250,-3586,8496,1,-2,0,1
610770,2215,-3583,8472,1,-1,0,1
610775,2193,-3591,8461,1,-1,0,1
610780,2182,-3610,8464,1,0,0,1
610785,2169,-3640,8456,0,1,0,1
610790,2150,-3670,8432,0,1,0,1
610795,2140,-3695,8404,1,0,0,1
610800,2139,-3722,8373,0,-2,0,1
610805,2138,-3748,8332,0,-3,0,1
610810,2130,-3778,8304,0,-5,0,1
610815,2108,-3808,8287,0,-5,0,1
610820,2088,-3857,8282,0,-5,0,1
610825,2067,-3921,8292,0,-4,0,1
610830,2032,-3983,8292,0,-3,0,1
610835,1986,-4037,8278,0,-4,0,1
610840,1932,-4084,8264,0,-4,0,1
610845,1882,-4125,8247,0,-5,0,1
610850,1846,-4174,8216,0,-5,0,1
610855,1816,-4223,8174,0,-5,0,1
610860,1803,-4265,8125,0,-6,0,1
610865,1779,-4303,8065,0,-6,-1,1
610870,1747,-4339,8001,0,-6,-1,1
610875,1703,-4375,7930,0,-6,-1,1
610880,1663,-4406,7870,0,-5,-1,1
610885,1627,-4440,7825,0,-4,-1,1
610890,1610,-4479,7802,0,-3,-1,1
610895,1602,-4524,7791,-1,-2,-1,1
610900,1605,-4556,7786,-1,-1,-1,1
610905,1631,-4567,7788,-1,0,-1,1
610910,1672,-4576,7796,0,1,-1,1
610915,1703,-4593,7801,0,1,-1,1
610920,1729,-4611,7781,0,0,-1,1
610925,1751,-4623,7752,0,-1,-1,1
610930,1781,-4637,7718,0,-1,-1,1
610935,1800,-4647,7674,0,-2,-1,1
610940,1808,-4655,7633,0,-2,-1,1
610945,1808,-4663,7605,0,-3,-1,1
610950,1804,-4673,7600,-1,-3,-1,1
610955,1786,-4690,7614,-1,-3,-1,1
610960,1761,-4703,7643,-1,-2,-1,1
610965,1745,-4707,7692,-1,-2,-1,1
610970,1733,-4714,7755,-1,-1,-1,1
610975,1728,-4724,7819,-1,0,-1,1
610979,1725,-4727,7895,-1,0,-1,1
610985,1717,-4728,7957,-1,0,-1,1
610989,1718,-4721,7997,-1,0,-1,1
610994,1733,-4712,8023,-1,0,-1,1
610999,1765,-4710,8037,-1,0,-1,1
611004,1816,-4718,8044,-1,0,-1,1
611009,1874,-4724,8038,-1,-1,-1,1
611014,1929,-4723,8024,-1,-1,-1,1
611019,1988,-4718,8017,-1,-1,-1,1
611024,2049,-4717,8055,-2,-1,-1,1
611029,2113,-4734,8110,-2,-1,-1,1
611034,2177,-4762,8161,-3,0,0,1
611039,2234,-4781,8214,-3,0,0,1
611044,2295,-4784,8284,-3,1,0,1
611049,2363,-4776,8349,-3,2,0,1
611054,2430,-4766,8393,-4,3,1,1
611059,2362,-4726,8147,-4,3,1,1
611064,2128,-4692,7679,0,-1,-1,1
611069,1923,-4628,7411,1,-3,-2,1
611074,1795,-4578,7226,0,0,-2,1
611079,1766,-4603,7139,0,-1,-2,1
611084,1733,-4660,7006,-2,-2,-2,1
611089,1715,-4704,6946,-3,-2,-2,1
611094,1734,-4726,7012,-3,1,-2,1
611099,1799,-4730,7106,-4,3,-2,1
611104,1889,-4713,7202,-4,3,-2,1
611109,1940,-4714,7406,-3,1,-1,1
611114,1862,-4721,7633,-2,3,0,1
611119,1771,-4706,7821,-1,3,-1,1
611124,1648,-4688,7971,0,3,-1,1
611129,1620,-4660,7973,0,2,-1,1
611134,1732,-4644,7971,1,4,-1,1
611139,1896,-4632,7988,1,6,-2,1
611144,1998,-4630,8069,1,4,-2,1
611149,2007,-4623,8126,1,0,-2,1
611154,1968,-4615,8238,2,-1,-2,1
611159,1856,-4596,8290,2,-3,-1,1
611164,1737,-4573,8244,2,-7,-1,1
611169,1729,-4544,7976,1,-9,-1,1
611174,1825,-4528,7722,0,-6,-1,1
611179,1923,-4531,7590,-1,-1,-1,1
611184,1980,-4552,7618,-1,1,-2,1
611189,1970,-4589,7684,-1,0,-2,1
611194,1948,-4623,7729,-1,-2,-2,1
611199,1950,-4650,7720,-1,-2,-2,1
611204,2001,-4668,7678,-1,0,-2,1
611209,2055,-4683,7643,-1,2,-3,1
611214,2097,-4705,7597,0,1,-3,1
611219,2106,-4733,7562,0,1,-3,1
611224,2113,-4763,7541,1,2,-3,1
611229,2115,-4789,7556,2,1,-3,1
611234,2129,-4807,7559,2,1,-4,1
611239,2144,-4818,7567,3,1,-4,1
611244,2164,-4823,7568,3,1,-4,1
611249,2181,-4819,7569,4,1,-4,1
611254,2192,-4814,7586,4,1,-4,1
611259,2188,-4805,7614,5,0,-5,1
611264,2183,-4792,7650,5,-1,-5,1
611269,2179,-4774,7691,6,-1,-5,1
611274,2183,-4757,7733,6,-2,-5,1
611279,2186,-4745,7776,7,-3,-5,1
611284,2182,-4737,7799,7,-5,-5,1
611289,2149,-4726,7788,7,-6,-5,1
611293,2100,-4709,7741,8,-6,-5,1
611298,2058,-4693,7706,8,-5,-5,1
611303,2041,-4676,7705,8,-4,-5,1
611308,2038,-4653,7747,8,-5,-5,1
611313,2035,-4635,7797,8,-4,-5,1
611318,2019,-4618,7813,8,-4,-5,1
611323,1985,-4600,7805,8,-3,-6,1
611328,1941,-4579,7776,8,-2,-6,1
611333,1901,-4556,7754,8,-1,-5,1
611338,1874,-4541,7742,8,-1,-5,1
611343,1851,-4534,7738,8,-1,-5,1
611348,1830,-4530,7716,8,-1,-5,1
611353,1817,-4521,7686,8,0,-5,1
611358,1810,-4505,7658,8,0,-5,1
611363,1816,-4488,7643,7,0,-5,1
611368,1810,-4467,7652,7,-1,-5,1
611373,1790,-4446,7667,7,-1,-5,1
611378,1782,-4435,7673,6,-1,-5,1
611383,1778,-4429,7664,6,-1,-5,1
611388,1779,-4420,7632,6,-1,-4,1
611393,1776,-4410,7598,5,-2,-4,1
611398,1775,-4402,7557,5,-2,-4,1
611403,1769,-4399,7517,5,-4,-4,1
611408,1750,-4402,7460,5,-6,-3,1
611413,1729,-4407,7417,4,-6,-3,1
611418,1709,-4408,7384,4,-6,-3,1
611423,1687,-4413,7364,4,-5,-3,1
611428,1662,-4420,7363,3,-5,-2,1
611433,1657,-4422,7387,3,-4,-2,1
611438,1672,-4418,7437,2,-4,-2,1
611443,1695,-4416,7477,2,-5,-2,1
611448,1698,-4416,7479,2,-5,-1,1
611453,1672,-4422,7430,2,-6,-1,1
611458,1634,-4431,7363,2,-5,-1,1
611463,1598,-4447,7300,1,-5,-1,1
611468,1582,-4462,7259,1,-3,-1,1
611473,1594,-4475,7241,1,-2,0,1
611478,1606,-4483,7227,1,0,0,1
611483,1595,-4489,7201,1,2,0,1
611488,1546,-4492,7162,1,4,0,1
611493,1486,-4493,7103,0,6,0,1
611498,1454,-4490,7038,0,9,0,1
611503,1458,-4488,6961,0,12,1,1
611508,1479,-4483,6875,0,13,1,1
611513,1494,-4484,6790,0,14,1,1
611518,1494,-4492,6690,-1,14,1,1
611523,1465,-4502,6557,-1,14,2,1
611528,1417,-4508,6374,-2,16,2,1
611533,1343,-4511,6174,-2,20,2,1
611538,1254,-4516,5975,-3,25,3,1
611543,1144,-4518,5808,-4,30,3,1
611548,1013,-4502,5690,-5,34,4,1
611553,857,-4470,5602,-6,38,4,1
611558,653,-4414,5378,-7,39,4,1
611563,406,-4332,4897,-8,38,3,1
611568,134,-4270,4330,-7,33,2,1
611573,111,-4291,3927,-8,24,2,1
611578,698,-4418,4675,-16,23,7,1
611583,637,-4345,4257,-27,15,13,1
611588,1674,-4447,5907,-25,3,11,1
611593,2293,-4413,6628,-27,15,11,1
611598,2554,-4349,7414,-26,-5,8,1
611603,1946,-4154,6537,-31,-3,11,1
611608,1686,-5212,6592,-37,-2,13,1
611613,839,-4760,4448,-57,-33,18,1
611617,3058,-4774,6153,-20,-22,7,1
611622,4961,-5064,7614,0,5,2,1
611627,4900,-4474,8866,18,-42,-6,1
611632,4818,-4011,9939,28,24,-11,1
611637,4271,-3629,8908,24,52,-8,1
611642,3511,-3690,8012,20,7,-4,1
611647,3003,-3767,6803,7,-22,-2,1
611652,3057,-3775,5621,-2,-53,0,1
611657,2726,-3800,5959,-6,-45,3,1
611662,2648,-3866,6845,-15,-27,3,1
611667,2813,-4093,8207,-19,-13,2,1
611672,3171,-4595,9375,-18,-7,3,1
611677,2461,-4777,8541,-12,-4,4,1
611682,2082,-4661,9661,3,6,-4,1
611687,2238,-4700,10377,11,15,-9,1
611692,1498,-4848,9172,12,0,-8,1
611697,1284,-5214,9242,13,12,-8,1
611702,755,-5323,7210,11,22,-6,1
611707,824,-5521,6851,11,8,-6,1
611712,1278,-5659,6560,13,15,-7,1
611717,1804,-5805,7385,17,12,-9,1
611722,2238,-5868,7952,23,19,-10,1
611727,2229,-5863,8385,27,15,-11,1
611732,2106,-5822,7806,31,14,-11,1
611737,1898,-5780,7123,33,2,-10,1
611742,1926,-5720,6436,34,-7,-9,1
611747,2101,-5667,6422,35,-9,-10,1
611752,2301,-5565,6590,36,-7,-10,1
611757,2336,-5468,7001,39,-5,-10,1
611762,2142,-5316,6809,40,-2,-9,1
611767,1816,-5148,6319,40,2,-9,1
611772,1477,-4954,5760,38,7,-8,1
611777,1084,-4721,5016,37,10,-8,1
611782,599,-4482,4003,40,10,-9,1
611787,316,-4432,3598,42,11,-11,1
611792,431,-4431,4001,27,20,-6,1
611797,491,-4356,4543,15,7,-3,1
611802,520,-4155,4744,11,8,-2,1
611807,1286,-4144,6406,15,12,-4,1
611812,1305,-3792,6192,13,6,-3,1
611817,1072,-3604,6125,11,-3,-3,1
611822,731,-3333,4111,-1,11,1,1
611827,610,-3329,3847,-9,3,4,1
611832,654,-3253,3286,-18,-10,6,1
611837,764,-3246,4237,-21,-18,6,1
611842,686,-3117,4131,-26,-6,7,1
611847,413,-3114,4543,-30,-1,9,1
611852,162,-3099,3802,-37,4,11,1
611857,-21,-3215,3538,-42,2,14,1
611862,53,-3303,2853,-50,4,16,1
611867,172,-3457,3063,-54,7,16,1
611872,218,-3583,2975,-60,12,17,1
611877,111,-3769,3455,-63,13,18,1
611882,-17,-3907,3393,-67,15,20,1
611887,-109,-4090,3475,-71,16,21,1
611892,54,-5248,3131,-75,19,22,1
611897,-1128,-4138,344,-107,1,29,1
611902,1373,-4608,2634,-42,-35,8,1
611907,3516,-5041,4598,-9,23,3,1
611912,3676,-3948,6281,27,-55,-6,1
611917,3690,-3029,7723,49,4,-14,1
611922,4017,-2551,5563,42,89,-9,1
611927,3557,-3126,3928,37,10,-2,1
611932,2999,-3405,2134,21,-48,2,1
611937,2755,-3309,344,8,-76,5,1
611942,2537,-3330,793,-5,-58,3,1
611947,1869,-3520,2617,-12,-22,0,1
611952,1622,-3675,4179,-13,0,-3,1
611956,656,-3815,5886,-9,30,-3,1
611961,-322,-3925,4958,-9,27,3,1
611966,-983,-4780,3422,-12,37,5,1
611971,-947,-4774,2910,-17,28,3,1
611976,39,-5024,4834,-6,20,2,1
611981,657,-5350,5518,-3,3,3,1
611986,843,-5293,5967,1,8,1,1
611991,1489,-5203,6526,4,28,0,1
611996,1654,-5158,6151,4,12,0,1
612001,1739,-5227,5985,4,-8,0,1
612006,1756,-5163,5806,1,-3,1,1
612011,1676,-5130,5863,-1,1,2,1
612016,1608,-5166,5998,-2,2,2,1
612021,1577,-5220,6287,-3,6,2,1
612026,1708,-5212,6669,-2,9,2,1
612031,1865,-5174,7019,0,10,1,1
612036,1900,-5112,7255,1,5,0,1
612041,1776,-5031,7398,2,-3,-1,1
612046,1645,-4999,7330,2,-6,-1,1
612051,1452,-4981,7214,1,-6,-1,1
612056,1263,-4968,7234,0,-9,-1,1
612061,1198,-4983,7222,0,-11,0,1
612066,1165,-5003,7201,0,-10,0,1
612071,1123,-5014,7330,0,-12,0,1
612076,1132,-5024,7426,0,-13,0,1
612081,1117,-5000,7489,0,-12,-1,1
612086,1131,-4998,7577,0,-12,-1,1
612091,1158,-5002,7601,0,-10,-1,1
612096,1165,-5004,7641,0,-9,-1,1
612101,1198,-5005,7566,0,-9,-1,1
612106,1199,-5012,7520,0,-8,-1,1
612111,1189,-5009,7510,0,-9,-1,1
612116,1200,-5008,7452,0,-8,-1,1
612121,1197,-4997,7411,0,-6,-1,1
612126,1167,-4977,7432,0,-5,-1,1
612131,1165,-4957,7426,0,-2,-1,1
612136,1168,-4932,7432,0,1,-1,1
612141,1185,-4907,7520,-1,3,-1,1
612146,1234,-4876,7581,-1,5,-1,1
612151,1285,-4832,7644,-1,6,-1,1
612156,1328,-4782,7776,-1,5,-1,1
612161,1364,-4733,7887,-1,5,-1,1
612166,1398,-4684,7973,-1,4,-1,1
612171,1424,-4648,8072,0,3,-1,1
612176,1439,-4620,8088,0,1,-1,1
612181,1438,-4595,8063,0,0,-1,1
612186,1437,-4586,8018,0,-1,-1,1
612191,1425,-4586,7929,0,-1,-1,1
612196,1421,-4583,7835,0,-2,-1,1
612201,1431,-4578,7777,0,-1,-1,1
612206,1434,-4572,7727,-1,-1,-1,1
612211,1439,-4559,7719,-1,-1,-1,1
612216,1463,-4552,7736,-1,-1,-1,1
612221,1469,-4543,7742,0,-1,-1,1
612226,1476,-4539,7775,0,-2,-1,1
612231,1497,-4539,7792,0,-2,-1,1
612236,1497,-4537,7771,0,-2,-1,1
612241,1485,-4529,7776,0,-2,-1,1
612246,1481,-4524,7773,0,-1,-1,1
612251,1467,-4519,7745,0,-1,-1,1
612256,1455,-4512,7749,0,0,-1,1
612261,1461,-4504,7758,0,1,-1,1
612265,1462,-4488,7777,0,1,-1,1
612271,1473,-4471,7823,0,1,-1,1
612275,1487,-4457,7873,0,2,-1,1
612280,1498,-4444,7920,0,3,-1,1
612285,1542,-4433,7968,0,3,-1,1
612290,1588,-4431,7982,0,2,-1,1
612296,1626,-4432,7979,0,-2,-1,1
612300,1685,-4431,7944,0,-5,-1,1
612305,1713,-4427,7896,0,-7,-1,1
612310,1710,-4424,7861,0,-9,-1,1
612315,1693,-4430,7841,0,-9,-1,1
612320,1651,-4441,7835,-1,-8,-1,1
612325,1590,-4456,7857,-1,-7,-1,1
612330,1532,-4480,7887,-1,-6,-1,1
612335,1475,-4507,7911,0,-4,-1,1
612340,1430,-4535,7934,0,-2,-1,1
612345,1410,-4560,7943,0,1,-1,1
612350,1403,-4571,7933,0,4,-1,1
612355,1415,-4570,7917,0,6,-1,1
612360,1449,-4568,7912,0,7,-1,1
612365,1478,-4570,7898,-1,7,-1,1
612370,1518,-4568,7893,-1,6,-1,1
612375,1557,-4570,7901,-1,4,-1,1
612380,1579,-4571,7902,-1,2,-1,1
612385,1600,-4579,7914,-1,0,-1,1
612390,1611,-4593,7925,-1,-1,-1,1
612395,1609,-4604,7910,-1,-1,-1,1
612400,1614,-4616,7895,0,-1,-1,1
612405,1616,-4630,7863,0,-1,-1,1
612410,1616,-4637,7800,0,-3,-1,1
612415,1626,-4652,7749,0,-4,-1,1
612420,1627,-4669,7704,0,-5,-1,1
612425,1625,-4674,7650,-1,-6,-1,1
612430,1626,-4665,7626,-1,-6,-1,1
612435,1612,-4649,7639,-1,-6,-1,1
612440,1597,-4639,7642,-1,-6,-1,1
612445,1580,-4628,7666,0,-6,-1,1
612450,1551,-4627,7696,0,-7,-1,1
612455,1518,-4629,7699,0,-7,-1,1
612460,1490,-4629,7723,0,-6,-1,1
612465,1464,-4626,7748,0,-4,-1,1
612470,1450,-4623,7746,0,-1,-1,1
612475,1448,-4619,7757,0,2,-1,1
612480,1443,-4612,7759,0,3,-1,1
612485,1446,-4607,7738,0,3,-1,1
612490,1449,-4599,7735,0,2,-1,1
612495,1451,-4591,7726,0,2,-1,1
612500,1461,-4589,7726,0,1,-1,1
612505,1471,-4586,7747,0,1,-1,1
612510,1473,-4586,7759,0,1,-1,1
612515,1474,-4586,7767,0,1,-1,1
612520,1471,-4582,7775,0,0,-1,1
612525,1464,-4580,7756,0,-1,-1,1
612530,1460,-4579,7734,0,-2,-1,1
612535,1458,-4578,7712,0,-2,-1,1
612540,1448,-4578,7682,0,-3,-1,1
612545,1446,-4580,7673,0,-2,-1,1
612550,1439,-4580,7673,0,-2,-1,1
612555,1425,-4577,7664,0,-1,-1,1
612560,1414,-4574,7662,0,-1,-1,1
612565,1400,-4569,7652,0,-1,-1,1
612570,1381,-4562,7631,0,-1,-2,1
612575,1368,-4551,7619,0,-1,-2,1
612580,1356,-4528,7593,0,-1,-2,1
612585,1355,-4506,7583,0,-1,-2,1
612590,1371,-4493,7590,0,0,-2,1
612595,1385,-4475,7591,0,-1,-2,1
612600,1403,-4453,7618,1,-2,-2,1
612604,1428,-4434,7655,1,-2,-2,1
612609,1450,-4411,7664,1,-2,-2,1
612614,1466,-4380,7680,1,-4,-2,1
612619,1488,-4354,7690,1,-4,-2,1
612624,1502,-4340,7686,1,-5,-2,1
612629,1509,-4329,7703,1,-6,-2,1
612634,1511,-4316,7729,1,-6,-2,1
612639,1537,-4204,7762,1,-7,-2,1
612644,1569,-4084,7798,1,-10,-2,1
612649,1587,-4036,7812,1,-12,-3,1
612654,1537,-4100,7809,2,-11,-3,1
612659,1433,-4225,7803,2,-6,-3,1
612664,1369,-4317,7771,3,-3,-4,1
612669,1335,-4333,7726,2,-6,-4,1
612674,1322,-4295,7691,2,-8,-3,1
612679,1326,-4251,7640,1,-6,-3,1
612684,1362,-4219,7633,1,-1,-3,1
612689,1404,-4196,7690,1,2,-3,1
612694,1462,-4199,7753,2,0,-4,1
612699,1486,-4208,7785,2,-3,-4,1
612704,1498,-4217,7824,2,-6,-4,1
612709,1485,-4230,7824,3,-6,-4,1
612714,1463,-4247,7796,2,-5,-4,1
612719,1457,-4260,7780,2,-3,-4,1
612724,1456,-4269,7764,2,-2,-4,1
612729,1474,-4286,7778,2,-2,-4,1
612734,1502,-4308,7759,2,-1,-4,1
612739,1526,-4333,7743,2,-1,-4,1
612744,1537,-4303,7738,2,0,-4,1
612749,1534,-4267,7738,2,5,-4,1
612754,1573,-4247,7749,2,9,-4,1
612759,1614,-4259,7780,3,7,-4,1
612764,1650,-4299,7772,3,1,-5,1
612769,1658,-4353,7720,3,-4,-5,1
612774,1652,-4418,7680,3,-8,-5,1
612779,1620,-4489,7638,3,-8,-5,1
612784,1581,-4567,7617,3,-5,-5,1
612789,1576,-4662,7613,2,1,-5,1
612794,1597,-4760,7587,2,7,-5,1
612799,1652,-4840,7584,2,9,-4,1
612804,1690,-4884,7602,2,9,-4,1
612809,1724,-4884,7614,2,7,-4,1
612814,1724,-4853,7634,3,5,-4,1
612819,1723,-4814,7645,3,5,-4,1
612824,1705,-4782,7634,3,7,-4,1
612829,1703,-4768,7635,3,10,-4,1
612834,1691,-4773,7631,3,12,-4,1
612839,1698,-4783,7628,3,13,-4,1
612844,1705,-4795,7654,2,14,-4,1
612849,1737,-4821,7717,2,17,-4,1
612854,1752,-4855,7792,2,20,-4,1
612859,1782,-4891,7887,2,23,-4,1
612864,1866,-4913,7941,2,26,-4,1
612869,1856,-4916,7987,2,30,-3,1
612874,1820,-4902,8024,2,30,-4,1
612879,1717,-4884,7998,2,28,-5,1
612884,1607,-4867,7936,2,25,-5,1
612889,1560,-4858,7875,2,22,-5,1
612894,1621,-4850,7790,2,21,-5,1
612899,1771,-4850,7690,2,23,-6,1
612904,1957,-4862,7618,1,27,-6,1
612909,2104,-4890,7571,1,28,-7,1
612914,2197,-4929,7549,1,26,-8,1
612919,2203,-4967,7564,1,22,-8,1
612923,2176,-4997,7569,2,18,-9,1
612928,2151,-5019,7543,2,17,-9,1
612933,2158,-5026,7489,2,19,-9,1
612938,2203,-5028,7455,2,25,-10,1
612943,2265,-5017,7441,2,30,-11,1
612948,2374,-5018,7377,1,33,-12,1
612953,2468,-5044,7205,0,35,-14,1
612958,2504,-5064,6993,-1,36,-16,1
612963,2399,-5052,7051,-1,33,-17,1
612968,2298,-5035,7154,0,26,-18,1
612973,2268,-5014,7196,0,20,-19,1
612978,2316,-4963,7308,0,22,-21,1
612983,2396,-4931,7579,1,28,-22,1
612988,2499,-4909,7404,0,34,-24,1
612993,2515,-4886,7268,-1,37,-25,1
612998,2516,-4836,7256,-2,37,-27,1
613003,2509,-4802,7420,-2,35,-27,1
613008,2562,-4793,7526,-2,31,-28,1
613013,2680,-4807,7370,-2,32,-30,1
613018,2701,-4796,7613,-2,37,-31,1
613023,2670,-4766,7818,-2,37,-32,1
613028,2597,-4786,7695,-1,31,-33,1
613033,2519,-4760,7731,-1,29,-34,1
613038,2476,-4735,7966,-1,31,-34,1
613043,2525,-4758,7781,-1,32,-35,1
613048,2559,-4738,7566,-2,36,-36,1
613053,2549,-4695,7653,-2,39,-37,1
613058,2503,-4701,7825,-2,38,-38,1
613063,2519,-4744,7392,-3,37,-39,1
613068,2565,-4783,7158,-4,40,-40,1
613073,2396,-4714,7821,-4,43,-40,1
613078,2278,-4726,8340,-1,32,-41,1
613083,2298,-4727,7762,-2,27,-41,1
613088,2202,-4696,8019,-1,35,-42,1
613093,2193,-4574,8007,-2,44,-42,1
613098,2131,-4573,8171,-1,40,-43,1
613103,2186,-4573,7687,-2,36,-43,1
613108,2138,-4542,7768,-2,37,-44,1
613113,2119,-4506,8094,-2,36,-44,1
613118,2102,-4521,8000,-2,32,-45,1
613123,2150,-4488,7603,-3,31,-45,1
613128,2008,-4438,8071,-3,34,-45,1
613133,1975,-4444,8198,-3,30,-45,1
613138,1913,-4475,8221,-2,25,-45,1
613143,1909,-4451,8369,-1,24,-45,1
613148,1864,-4449,8499,-1,26,-44,1
613153,1931,-4425,8207,-1,26,-45,1
613158,1809,-4394,8392,-1,25,-44,1
613163,1795,-4394,8143,-1,22,-44,1
613168,1819,-4474,7592,-3,24,-45,1
613173,1820,-4425,7329,-5,32,-45,1
613178,1661,-4459,7878,-4,30,-45,1
613183,1650,-4498,7759,-4,23,-45,1
613188,1495,-4611,7974,-3,20,-45,1
613193,1423,-4598,7924,-4,25,-46,1
613198,1192,-4609,8447,-2,27,-45,1
613203,1112,-4657,8276,-2,22,-46,1
613208,1052,-4674,7823,-2,24,-46,1
613213,962,-4716,8028,-3,32,-46,1
613218,937,-4750,7885,-4,36,-46,1
613223,874,-4834,7969,-3,31,-47,1
613228,793,-4857,8116,-3,27,-47,1
613233,683,-4939,8336,-2,20,-47,1
613238,702,-4956,7943,-3,20,-47,1
613243,527,-5011,8354,-2,22,-46,1
613248,501,-4993,8285,-3,22,-46,1
613252,432,-5056,8129,-3,21,-45,1
613257,478,-5048,7596,-5,27,-46,1
613262,360,-5056,7886,-4,33,-45,1
613267,318,-5073,8075,-5,27,-45,1
613273,292,-5154,7922,-4,20,-44,1
613277,273,-5165,7959,-4,21,-43,1
613282,196,-5159,8272,-3,24,-42,1
613288,233,-5198,8111,-4,22,-42,1
613292,205,-5235,7994,-4,23,-41,1
613297,158,-5261,8186,-4,22,-40,1
613302,98,-5273,8102,-4,18,-39,1
613307,21,-5302,7882,-4,14,-38,1
613312,-134,-5287,7698,-5,15,-37,1
613317,-350,-5251,7903,-4,12,-37,1
613322,-400,-5242,7710,-4,6,-36,1
613327,-401,-5264,7882,-4,8,-33,1
613332,-259,-5218,7878,-4,13,-32,1
613337,-152,-5221,7734,-3,16,-31,1
613342,-153,-5157,7373,-4,19,-30,1
613347,-340,-5069,7563,-4,15,-28,1
613352,-549,-4980,7694,-4,5,-26,1
613357,-541,-4936,7374,-3,2,-24,1
613362,-506,-4887,7439,-4,9,-22,1
613367,-541,-4781,7945,-3,11,-20,1
613372,-562,-4720,8130,-2,2,-18,1
613377,-632,-4661,7979,-1,-2,-16,1
613382,-629,-4555,8012,-1,0,-14,1
613387,-649,-4456,8191,-1,1,-12,1
613392,-582,-4384,8116,-1,-3,-10,1
613397,-585,-4334,8144,-1,-5,-8,1
613402,-565,-4237,8000,-2,-5,-7,1
613407,-649,-4164,8027,-2,-6,-5,1
613412,-682,-4109,8281,-2,-10,-3,1
613417,-706,-4066,8426,-1,-12,-1,1
613422,-711,-4015,8563,0,-13,0,1
613427,-696,-3958,8725,0,-13,1,1
613432,-669,-3912,8755,1,-13,3,1
613437,-613,-3872,8671,1,-14,3,1
613442,-540,-3811,8487,0,-13,4,1
613447,-510,-3764,8442,0,-13,5,1
613452,-453,-3738,8421,-1,-13,5,1
613457,-396,-3718,8367,-1,-14,6,1
613462,-317,-3712,8548,0,-14,6,1
613467,-198,-3703,8635,0,-12,6,1
613472,-111,-3683,8585,0,-13,7,1
613477,-26,-3652,8597,0,-12,7,1
613482,94,-3620,8572,0,-11,7,1
613487,207,-3600,8511,0,-11,7,1
613492,288,-3575,8458,0,-13,7,1
613497,329,-3533,8366,0,-14,7,1
613502,367,-3492,8364,0,-15,7,1
613507,433,-3466,8410,0,-14,7,1
613512,540,-3450,8460,0,-13,6,1
613517,638,-3434,8540,0,-11,6,1
613522,705,-3406,8558,0,-11,5,1
613527,750,-3372,8570,0,-10,5,1
613532,793,-3342,8598,1,-10,5,1
613537,849,-3319,8594,0,-9,5,1
613542,913,-3297,8606,0,-9,4,1
613547,966,-3273,8610,0,-9,4,1
613552,1030,-3275,8619,0,-8,3,1
613557,1073,-3310,8641,0,-7,3,1
613562,1071,-3349,8594,0,-9,3,1
613567,1022,-3382,8557,0,-10,2,1
613572,945,-3408,8518,0,-12,3,1
613577,879,-3442,8469,0,-12,3,1
613582,839,-3467,8448,0,-11,3,1
613586,818,-3499,8451,0,-10,3,1
613591,813,-3536,8461,0,-10,3,1
613596,822,-3573,8483,0,-9,3,1
613601,829,-3602,8482,0,-8,3,1
613606,831,-3633,8481,0,-7,3,1
613611,827,-3660,8462,1,-6,3,1
613616,827,-3692,8430,0,-5,2,1
613621,835,-3723,8404,0,-4,2,1
613626,834,-3752,8370,0,-4,2,1
613631,826,-3792,8345,0,-4,2,1
613636,827,-3827,8326,0,-4,2,1
613641,839,-3855,8320,0,-4,2,1
613646,846,-3897,8315,0,-5,2,1
613651,855,-3933,8294,0,-6,2,1
613656,851,-3964,8288,0,-6,2,1
613661,836,-4000,8273,0,-7,2,1
613666,819,-4059,8260,0,-7,2,1
613671,792,-4120,8232,0,-8,2,1
613676,762,-4183,8208,0,-9,1,1
613681,737,-4249,8193,0,-11,1,1
613686,702,-4306,8161,0,-12,1,1
613691,656,-4361,8146,0,-12,1,1
613696,608,-4412,8134,0,-11,1,1
613701,547,-4461,8120,0,-10,1,1
613706,499,-4510,8120,0,-9,1,1
613711,450,-4552,8102,0,-6,0,1
613716,410,-4594,8064,0,-3,0,1
613721,378,-4634,8014,0,-1,0,1
613726,355,-4675,7976,0,0,0,1
613731,350,-4712,7932,-1,1,0,1
613736,350,-4752,7923,-1,1,0,1
613741,354,-4796,7919,-1,2,0,1
613746,357,-4845,7918,-1,2,0,1
613751,366,-4890,7923,-1,3,-1,1
613756,374,-4939,7912,-1,3,-1,1
613761,379,-4990,7888,-1,3,-1,1
613766,390,-5044,7862,-1,4,-2,1
613771,375,-5088,7821,-1,4,-2,1
613776,346,-5128,7788,-1,2,-2,1
613781,311,-5168,7758,-1,1,-2,1
613786,257,-5202,7737,-1,0,-2,1
613791,198,-5226,7731,-1,0,-2,1
613796,134,-5236,7714,-1,0,-1,1
613801,94,-5241,7713,-1,0,-1,1
613806,42,-5247,7718,-1,1,-1,1
613811,10,-5243,7708,-1,1,-1,1
613816,-14,-5228,7682,-1,2,0,1
613821,-37,-5203,7658,-1,4,0,1
613826,-49,-5172,7625,-1,6,1,1
613831,-51,-5147,7657,-1,6,1,1
613836,-31,-5117,7773,-1,7,1,1
613841,-65,-5100,7808,-1,8,2,1
613846,-149,-5097,7779,-1,10,3,1
613851,-123,-5054,7767,-1,15,3,1
613856,-45,-5007,7874,-1,13,4,1
613861,3,-5003,7978,0,11,4,1
613866,-102,-5000,7820,-1,7,4,1
613871,-143,-4964,7840,-1,4,5,1
613876,-106,-4929,7974,0,8,5,1
613881,-132,-4932,7923,0,7,6,1
613886,-165,-4921,7836,0,3,6,1
613891,-159,-4878,7927,0,7,7,1
613896,-142,-4853,7894,0,10,7,1
613901,-259,-4836,7659,0,8,7,1
613906,-403,-4793,7618,0,6,8,1
613911,-387,-4779,7723,0,12,8,1
613916,-365,-4764,7887,0,14,9,1
613920,-370,-4726,7854,1,14,9,1
613926,-424,-4673,7752,1,14,9,1
613930,-444,-4583,7669,1,13,10,1
613935,-411,-4532,7743,1,14,11,1
613940,-311,-4453,7688,1,12,11,1
613945,-166,-4387,7971,2,12,11,1
613950,-172,-4284,7761,1,10,12,1
613955,-101,-4222,7969,2,7,12,1
613960,-129,-4113,7884,2,10,13,1
613965,-201,-4034,7825,2,7,14,1
613970,-246,-3953,7673,1,6,15,1
613975,-178,-3884,7801,1,9,15,1
613980,-92,-3826,7966,2,10,15,1
613985,-1,-3768,8144,3,8,15,1
613990,-129,-3729,7997,4,5,15,1
613995,-143,-3655,8073,4,3,16,1
614000,-86,-3577,8252,4,12,16,1
614005,-70,-3547,8115,4,11,16,1
614010,-258,-3450,7716,3,5,16,1
614015,-148,-3367,8050,3,9,16,1
614020,-158,-3328,8056,3,15,16,1
614025,-190,-3317,8012,4,7,16,1
614030,-308,-3249,7949,4,8,16,1
614035,-232,-3168,8084,4,12,16,1
614040,-180,-3176,8224,5,15,16,1
614045,-315,-3148,7650,4,8,17,1
614050,-347,-3089,7728,4,5,17,1
614055,-97,-3041,8115,5,17,17,1
614060,-39,-3048,8070,6,15,17,1
614065,23,-2983,8043,7,7,16,1
614070,-62,-2897,7957,6,12,17,1
614075,-15,-2934,8017,6,10,18,1
614080,-139,-2896,7639,6,7,19,1
614085,182,-2864,8078,7,6,18,1
614090,377,-2793,8158,7,15,19,1
614095,468,-2867,8151,8,6,18,1
614100,255,-2787,7738,7,-2,19,1
614105,261,-2733,7942,7,3,20,1
614110,463,-2787,8248,8,9,20,1
614115,387,-2811,7818,7,2,21,1
614120,570,-2815,8157,8,-3,20,1
614125,618,-2776,8227,8,10,20,1
614130,639,-2802,8154,9,3,20,1
614135,594,-2794,8274,9,1,20,1
614140,614,-2818,8290,9,6,20,1
614145,637,-2828,8320,9,4,20,1
614150,665,-2829,8381,9,4,20,1
614155,706,-2886,8397,9,6,19,1
614160,701,-2905,8400,9,5,19,1
614165,747,-2897,8528,9,6,19,1
614170,800,-2973,8639,10,7,18,1
614175,808,-3009,8383,9,5,18,1
614180,911,-3005,8545,10,4,17,1
614185,1041,-3003,8643,10,10,17,1
614190,1094,-3092,8572,10,8,16,1
614195,1079,-3101,8334,9,2,16,1
614200,1142,-3071,8534,9,4,16,1
614205,1227,-3163,8635,9,9,15,1
614210,1239,-3248,8411,9,5,15,1
614215,1399,-3236,8782,9,6,14,1
614220,1462,-3326,8884,10,14,13,1
614225,1405,-3434,8465,9,5,13,1
614229,1381,-3397,8608,8,0,12,1
614234,1443,-3511,8748,8,11,12,1
614240,1531,-3594,8555,7,7,11,1
614245,1599,-3585,8878,8,5,10,1
614250,1659,-3671,8998,8,10,10,1
614254,1532,-3762,8586,8,5,9,1
614259,1499,-3705,8849,8,2,9,1
614264,1470,-3700,9044,8,12,8,1
614269,1448,-3925,8761,7,9,8,1
614274,1337,-3918,8396,5,1,8,1
614279,1448,-3877,8850,6,6,7,1
614284,1519,-4001,8912,6,9,6,1
614289,1494,-4098,8834,6,-3,5,1
614294,1487,-4041,9067,6,-2,5,1
614299,1444,-4033,9195,7,5,4,1
614304,1337,-4101,9056,6,-1,4,1
614309,1236,-4064,8845,6,-5,4,1
614314,1345,-4004,9016,5,2,3,1
614319,1426,-4023,8969,5,6,3,1
614324,1390,-4040,8887,4,-2,2,1
614329,1323,-3999,9011,4,-4,2,1
614334,1246,-4022,9068,4,-2,2,1
614339,1208,-4036,8892,4,-6,3,1
614344,1231,-3989,8960,4,-6,3,1
614349,1277,-3906,9070,4,-4,3,1
614354,1277,-3946,9063,4,-7,3,1
614359,1231,-4036,8770,4,-12,3,1
614364,1162,-3975,8641,3,-14,3,1
614369,1277,-3875,9029,4,-12,3,1
614374,1353,-3872,9061,4,-12,3,1
614379,1264,-3887,8821,4,-20,3,1
614384,1076,-3800,8676,3,-18,4,1
614389,961,-3714,8810,2,-10,4,1
614394,952,-3649,8964,2,-8,5,1
614399,971,-3679,9039,2,-8,5,1
614404,963,-3574,8983,2,-9,5,1
614409,911,-3454,9219,3,-6,5,1
614414,850,-3495,9151,2,-2,5,1
614419,710,-3443,8746,1,-3,6,1
614424,801,-3327,9250,2,2,5,1
614429,902,-3336,9371,2,8,5,1
614434,879,-3415,9147,3,-1,4,1
614439,737,-3260,9205,2,-2,4,1
614444,611,-3245,9302,3,2,4,1
614449,481,-3381,8913,1,-2,5,1
614454,490,-3248,8782,0,-2,5,1
614459,641,-3234,9401,1,5,4,1
614464,625,-3374,8906,0,1,4,1
614469,540,-3276,9042,1,-5,4,1
614474,417,-3143,9344,1,5,4,1
614479,316,-3287,9161,1,5,4,1
614484,199,-3274,8896,0,2,5,1
614489,263,-3142,9045,0,9,5,1
614494,373,-3333,9246,0,11,5,1
614499,458,-3375,8786,0,3,5,1
614504,420,-3258,9171,1,2,5,1
614509,474,-3284,9359,1,6,5,1
614514,320,-3378,8765,1,1,5,1
614519,231,-3350,8676,0,-1,6,1
614524,299,-3262,8668,-1,9,6,1
614529,383,-3451,8856,-1,6,6,1
614534,369,-3534,8715,-1,-1,6,1
614539,295,-3625,8704,-1,0,6,1
614544,143,-3624,8854,-1,-1,6,1
614549,20,-3679,9200,0,-2,6,1
614554,-12,-3890,9100,0,-1,7,1
614559,12,-3879,8786,-1,-1,7,1
614564,120,-3870,9131,0,1,7,1
614569,235,-4006,8989,-1,1,7,1
614573,177,-4155,8622,-1,-8,7,1
614578,118,-4146,8700,-2,-8,7,1
614584,57,-4241,8746,-2,-3,8,1
614588,26,-4411,8707,-2,-9,8,1
614593,0,-4478,8694,-2,-10,8,1
614598,31,-4617,8584,-2,-5,8,1
614603,-77,-4703,8413,-2,-6,8,1
614608,-247,-4901,8221,-2,-8,9,1
614613,-368,-5050,7964,-3,-8,9,1
614618,-320,-5060,8096,-2,-4,9,1
614623,-314,-5207,8327,-2,0,9,1
614628,-414,-5407,7730,-2,-4,9,1
614633,-590,-5439,7470,-3,-5,10,1
614638,-585,-5426,7669,-3,4,10,1
614643,-529,-5587,7749,-3,6,11,1
614648,-362,-5639,7657,-3,1,10,1
614653,-299,-5651,7671,-2,4,10,1
614658,-271,-5730,7483,-3,1,10,1
614663,-293,-5761,7323,-3,-3,11,1
614668,-198,-5764,7485,-3,-3,11,1
614673,-176,-5830,7541,-3,-3,11,1
614678,-182,-5883,7477,-3,-9,11,1
614683,-254,-5912,7338,-3,-9,12,1
614688,-275,-5974,7214,-3,-8,12,1
614693,-268,-6016,7188,-3,-9,13,1
614698,-134,-6038,7306,-3,-7,12,1
614703,-66,-6066,7356,-2,-5,12,1
614708,-139,-6089,7211,-2,-8,12,1
614713,-300,-6067,7023,-3,-11,13,1
614718,-252,-6047,7071,-3,-9,14,1
614723,-130,-6067,7046,-3,-6,15,1
614728,-15,-6081,6989,-3,-9,15,1
614733,-38,-6065,6928,-3,-10,15,1
614738,-103,-6059,6915,-3,-12,15,1
614743,-147,-6058,6981,-3,-13,16,1
614748,-151,-6054,6901,-2,-14,17,1
614753,-66,-6033,6874,-2,-15,17,1
614758,77,-6043,7009,-2,-12,17,1
614763,151,-6056,7007,-1,-14,17,1
614768,116,-6033,7009,-1,-18,17,1
614773,-14,-5998,6907,-1,-20,17,1
614778,-83,-5963,6795,-2,-21,18,1
614783,-76,-5938,6783,-2,-19,19,1
614788,45,-5943,6989,-2,-19,19,1
614793,33,-5940,7002,-2,-20,19,1
614798,32,-5920,7231,-1,-22,18,1
614803,-25,-5831,7227,-1,-21,19,1
614808,-82,-5784,7134,-1,-21,19,1
614813,-90,-5750,7228,-2,-17,19,1
614818,-31,-5739,7435,-1,-15,19,1
614823,24,-5737,7478,-1,-17,19,1
614828,1,-5680,7114,-2,-21,19,1
614833,-17,-5689,7406,-1,-18,18,1
614838,-4,-5718,7606,-1,-15,18,1
614843,-91,-5711,7539,-1,-20,18,1
614848,-143,-5642,7295,-2,-24,18,1
614853,-141,-5643,7595,-1,-16,18,1
614858,-18,-5680,7938,-1,-13,17,1
614863,-161,-5624,7510,-1,-18,17,1
614868,-326,-5531,7258,-2,-23,17,1
614873,-305,-5552,7755,-1,-10,17,1
614878,-166,-5624,7971,-1,-12,17,1
614882,-292,-5488,7101,-2,-21,17,1
614888,-245,-5438,7293,-2,-19,16,1
614893,-55,-5489,8004,-1,-4,16,1
614897,-24,-5503,7685,-1,-17,15,1
614903,-277,-5372,7314,-2,-28,15,1
614908,-289,-5320,7741,-1,-15,15,1
614912,-325,-5327,7549,-2,-14,16,1
614917,-266,-5303,7687,-1,-22,16,1
614922,-209,-5214,7553,-2,-17,16,1
614927,-288,-5169,7308,-3,-18,16,1
614932,-342,-5153,7700,-2,-21,16,1
614937,-319,-5121,7778,-2,-19,16,1
614942,-273,-5104,7881,-1,-21,16,1
614947,-275,-5024,7796,-1,-20,16,1
614952,-189,-4958,7807,-1,-18,16,1
614957,-81,-4963,8087,0,-14,16,1
614962,-180,-4902,7698,-1,-16,16,1
614967,-385,-4846,7503,-2,-22,16,1
614972,-275,-4868,7957,-2,-15,17,1
614977,-186,-4871,7776,-2,-13,17,1
614982,-109,-4830,7731,-1,-20,17,1
614987,54,-4790,7906,-2,-12,16,1
614992,47,-4813,8208,0,-10,16,1
614997,11,-4802,8230,0,-19,16,1
615002,-134,-4701,7770,-1,-19,16,1
615007,-47,-4701,8057,-1,-16,17,1
615012,-69,-4694,7704,-2,-14,17,1
615017,-28,-4692,7685,-3,-23,17,1
615022,151,-4691,8206,-2,-15,17,1
615027,120,-4716,8289,-1,-18,17,1
615032,26,-4663,8063,-1,-28,16,1
615037,-6,-4626,8321,-1,-20,17,1
615042,209,-4646,8725,-1,-14,16,1
615047,266,-4577,8354,-1,-18,16,1
615052,194,-4515,8273,-2,-20,15,1
615057,129,-4495,8401,-3,-14,16,1
615062,117,-4500,8477,-3,-15,16,1
615067,102,-4489,8553,-3,-17,16,1
615072,75,-4454,8576,-3,-16,16,1
615077,186,-4434,8850,-3,-11,15,1
615082,286,-4399,8797,-3,-10,15,1
615087,193,-4357,8861,-2,-12,14,1
615092,141,-4296,8768,-3,-11,14,1
615097,-12,-4263,8597,-4,-10,15,1
615102,197,-4274,8868,-4,-9,15,1
615107,368,-4254,8879,-4,-3,14,1
615112,612,-4257,9102,-3,-6,13,1
615117,515,-4159,8623,-4,-6,13,1
615122,398,-4166,8871,-4,-6,12,1
615127,272,-4138,8821,-5,-6,13,1
615132,363,-4124,8860,-5,-8,14,1
615137,592,-4139,9116,-4,-3,13,1
615142,680,-4119,8972,-5,-3,12,1
615147,620,-4085,8861,-5,-6,12,1
615152,469,-4044,8696,-6,-7,12,1
615157,429,-4068,9059,-5,-7,13,1
615162,557,-4081,9100,-6,-9,12,1
615167,585,-4059,9052,-5,-9,12,1
615172,675,-4020,9001,-6,-6,10,1
615177,623,-3994,9097,-7,-3,10,1
615182,508,-3983,9094,-7,-5,9,1
615187,328,-3976,9253,-7,-7,9,1
615192,163,-3908,8872,-8,-4,9,1
615197,203,-3927,9206,-8,3,8,1
615202,381,-3886,9045,-9,11,7,1
615207,428,-3878,9072,-8,10,5,1
615212,365,-3873,9371,-8,11,4,1
615216,137,-3804,9016,-9,11,5,1
615222,1,-3742,8990,-9,9,5,1
615226,94,-3699,9149,-10,17,5,1
615231,295,-3684,9154,-9,18,4,1
615237,387,-3647,9027,-9,15,3,1
615241,367,-3558,8877,-10,15,2,1
615246,265,-3530,8897,-10,14,2,1
615251,263,-3524,9064,-9,11,2,1
615256,296,-3465,8740,-9,10,2,1
615261,379,-3425,8754,-9,9,2,1
615266,409,-3389,8792,-10,12,1,1
615271,410,-3427,9017,-8,11,1,1
615276,285,-3373,8436,-9,5,1,1
615281,149,-3341,8346,-9,7,1,1
615286,174,-3315,8415,-10,12,1,1
615291,251,-3285,8099,-10,11,0,1
615296,238,-3268,8317,-10,5,0,1
615301,269,-3167,8423,-9,9,-1,1
615306,207,-3105,8393,-8,5,-1,1
615311,250,-2978,8427,-9,4,-1,1
615316,430,-2902,9138,-6,14,-2,1
615321,467,-2745,8103,-9,8,-3,1
615326,317,-2602,7903,-10,4,-3,1
615331,279,-2555,8697,-9,16,-3,1
615336,248,-2578,8762,-8,10,-2,1
615341,351,-2528,8887,-6,-1,-2,1
615346,390,-2363,8577,-7,8,-3,1
615351,393,-2338,8871,-6,10,-4,1
615356,393,-2320,8809,-6,11,-3,1
615361,357,-2323,8729,-6,8,-3,1
615366,369,-2279,8435,-7,8,-3,1
615371,380,-2282,8469,-7,11,-3,1
615376,486,-2291,8533,-7,13,-3,1
615381,555,-2302,8580,-6,12,-4,1
615386,615,-2275,8601,-6,10,-4,1
615391,591,-2223,8621,-6,11,-4,1
615396,643,-2198,8806,-5,14,-5,1
615401,716,-2156,8820,-5,17,-5,1
615406,803,-2156,9058,-4,17,-5,1
615411,929,-2120,9017,-4,19,-5,1
615416,1043,-2075,8753,-4,19,-5,1
615421,1101,-2047,8680,-4,20,-6,1
615426,1191,-2046,8721,-4,24,-6,1
615431,1298,-2076,8661,-4,24,-6,1
615436,1374,-2117,8739,-4,19,-6,1
615441,1437,-2163,8797,-3,16,-6,1
615446,1479,-2228,8786,-3,16,-6,1
615451,1556,-2323,8740,-3,17,-6,1
615456,1649,-2438,8651,-2,20,-6,1
615461,1708,-2586,8570,-2,20,-6,1
615466,1724,-2753,8440,-2,17,-7,1
615471,1684,-2906,8263,-2,13,-8,1
615476,1584,-3052,8183,-2,11,-8,1
615481,1507,-3192,8069,-1,10,-9,1
615486,1488,-3304,7899,-1,12,-10,1
615491,1434,-3417,7870,-1,14,-11,1
615496,1431,-3518,7813,-1,12,-13,1
615501,1464,-3613,7784,-1,11,-14,1
615506,1643,-3697,7679,-1,11,-15,1
615511,1809,-3731,7542,-1,12,-17,1
615516,1734,-3749,7761,-1,8,-18,1
615521,1627,-3807,7925,1,-1,-18,1
615526,1637,-3849,7765,1,-3,-19,1
615531,1762,-3827,7765,1,3,-20,1
615536,1854,-3817,7840,1,7,-21,1
615541,2042,-3846,7623,2,4,-23,1
615545,1927,-3891,7798,2,0,-23,1
615551,2015,-3877,7615,2,-5,-25,1
615555,1904,-3926,7806,3,-5,-25,1
615560,2158,-3907,7440,2,-1,-26,1
615565,2118,-3920,7677,2,5,-27,1
615570,2227,-3922,7807,2,2,-28,1
615575,2268,-3978,7735,2,1,-28,1
615580,2310,-3993,7858,2,1,-29,1
615585,2350,-4015,7982,2,0,-30,1
615590,2418,-4073,7898,3,-2,-31,1
615595,2307,-4063,8133,3,-4,-32,1
615600,2221,-4112,8241,4,-10,-32,1
615605,2230,-4150,7890,4,-8,-33,1
615610,2212,-4159,7812,3,-2,-34,1
615615,2245,-4181,7610,2,-2,-36,1
615620,2231,-4276,7484,2,-5,-37,1
615625,2147,-4328,7407,1,-9,-38,1
615630,1907,-4321,7639,2,-14,-39,1
615635,1555,-4313,8235,3,-21,-39,1
615640,1430,-4301,8227,4,-21,-39,1
615645,1446,-4274,7944,4,-11,-40,1
615650,1445,-4188,7965,3,-2,-41,1
615655,1453,-4194,7892,3,-6,-41,1
615660,1459,-4239,7666,2,-12,-42,1
615665,1491,-4240,7432,1,-13,-42,1
615670,1503,-4217,7386,0,-11,-42,1
615675,1283,-4218,7938,1,-16,-42,1
615680,1154,-4243,8066,2,-23,-41,1
615685,1075,-4323,7764,2,-21,-40,1
615690,939,-4209,7928,1,-13,-40,1
615695,767,-4194,8280,1,-17,-39,1
615700,719,-4256,8098,1,-19,-38,1
615705,603,-4237,8077,1,-16,-38,1
615710,550,-4168,8066,0,-15,-37,1
615715,369,-4164,8295,1,-18,-36,1
615720,267,-4193,8216,1,-20,-36,1
615725,188,-4160,8073,0,-16,-35,1
615730,17,-4145,8391,0,-14,-34,1
615735,-80,-4127,8304,0,-16,-33,1
615740,-301,-4135,8551,1,-17,-32,1
615745,-374,-4088,8574,1,-16,-31,1
615750,-521,-4081,8749,1,-15,-29,1
615755,-499,-4012,8617,1,-13,-28,1
615760,-616,-3998,8904,1,-10,-27,1
615765,-664,-3976,8976,0,-11,-26,1
615770,-740,-4000,8988,1,-12,-24,1
615775,-705,-3999,8781,-1,-8,-23,1
615780,-735,-4040,8777,-1,-6,-22,1
615785,-733,-4109,8769,-2,-6,-21,1
615790,-916,-4162,8930,-1,-9,-19,1
615795,-1051,-4201,9049,0,-12,-18,1
615800,-1173,-4223,8964,0,-8,-16,1
615805,-1146,-4241,8782,0,-2,-15,1
615810,-1146,-4258,8815,-1,2,-14,1
615815,-1084,-4310,8632,-1,0,-13,1
615820,-1064,-4382,8428,-1,-2,-12,1
615825,-1073,-4369,8437,-1,-4,-11,1
615830,-1118,-4398,8608,-1,-6,-10,1
615835,-1079,-4449,8466,-1,-6,-8,1
615840,-1050,-4438,8484,0,-2,-7,1
615845,-1063,-4434,8660,0,-3,-6,1
615850,-1049,-4469,8575,0,-6,-5,1
615855,-1028,-4483,8501,1,-5,-3,1
615860,-993,-4487,8470,0,-4,-2,1
615865,-936,-4542,8379,0,-5,-1,1
615869,-910,-4614,8266,0,-6,0,1
615875,-898,-4679,8216,0,-7,1,1
615879,-895,-4750,8196,0,-8,2,1
615884,-860,-4830,8142,0,-9,3,1
615889,-777,-4886,8105,0,-8,4,1
615894,-662,-4923,8107,0,-6,4,1
615899,-519,-4957,8053,0,-5,3,1
615904,-379,-4976,8025,0,-4,3,1
615909,-240,-4983,8025,0,-3,2,1
615914,-120,-4981,7975,0,-3,2,1
615919,-20,-4960,7982,0,-3,2,1
615924,44,-4943,7998,0,-3,1,1
615929,100,-4899,7987,0,-3,1,1
615934,139,-4839,8041,0,-1,1,1
615939,182,-4788,8062,0,-1,1,1
615944,238,-4736,8087,-1,0,1,1
615949,295,-4677,8142,-1,1,1,1
615954,354,-4628,8160,-1,1,1,1
615959,424,-4597,8199,-1,2,1,1
615964,496,-4572,8232,-1,3,0,1
615969,560,-4549,8231,-1,2,0,1
615974,601,-4516,8220,-1,0,0,1
615979,631,-4484,8194,-1,0,0,1
615984,643,-4454,8158,-1,0,0,1
615989,654,-4427,8132,-1,0,0,1
615994,649,-4402,8091,-1,1,0,1
615999,652,-4388,8080,-1,2,0,1
616004,650,-4381,8071,-1,2,0,1
616009,663,-4374,8053,-1,3,0,1
616014,695,-4371,8037,-1,3,0,1
616019,732,-4358,8002,-1,3,0,1
616024,768,-4330,7979,-1,2,0,1
616029,802,-4288,7981,-1,2,0,1
616034,836,-4243,8023,-1,2,0,1
616039,869,-4201,8092,-1,2,0,1
616044,922,-4159,8182,-1,3,-1,1
616049,979,-4118,8258,-1,3,-1,1
616054,1033,-4083,8296,0,2,-1,1
616059,1093,-4050,8308,0,1,-1,1
616064,1139,-4011,8291,0,0,-1,1
616069,1166,-3971,8273,-1,-1,-1,1
616074,1176,-3958,8285,-1,-1,-1,1
616079,1164,-3959,8316,-1,0,-1,1
616084,1124,-3961,8354,-1,0,-1,1
616089,1055,-3972,8390,-1,0,-1,1
616094,968,-3988,8394,-1,1,-1,1
616099,886,-4008,8373,-1,2,-1,1
616104,824,-4035,8354,-1,3,-1,1
616109,791,-4056,8326,-1,5,-1,1
616114,803,-4078,8326,-1,7,-1,1
616119,843,-4102,8364,-2,9,-1,1
616124,903,-4116,8422,-2,9,-1,1
616129,959,-4127,8492,-2,10,-1,1
616134,1004,-4141,8574,-2,10,-1,1
616139,1036,-4154,8635,-2,10,-1,1
616144,1051,-4165,8679,-2,11,-1,1
616149,1070,-4170,8692,-2,11,-1,1
616154,1095,-4179,8669,-2,11,-1,1
616159,1122,-4177,8604,-2,10,-1,1
616164,1141,-4174,8536,-2,9,-1,1
616169,1138,-4185,8471,-2,9,-1,1
616174,1113,-4206,8400,-2,11,-1,1
616179,1076,-4220,8347,-2,13,-1,1
616184,1040,-4226,8298,-2,14,-1,1
616188,1014,-4238,8265,-2,14,-1,1
616194,988,-4249,8227,-2,13,-1,1
616198,962,-4261,8187,-2,11,-1,1
616203,904,-4281,8174,-2,9,-1,1
616208,853,-4277,8165,-3,7,-1,1
616213,819,-4281,8182,-3,5,-1,1
616218,798,-4276,8239,-3,5,-1,1
616223,793,-4277,8359,-3,5,-1,1
616228,800,-4284,8521,-4,4,-1,1
616233,812,-4277,8700,-4,4,-1,1
616238,821,-4269,8905,-5,4,-1,1
616243,826,-4262,9144,-5,5,-1,1
616248,924,-4213,8866,-4,5,-1,1
616253,936,-4161,8481,0,8,0,1
616258,874,-4060,8321,1,12,0,1
616263,862,-4019,8222,1,14,0,1
616268,875,-4084,8240,1,12,1,1
616273,884,-4138,8109,1,10,2,1
616278,934,-4097,7821,0,10,1,1
616283,1017,-4071,7669,-1,13,0,1
616288,1025,-4085,7549,-2,16,0,1
616293,943,-4144,7523,-2,13,-1,1
616298,920,-4202,7467,-2,8,-1,1
616303,878,-4232,7444,-2,4,-1,1
616308,855,-4222,7462,-2,3,-1,1
616313,825,-4223,7551,-2,4,-1,1
616318,818,-4242,7634,-2,3,-1,1
616323,816,-4259,7705,-1,2,-1,1
616328,820,-4259,7774,-1,1,-1,1
616333,829,-4244,7828,-1,0,-1,1
616338,841,-4219,7874,-1,0,-1,1
616343,861,-4194,7898,-1,1,-1,1
616348,879,-4183,7949,-1,2,-1,1
616353,891,-4173,7975,-1,2,-1,1
616358,859,-4161,7973,-1,1,-1,1
616363,815,-4145,7946,-1,1,-1,1
616368,776,-4135,7919,-1,1,-1,1
616373,748,-4127,7908,-1,1,-1,1
616378,722,-4130,7911,-1,1,-1,1
616383,706,-4139,7938,-1,1,-1,1
616388,689,-4145,8004,-1,1,-1,1
616393,681,-4150,8058,-1,1,-1,1
616398,672,-4151,8099,-1,1,-1,1
616403,672,-4149,8120,-1,1,-1,1
616408,674,-4141,8134,-1,1,-1,1
616413,680,-4132,8157,-1,1,-1,1
616418,681,-4128,8191,-1,1,-1,1
616423,685,-4136,8213,-1,1,-1,1
616428,690,-4153,8211,0,1,-1,1
616433,684,-4174,8221,0,0,-1,1
616438,674,-4196,8236,0,0,-1,1
616443,663,-4214,8278,0,0,0,1
616448,656,-4238,8335,0,1,0,1
616453,651,-4253,8378,1,1,0,1
616458,653,-4268,8394,1,1,0,1
616463,668,-4279,8385,1,1,0,1
616468,670,-4287,8397,2,2,0,1
616473,676,-4297,8435,2,2,0,1
616478,692,-4301,8468,2,2,0,1
616483,698,-4305,8497,3,2,0,1
616488,703,-4301,8493,3,1,0,1
616493,712,-4293,8480,4,0,0,1
616498,730,-4278,8459,4,-1,1,1
616502,736,-4264,8475,5,-2,1,1
616508,735,-4249,8504,5,-3,1,1
616512,731,-4237,8526,6,-4,1,1
616517,729,-4230,8541,6,-3,1,1
616522,714,-4228,8551,7,-3,1,1
616527,704,-4233,8544,7,-2,1,1
616533,680,-4241,8551,8,-2,1,1
616537,660,-4249,8549,8,-2,1,1
616542,641,-4262,8546,9,-1,1,1
616547,636,-4274,8536,9,-1,1,1
616552,637,-4285,8523,10,-1,1,1
616557,639,-4288,8502,10,-1,1,1
616562,642,-4286,8494,10,0,1,1
616567,656,-4277,8473,11,0,1,1
616572,668,-4258,8456,11,0,1,1
616577,686,-4230,8439,11,0,1,1
616582,703,-4201,8430,12,0,1,1
616587,722,-4167,8430,12,0,1,1
616592,729,-4138,8451,12,-1,1,1
616597,730,-4105,8466,12,-2,1,1
616602,724,-4071,8461,12,-2,1,1
616607,723,-4042,8434,12,-2,1,1
616612,724,-4023,8396,12,-2,1,1
616617,718,-4001,8371,12,-2,1,1
616622,713,-3985,8362,12,-2,1,1
616627,706,-3975,8361,12,-2,1,1
616632,708,-3971,8356,12,-2,1,1
616637,697,-3973,8346,12,-1,1,1
616642,682,-3979,8319,12,0,1,1
616647,670,-3983,8298,12,1,1,1
616652,662,-3987,8266,12,1,0,1
616657,660,-3989,8232,12,2,0,1
616662,671,-3985,8196,12,2,0,1
616667,693,-3974,8174,11,2,0,1
616672,727,-3959,8152,11,1,0,1
616677,761,-3947,8132,11,1,0,1
616682,787,-3938,8090,11,2,0,1
616687,801,-3928,8036,11,1,0,1
616692,815,-3912,7975,10,0,0,1
616697,826,-3896,7932,10,-1,0,1
616702,840,-3887,7897,10,-2,0,1
616707,850,-3882,7872,9,-3,0,1
616712,858,-3878,7834,9,-4,0,1
616717,854,-3874,7793,9,-4,0,1
616722,842,-3870,7748,8,-4,-1,1
616727,826,-3870,7697,8,-4,-1,1
616732,804,-3870,7635,7,-4,-1,1
616737,778,-3874,7565,7,-3,-1,1
616742,762,-3876,7487,6,-2,-1,1
616747,756,-3881,7415,5,-2,-1,1
616752,753,-3886,7362,5,-2,-1,1
616757,742,-3895,7332,4,-1,-1,1
616762,736,-3906,7300,3,-1,-1,1
616767,724,-3911,7251,3,-1,-1,1
616772,717,-3909,7164,2,-1,-1,1
616777,710,-3907,7068,1,-1,-1,1
616782,707,-3900,6985,0,-2,-1,1
616787,714,-3898,6919,-1,-3,-1,1
616792,723,-3900,6876,-2,-4,-1,1
616797,736,-3904,6847,-3,-5,-1,1
616802,745,-3911,6815,-5,-6,-1,1
616807,758,-3918,6764,-6,-7,-1,1
616812,753,-3928,6691,-7,-8,-1,1
616817,745,-3942,6597,-8,-8,-1,1
616822,727,-3958,6513,-10,-8,0,1
616827,706,-3972,6451,-11,-8,0,1
616832,671,-3987,6422,-13,-6,0,1
616837,636,-4000,6415,-14,-3,0,1
616841,595,-4020,6386,-15,-1,0,1
616846,563,-4044,6312,-17,1,0,1
616851,539,-4066,6211,-19,3,1,1
616856,540,-4079,6115,-20,5,1,1
616861,558,-4099,6069,-22,6,1,1
616866,588,-4122,6070,-24,5,1,1
616871,606,-4154,6108,-25,3,1,1
616876,628,-4186,6112,-27,1,1,1
616881,638,-4213,6101,-28,-2,2,1
616886,648,-4216,6106,-30,-4,2,1
616891,650,-4205,6172,-33,-5,2,1
616896,652,-4196,6295,-35,-6,2,1
616901,653,-4193,6427,-36,-5,3,1
616906,635,-4194,6517,-38,-5,3,1
616911,585,-4201,6567,-40,-3,3,1
616916,528,-4588,6610,-42,1,4,1
616921,77,-4036,3326,-55,0,7,1
616926,-67,-4214,5191,-15,-16,1,1
616931,1031,-4272,6789,-9,24,1,1
616936,1747,-5273,8159,11,-51,2,1
616941,2008,-5105,9333,14,-56,0,1
616946,1660,-4699,10340,20,4,-1,1
616951,1299,-4136,10525,6,35,-1,1
616956,1434,-3740,9503,3,7,-1,1
616961,1226,-3653,8446,13,-28,4,1
616966,1089,-3576,7390,12,-28,3,1
616971,1050,-3460,6609,6,1,4,1
616976,1305,-3486,6540,-1,24,2,1
616981,997,-3704,7499,-3,28,4,1
616986,676,-3923,7993,0,5,0,1
616991,216,-4064,8405,3,9,0,1
616996,-197,-4058,7940,2,19,1,1
617001,-292,-4125,7682,2,27,1,1
617006,36,-4255,7270,1,30,0,1
617011,133,-4465,7260,1,24,-1,1
617016,234,-4718,7526,2,17,-2,1
617021,220,-4948,7677,4,13,-2,1
617026,348,-5122,7764,6,14,-2,1
617031,510,-5230,7585,8,17,-2,1
617036,664,-5293,7208,9,13,-2,1
617041,687,-5324,6886,9,11,-2,1
617046,711,-5326,6772,10,8,-2,1
617051,853,-5303,6783,11,4,-2,1
617056,1108,-5272,6905,13,0,-1,1
617061,1237,-5208,6824,13,-5,-1,1
617066,1291,-5126,6612,13,-9,-1,1
617071,1203,-5035,6314,13,-12,-1,1
617076,1097,-4942,5993,12,-16,0,1
617081,1008,-4828,5624,11,-17,0,1
617086,925,-4701,5337,10,-18,0,1
617091,852,-4537,4678,10,-19,0,1
617096,718,-4390,3686,12,-17,0,1
617101,418,-4380,3584,13,-9,0,1
617106,431,-4300,3904,-1,-1,-1,1
617111,40,-4200,4352,-11,-10,1,1
617116,28,-4045,4362,-13,-21,-1,1
617121,13,-4000,6079,-12,-17,-1,1
617126,467,-3802,6351,-14,-4,0,1
617131,502,-3694,6666,-16,2,0,1
617136,522,-3458,5053,-25,13,0,1
617141,321,-3401,4604,-32,16,1,1
617146,304,-3332,3905,-39,16,2,1
617150,307,-4037,4720,-42,5,2,1
617155,-69,-3439,1706,-57,0,2,1
617161,220,-3629,3802,-27,-6,-1,1
617166,1272,-4066,5598,-4,7,0,1
617170,1492,-3819,7138,17,-68,-2,1
617175,1156,-3217,8459,30,-47,-4,1
617180,1257,-2657,7460,27,-1,-1,1
617185,1080,-2341,5022,19,9,3,1
617190,1305,-2189,3320,6,18,4,1
617195,1345,-2282,2592,-4,15,4,1
617200,1154,-2636,3206,-8,-4,2,1
617205,318,-3089,2956,-12,-4,1,1
617210,-63,-3416,4689,-12,3,0,1
617215,78,-3720,6359,-7,38,0,1
617220,291,-4146,7386,0,26,-1,1
617225,251,-4148,8581,6,15,-1,1
617230,378,-4078,8451,8,19,-1,1
617235,479,-4125,7814,7,23,-1,1
617240,610,-4133,7086,4,22,0,1
617245,740,-4242,6371,0,16,0,1
617250,844,-4395,6129,-2,8,0,1
617255,905,-4513,6074,-3,6,0,1
617260,880,-4591,6269,-4,5,-1,1
617265,861,-4655,6847,-3,6,-1,1
617270,853,-4711,7288,-1,8,-1,1
617275,847,-4695,7641,0,6,-1,1
617280,876,-4654,7922,1,5,0,1
617285,930,-4617,7813,2,2,0,1
617290,951,-4561,7715,1,0,0,1
617295,981,-4539,7669,1,0,0,1
617300,1004,-4547,7462,0,-2,0,1
617305,962,-4539,7455,0,-3,0,1
617310,878,-4565,7599,-1,-3,0,1
617315,755,-4584,7602,-1,-3,-1,1
617320,617,-4582,7723,0,-2,-1,1
617325,481,-4602,7896,0,-2,0,1
617330,363,-4612,7939,0,0,0,1
617335,298,-4604,7985,0,1,0,1
617340,262,-4588,8000,0,2,0,1
617345,239,-4561,7970,0,3,0,1
617350,280,-4541,7977,0,5,0,1
617355,317,-4513,8012,0,6,0,1
617360,342,-4487,8047,0,7,-1,1
617365,381,-4461,8093,-1,7,-1,1
617370,367,-4426,8127,0,6,-1,1
617375,315,-4391,8142,0,6,-1,1
617380,295,-4362,8181,0,8,-1,1
617385,293,-4328,8160,0,8,-1,1
617390,311,-4298,8124,0,7,0,1
617395,378,-4270,8132,0,6,0,1
617400,456,-4242,8098,0,4,0,1
617405,532,-4226,8088,0,3,0,1
617410,605,-4225,8133,-1,3,-1,1
617415,641,-4223,8151,0,2,-1,1
617420,645,-4229,8172,0,2,-1,1
617425,636,-4233,8201,0,1,-1,1
617430,595,-4233,8189,0,-1,-1,1
617435,552,-4234,8154,0,-1,0,1
617440,527,-4238,8133,0,0,0,1
617445,501,-4239,8084,0,0,0,1
617450,498,-4243,8049,0,1,0,1
617455,509,-4243,8051,0,1,-1,1
617460,495,-4240,8035,0,-1,-1,1
617465,473,-4239,8055,0,-1,-1,1
617470,451,-4237,8100,0,-1,-1,1
617475,406,-4234,8123,0,-1,-1,1
617479,362,-4232,8170,0,0,-1,1
617484,332,-4239,8207,0,0,-1,1
617489,287,-4243,8209,0,1,-1,1
617494,263,-4253,8209,0,2,-1,1
617499,264,-4256,8190,0,2,-1,1
617505,272,-4252,8147,0,2,-1,1
617509,301,-4249,8122,0,2,-1,1
617514,344,-4243,8118,0,2,-1,1
617519,367,-4240,8126,-1,1,-1,1
617524,394,-4237,8150,-1,2,-1,1
617529,399,-4236,8191,0,1,-1,1
617534,379,-4232,8195,0,1,-1,1
617539,366,-4227,8179,0,0,-1,1
617544,350,-4225,8156,0,0,-1,1
617549,334,-4222,8114,0,0,-1,1
617554,344,-4221,8085,0,0,-1,1
617559,349,-4223,8090,0,1,-1,1
617564,345,-4230,8101,0,1,-1,1
617569,352,-4234,8128,0,1,-1,1
617574,336,-4230,8166,0,2,-1,1
617579,317,-4232,8190,0,3,-1,1
617584,316,-4239,8195,0,5,-1,1
617589,316,-4242,8196,0,5,-1,1
617594,335,-4259,8170,0,5,-1,1
617599,369,-4268,8137,0,4,-1,1
617604,400,-4268,8123,0,3,-1,1
617609,436,-4265,8100,0,1,-1,1
617614,460,-4258,8096,0,1,-1,1
617619,462,-4248,8119,0,0,-2,1
617624,465,-4230,8134,0,0,-2,1
617629,446,-4219,8161,0,1,-2,1
617634,417,-4218,8193,0,1,-2,1
617639,409,-4216,8181,0,1,-2,1
617644,390,-4213,8165,0,1,-2,1
617649,382,-4217,8135,0,1,-1,1
617654,402,-4219,8075,0,1,-1,1
617659,417,-4212,8045,0,2,-2,1
617664,429,-4211,8047,0,1,-2,1
617669,459,-4221,8073,-1,1,-2,1
617674,467,-4211,8132,0,1,-1,1
617679,466,-4203,8216,0,0,-1,1
617684,468,-4196,8280,0,1,-1,1
617689,454,-4177,8328,0,3,-1,1
617694,448,-4178,8356,0,4,-1,1
617699,457,-4177,8330,0,4,-1,1
617704,455,-4175,8289,0,4,-1,1
617709,477,-4188,8237,0,4,-1,1
617714,519,-4202,8165,0,5,-1,1
617719,544,-4210,8121,0,5,-1,1
617724,591,-4235,8094,0,4,-1,1
617729,628,-4264,8075,-1,4,-1,1
617734,633,-4275,8092,-1,2,-1,1
617739,617,-4271,8118,-1,1,-1,1
617744,582,-4264,8158,-1,1,-1,1
617749,549,-4260,8205,-1,2,-1,1
617754,532,-4253,8232,0,4,-1,1
617759,524,-4245,8226,0,3,0,1
617764,542,-4238,8172,0,2,0,1
617769,565,-4232,8101,0,1,0,1
617774,593,-4210,8023,0,0,0,1
617779,595,-4179,7959,0,-1,-1,1
617784,640,-4168,7939,0,-1,-1,1
617789,677,-4165,7946,0,1,-1,1
617794,709,-4149,7982,0,2,-1,1
617798,718,-4130,8026,0,1,-1,1
617804,743,-4117,8064,0,-1,-1,1
617808,781,-4105,8110,0,-1,-2,1
617813,846,-4090,8146,0,-3,-2,1
617818,903,-4072,8158,0,-4,-2,1
617823,936,-4050,8167,0,-6,-3,1
617828,966,-4025,8161,0,-6,-3,1
617833,985,-3998,8154,0,-6,-3,1
617838,1020,-3980,8145,0,-5,-4,1
617843,1067,-3969,8145,0,-4,-4,1
617848,1126,-3955,8138,0,-4,-5,1
617853,1213,-3942,8112,0,-3,-6,1
617858,1327,-3934,8038,0,-1,-7,1
617863,1422,-3935,7998,-1,2,-8,1
617868,1467,-3941,8019,-1,2,-9,1
617873,1493,-3945,8057,-1,1,-10,1
617878,1509,-3937,8120,-1,0,-11,1
617883,1547,-3938,8217,0,-1,-11,1
617888,1588,-3927,8282,0,-1,-12,1
617893,1668,-3929,8337,0,-1,-13,1
617898,1755,-3933,8264,0,-1,-14,1
617903,1771,-3911,8267,0,-2,-15,1
617908,1747,-3903,8239,0,-5,-16,1
617913,1791,-3912,8059,0,-5,-17,1
617918,1825,-3891,8045,-1,-1,-18,1
617923,1828,-3922,8170,-1,-2,-20,1
617928,1850,-3917,8158,-1,-4,-21,1
617933,1734,-3932,8504,0,-6,-21,1
617938,1753,-3927,8371,0,-7,-22,1
617943,1785,-3891,8289,0,-3,-23,1
617948,1820,-3882,8358,0,0,-24,1
617953,1890,-3873,8190,-1,0,-25,1
617958,1849,-3895,8258,-1,0,-26,1
617963,1817,-3888,8257,-1,0,-26,1
617968,1731,-3912,8406,-1,-2,-27,1
617973,1784,-3885,8276,-1,0,-27,1
617978,1772,-3891,8357,-1,2,-28,1
617983,1718,-3918,8611,-1,0,-28,1
617988,1744,-3924,8337,0,-3,-28,1
617993,1779,-3937,8200,-1,-1,-29,1
617998,1756,-3896,8210,-1,2,-29,1
618003,1674,-3927,8424,0,-4,-29,1
618008,1705,-3940,8192,-1,-6,-29,1
618013,1784,-3939,7874,-1,1,-29,1
618018,1770,-3920,7925,-2,6,-30,1
618023,1612,-3959,8290,-1,-3,-30,1
618028,1476,-4044,8157,-1,-11,-30,1
618033,1497,-4031,7759,-2,-2,-30,1
618038,1406,-3958,8149,-2,7,-30,1
618043,1312,-4007,8509,-1,-1,-30,1
618048,1331,-4140,8113,0,-4,-30,1
618053,1388,-4061,7713,-3,8,-30,1
618058,1283,-4017,8110,-3,10,-30,1
618063,1258,-4148,8133,-2,-1,-30,1
618068,1201,-4212,8015,-2,-3,-30,1
618073,1267,-4195,8051,-2,2,-30,1
618078,1212,-4191,8290,-2,2,-30,1
618083,1207,-4259,8407,0,-6,-29,1
618088,1201,-4299,8131,-1,-7,-28,1
618093,1155,-4221,8219,-1,-4,-28,1
618098,1127,-4226,8212,-1,-5,-27,1
618103,1177,-4278,7731,-2,-5,-27,1
618108,1164,-4269,7691,-3,0,-26,1
618112,1079,-4275,7915,-3,-2,-26,1
618117,1005,-4398,7892,-2,-9,-25,1
618122,917,-4428,7938,-2,-6,-24,1
618128,787,-4406,8300,-1,-6,-23,1
618132,741,-4470,8248,-1,-9,-23,1
618137,720,-4510,8073,-1,-7,-22,1
618142,682,-4508,8118,-1,-4,-21,1
618147,630,-4546,8048,-1,-8,-20,1
618152,622,-4605,7760,-1,-11,-20,1
618157,562,-4633,7836,-2,-11,-19,1
618162,491,-4678,7983,-2,-13,-18,1
618167,419,-4732,7992,-2,-17,-17,1
618172,363,-4766,8053,-1,-18,-15,1
618177,278,-4777,8201,-1,-19,-14,1
618182,258,-4785,8158,-1,-22,-12,1
618187,273,-4795,8001,-1,-20,-11,1
618192,278,-4807,7900,-1,-18,-10,1
618197,209,-4833,7845,-1,-20,-8,1
618202,32,-4874,7886,-1,-25,-7,1
618207,-166,-4901,7940,0,-26,-5,1
618212,-346,-4918,8002,0,-25,-3,1
618217,-469,-4925,8048,0,-21,-2,1
618222,-530,-4958,8115,0,-17,0,1
618227,-561,-4997,8128,0,-16,1,1
618232,-642,-5032,8170,1,-19,2,1
618237,-746,-5070,8176,1,-21,3,1
618242,-871,-5095,8169,1,-21,5,1
618247,-933,-5112,8167,1,-21,6,1
618252,-858,-5108,8141,0,-17,6,1
618257,-634,-5081,8172,0,-12,6,1
618262,-316,-5057,8227,0,-6,5,1
618267,-5,-5040,8286,0,-3,4,1
618272,208,-5001,8369,0,-4,3,1
618277,313,-4946,8425,0,-7,3,1
618282,332,-4877,8439,0,-8,3,1
618287,371,-4811,8456,0,-7,3,1
618292,443,-4758,8436,0,-5,4,1
618297,546,-4710,8377,0,-4,4,1
618302,644,-4672,8330,-1,-3,4,1
618307,728,-4642,8304,-1,-4,4,1
618312,799,-4615,8260,-1,-5,4,1
618317,872,-4586,8262,-1,-5,4,1
618322,952,-4552,8303,-1,-5,4,1
618327,1024,-4517,8320,-1,-5,4,1
618332,1085,-4492,8376,-1,-6,4,1
618337,1112,-4462,8429,0,-7,4,1
618342,1110,-4413,8438,0,-8,4,1
618347,1090,-4365,8457,0,-6,4,1
618352,1074,-4318,8485,-1,-4,4,1
618357,1045,-4273,8484,-1,-2,3,1
618362,1027,-4244,8519,-1,-2,3,1
618367,1015,-4221,8541,-1,0,3,1
618372,885,-4203,8564,-1,0,2,1
618377,716,-4189,8649,-1,-2,1,1
618382,565,-4175,8814,-2,-2,0,1
618387,405,-4167,9069,-4,-2,1,1
618392,410,-4143,9229,-5,-2,-1,1
618397,749,-4101,8725,-3,2,1,1
618402,687,-4102,8714,1,9,3,1
618407,768,-4083,8516,2,7,3,1
618412,797,-4120,8530,3,5,2,1
618417,1017,-4100,8010,1,5,2,1
618421,1079,-4075,7706,0,11,1,1
618427,1147,-4059,7606,-2,13,0,1
618432,1043,-4078,7842,-3,8,1,1
618436,816,-4083,7849,-3,0,2,1
618442,588,-4079,7762,-2,0,2,1
618447,493,-4034,7669,-2,8,2,1
618452,556,-4017,7790,-1,15,1,1
618456,649,-4025,7759,-1,15,1,1
618461,732,-4055,7715,0,11,1,1
618466,790,-4056,7614,0,8,1,1
618471,811,-4033,7579,-1,5,1,1
618476,762,-4005,7602,-1,2,2,1
618481,669,-3982,7649,-1,-1,3,1
618486,586,-3951,7686,-1,-2,3,1
618491,589,-3918,7798,-1,0,4,1
618496,653,-3885,7951,0,1,4,1
618501,719,-3861,8053,0,-1,4,1
618506,739,-3834,8094,1,-3,5,1
618511,775,-3798,8125,1,-3,5,1
618516,771,-3758,8147,1,-3,5,1
618521,742,-3730,8159,1,-5,6,1
618526,682,-3711,8163,2,-6,6,1
618531,643,-3692,8196,2,-5,7,1
618536,590,-3672,8226,2,-4,7,1
618541,557,-3668,8240,2,-3,8,1
618546,540,-3669,8231,2,-2,8,1
618551,556,-3671,8224,2,-1,9,1
618556,608,-3678,8234,2,-1,10,1
618561,654,-3690,8267,2,-2,10,1
618566,675,-3703,8304,2,-2,11,1
618571,612,-3707,8275,2,-3,11,1
618576,549,-3718,8236,2,-3,11,1
618581,567,-3733,8259,3,-2,11,1
618586,513,-3747,8249,3,-1,12,1
618591,426,-3750,8297,3,-3,13,1
618596,427,-3760,8392,4,-1,13,1
618601,445,-3772,8368,4,-1,13,1
618606,479,-3781,8294,4,0,14,1
618611,506,-3789,8208,4,1,14,1
618616,511,-3799,8161,4,0,14,1
618621,509,-3811,8170,4,0,15,1
618626,499,-3821,8205,4,0,15,1
618631,493,-3822,8230,4,1,15,1
618636,511,-3817,8221,4,2,16,1
618641,556,-3812,8227,3,3,16,1
618646,610,-3808,8240,3,3,16,1
618651,655,-3808,8267,3,2,16,1
618656,685,-3811,8249,3,2,16,1
618661,712,-3810,8208,2,2,17,1
618666,736,-3812,8171,2,1,17,1
618671,767,-3820,8168,2,1,17,1
618676,806,-3831,8190,2,0,17,1
618681,847,-3845,8231,1,1,18,1
618686,876,-3863,8245,1,1,18,1
618691,903,-3885,8243,1,1,18,1
618696,939,-3913,8234,1,2,18,1
618701,992,-3949,8226,1,2,18,1
618706,1042,-3992,8219,2,1,18,1
618711,1092,-4035,8233,2,-1,18,1
618716,1155,-4067,8296,2,-1,18,1
618721,1274,-4089,8462,3,0,18,1
618726,1340,-4120,8536,4,0,18,1
618731,1357,-4135,8487,4,-1,18,1
618736,1390,-4139,8386,5,-1,17,1
618740,1410,-4141,8304,5,-1,17,1
618746,1419,-4147,8283,5,-2,17,1
618751,1342,-4155,8321,5,-2,17,1
618756,1243,-4164,8391,5,-3,17,1
618760,1220,-4180,8445,6,-2,17,1
618765,1235,-4195,8457,6,-2,17,1
618770,1298,-4206,8404,6,-1,17,1
618775,1338,-4208,8351,6,0,17,1
618780,1351,-4207,8315,6,-2,16,1
618785,1331,-4212,8335,6,-4,16,1
618790,1331,-4216,8355,6,-4,16,1
618795,1340,-4214,8397,6,-4,16,1
618800,1355,-4208,8390,6,-3,15,1
618805,1361,-4206,8370,6,-3,15,1
618810,1367,-4207,8317,6,-3,15,1
618815,1371,-4209,8297,6,-2,14,1
618820,1373,-4207,8275,6,-2,14,1
618825,1356,-4208,8286,6,-1,14,1
618830,1330,-4203,8258,6,-1,13,1
618835,1303,-4195,8230,6,-1,13,1
618840,1277,-4190,8187,6,-1,13,1
618845,1270,-4186,8170,5,-1,13,1
618850,1287,-4185,8146,5,0,12,1
618855,1315,-4182,8144,5,1,12,1
618860,1338,-4176,8120,5,1,12,1
618865,1351,-4168,8098,5,1,12,1
618870,1368,-4162,8060,4,0,11,1
618875,1399,-4155,8028,4,-1,11,1
618880,1432,-4150,8003,4,-1,11,1
618885,1454,-4144,7977,4,-1,11,1
618890,1447,-4138,7938,3,-2,11,1
618895,1416,-4131,7901,3,-3,11,1
618900,1378,-4132,7883,3,-3,11,1
618905,1357,-4132,7874,3,-3,11,1
618910,1360,-4134,7882,2,-2,11,1
618915,1370,-4138,7883,2,0,10,1
618920,1365,-4140,7880,2,1,10,1
618925,1348,-4145,7850,1,1,10,1
618930,1340,-4147,7823,1,1,9,1
618935,1334,-4146,7811,1,1,9,1
618940,1331,-4142,7836,0,2,9,1
618945,1318,-4139,7851,0,1,8,1
618950,1313,-4143,7857,0,1,8,1
618955,1310,-4153,7832,0,1,8,1
618960,1324,-4165,7807,-1,1,8,1
618965,1353,-4182,7769,-1,1,7,1
618970,1378,-4208,7753,-1,1,7,1
618975,1393,-4237,7722,-1,1,7,1
618980,1403,-4270,7694,-1,0,7,1
618985,1420,-4300,7648,-1,0,6,1
618990,1444,-4320,7616,-1,0,6,1
618995,1459,-4332,7598,-2,0,6,1
619000,1449,-4336,7601,-2,-1,6,1
619005,1416,-4329,7591,-2,-1,6,1
619010,1386,-4319,7582,-2,-1,5,1
619015,1364,-4305,7577,-3,0,5,1
619020,1365,-4290,7605,-3,0,5,1
619025,1377,-4273,7645,-4,1,5,1
619030,1390,-4260,7687,-4,2,5,1
619035,1388,-4249,7689,-4,1,4,1
619040,1379,-4240,7670,-5,1,4,1
619045,1368,-4233,7633,-5,1,4,1
619050,1355,-4237,7609,-6,1,4,1
619055,1318,-4244,7602,-6,3,3,1
619060,1263,-4255,7599,-7,4,3,1
619065,1202,-4268,7582,-7,5,3,1
619070,1161,-4288,7552,-8,6,3,1
619074,1146,-4310,7520,-9,7,2,1
619079,1165,-4372,7504,-9,8,2,1
619085,1041,-4623,6712,-11,5,2,1
619089,1100,-4557,7331,-11,0,2,1
619094,1410,-4448,8225,-8,13,1,1
619099,1667,-4621,9302,-3,3,-1,1
619104,1747,-4764,9343,-1,1,-2,1
619109,1764,-4734,9597,1,2,-2,1
619114,1808,-4493,9491,3,5,-2,1
619119,1777,-4380,9390,4,-4,-2,1
619124,1687,-4371,9128,4,-6,-2,1
619129,1619,-4382,8879,4,-5,-2,1
619134,1507,-4319,8615,3,-2,-2,1
619139,1418,-4270,8386,2,-1,-2,1
619144,1316,-4273,8175,1,0,-2,1
619149,1203,-4308,7984,0,1,-2,1
619154,1089,-4327,7828,-1,1,-2,1
619159,989,-4336,7826,-1,1,-2,1
619164,958,-4351,7811,-1,2,-2,1
619169,927,-4376,7707,-2,3,-2,1
619174,925,-4373,7636,-3,4,-2,1
619179,927,-4398,7743,-3,4,-1,1
619184,836,-4387,7658,-3,2,1,1
619189,798,-4402,7719,-2,-2,1,1
619194,837,-4413,7803,0,0,0,1
619199,840,-4392,7885,2,1,0,1
619204,849,-4371,8012,3,3,0,1
619209,884,-4338,8075,2,4,0,1
619214,926,-4323,8085,1,3,0,1
619219,944,-4316,8090,1,2,0,1
619224,965,-4287,8169,1,1,0,1
619229,958,-4276,8374,0,-1,-1,1
619234,939,-4306,8513,0,-3,0,1
619239,945,-4304,8535,0,-2,0,1
619244,935,-4284,8643,0,-1,0,1
619249,935,-4290,8610,1,-1,0,1
619254,927,-4296,8466,1,0,0,1
619259,890,-4291,8353,1,0,0,1
619264,871,-4311,8194,0,1,0,1
619269,848,-4333,8046,0,3,0,1
619274,844,-4356,8000,0,4,0,1
619279,841,-4365,7941,0,5,0,1
619284,846,-4357,7971,0,6,0,1
619289,889,-4340,8014,0,7,0,1
619294,970,-4306,8014,0,9,0,1
619299,1086,-4258,8037,0,11,1,1
619304,1253,-4206,8045,0,12,1,1
619309,1442,-4154,8039,0,12,1,1
619314,1628,-4113,8078,0,10,1,1
619319,1804,-4077,8091,0,9,1,1
619324,1956,-4042,8088,0,8,1,1
619329,2108,-4021,8079,0,7,1,1
619334,2252,-4025,8045,0,5,1,1
619339,2423,-4050,7982,0,5,1,1
619344,2618,-4095,7918,0,6,0,1
619349,2833,-4157,7827,0,6,-1,1
619354,3030,-4224,7742,0,3,-2,1
619359,3180,-4286,7709,0,-2,-4,1
619364,3289,-4319,7665,0,-4,-6,1
619369,3356,-4314,7635,-1,-3,-9,1
619374,3353,-4306,7741,-1,-3,-11,1
619379,3383,-4295,7781,-1,-5,-14,1
619384,3446,-4254,7892,-1,-5,-17,1
619389,3474,-4187,8151,-1,-7,-20,1
619394,3592,-4146,8245,-1,-8,-23,1
619399,3763,-4069,8135,-1,-4,-26,1
619404,3817,-4036,8547,-1,-4,-29,1
619409,3930,-3990,8442,-1,-8,-32,1
619413,4030,-3964,8324,-1,-7,-35,1
619419,4032,-3908,8610,-2,-5,-37,1
619423,4097,-3907,8427,-1,-8,-40,1
619428,4129,-3907,8186,-2,-9,-42,1
619433,4099,-3910,8201,-2,-6,-44,1
619438,4059,-3976,8031,-3,-8,-46,1
619443,3942,-3979,7944,-3,-10,-48,1
619448,3838,-4026,8022,-2,-10,-50,1
619453,3688,-4057,8058,-3,-10,-51,1
619458,3612,-4062,8005,-3,-8,-52,1
619463,3628,-4139,7616,-4,-6,-54,1
619468,3553,-4127,7314,-6,-1,-55,1
619473,3312,-4229,7731,-5,-5,-56,1
619478,3012,-4300,7881,-6,-11,-57,1
619483,2697,-4304,8024,-6,-8,-57,1
619488,2396,-4334,8256,-6,-5,-57,1
619493,2068,-4335,8459,-6,-8,-57,1
619498,1665,-4375,8662,-5,-15,-57,1
619503,1209,-4394,8851,-4,-21,-57,1
619508,740,-4330,8518,-5,-20,-57,1
619513,479,-4403,8508,-5,-17,-57,1
619518,344,-4422,8206,-9,-2,-53,1
619523,190,-4578,8674,-9,1,-51,1
619528,43,-4636,8584,-10,0,-51,1
619533,-254,-4713,8556,-9,-5,-49,1
619538,-646,-4692,8596,-10,-10,-46,1
619543,-1189,-4770,9534,-6,-12,-41,1
619548,-1512,-4778,9306,-7,-23,-40,1
619553,-1688,-4778,9013,-6,-27,-36,1
619558,-2095,-4774,9055,-5,-9,-29,1
619563,-2065,-4848,9187,-3,-3,-26,1
619568,-2189,-4910,8927,-4,-5,-23,1
619573,-2389,-4910,8637,-4,-7,-20,1
619578,-2764,-4945,8466,-4,-2,-16,1
619583,-3085,-5008,8270,-5,0,-11,1
619588,-3428,-5036,8244,-5,1,-7,1
619593,-3685,-5078,8441,-4,1,-3,1
619598,-3878,-5097,8634,-2,0,2,1
619603,-4087,-5125,8834,-1,-6,7,1
619608,-4100,-5128,8904,0,-6,10,1
619613,-3906,-5129,8934,2,-2,14,1
619618,-3576,-5132,8825,2,0,16,1
619623,-3293,-5138,8705,2,-2,17,1
619628,-3196,-5120,8571,3,-4,19,1
619633,-3173,-5056,8505,3,-9,22,1
619638,-3231,-5022,8584,3,-9,25,1
619643,-3399,-4979,8403,3,-14,28,1
619648,-3414,-4916,8351,3,-14,31,1
619653,-3294,-4932,8429,4,-13,34,1
619658,-3335,-4941,8133,4,-17,36,1
619663,-3243,-4942,8180,4,-16,39,1
619668,-3113,-4927,8291,5,-15,40,1
619673,-2933,-4919,8527,7,-15,42,1
619678,-2969,-4905,8409,7,-13,44,1
619683,-3060,-4864,8363,7,-17,46,1
619688,-2924,-4846,8486,8,-12,47,1
619693,-2829,-4836,8424,8,-14,49,1
619698,-2780,-4797,8271,8,-13,50,1
619703,-2484,-4737,8481,8,-10,51,1
619708,-2312,-4716,8579,9,-6,52,1
619713,-2323,-4706,8498,9,-14,53,1
619718,-2360,-4622,8376,8,-11,54,1
619723,-2174,-4606,8527,9,-10,55,1
619727,-2160,-4545,8215,8,-9,56,1
619732,-1885,-4524,8389,8,-5,56,1
619737,-1728,-4457,8342,8,-1,57,1
619743,-1588,-4461,8373,8,-5,57,1
619748,-1613,-4343,8029,7,-7,59,1
619752,-1282,-4329,8428,8,-2,59,1
619757,-1121,-4285,8249,7,-2,59,1
619762,-763,-4262,8608,8,-1,58,1
619767,-559,-4212,8441,8,3,59,1
619772,-435,-4178,8316,7,-5,59,1
619777,-126,-4081,8353,7,-2,59,1
619782,183,-4064,8343,7,3,58,1
619787,274,-4015,7913,6,-3,58,1
619792,522,-3915,7981,6,1,57,1
619797,988,-3870,8395,7,6,57,1
619802,1291,-3894,8417,7,7,56,1
619807,1419,-3787,7925,6,0,56,1
619812,1766,-3690,8166,6,4,55,1
619817,2324,-3675,8483,6,10,53,1
619822,2749,-3656,8164,6,8,53,1
619827,2951,-3616,7856,6,8,54,1
619832,3149,-3597,7916,4,10,51,1
619837,3660,-3664,8152,3,8,46,1
619842,3580,-3722,7980,2,8,46,1
619847,3281,-3737,7985,2,-5,44,1
619852,3344,-3729,8168,3,-6,42,1
619857,3543,-3833,8295,4,-1,41,1
619862,4064,-3863,8290,4,4,37,1
619867,4459,-3907,7969,4,11,34,1
619872,4690,-3948,7876,3,2,31,1
619877,4780,-3963,7802,3,0,28,1
619882,4691,-3993,7490,1,-4,26,1
619887,4752,-3982,7512,1,-1,24,1
619892,5011,-4029,7675,1,6,21,1
619897,5354,-4083,7762,1,7,18,1
619902,5779,-4074,7962,2,10,15,1
619907,6120,-4082,8061,2,8,12,1
619912,6316,-4082,7921,2,4,9,1
619917,6447,-4091,7865,1,1,6,1
619922,6622,-4124,7748,1,3,4,1
619927,6816,-4170,7630,1,7,1,1
619932,6977,-4234,7498,0,11,-2,1
619937,6882,-4311,7445,-1,13,-4,1
619942,6558,-4371,7491,-1,8,-5,1
619947,6127,-4405,7619,0,-1,-6,1
619952,5786,-4421,7755,1,-5,-7,1
619957,5764,-4467,7707,1,-2,-8,1
619962,5965,-4482,7567,1,3,-11,1
619967,6127,-4509,7532,1,1,-14,1
619972,6224,-4565,7365,1,-4,-16,1
619977,6078,-4553,7414,0,-8,-19,1
619982,5887,-4536,7566,0,-11,-21,1
619987,5853,-4551,7391,-1,-9,-22,1
619992,5891,-4502,7532,-1,-4,-24,1
619997,5977,-4520,7722,0,-5,-27,1
620002,6051,-4496,7634,0,-8,-29,1
620007,5994,-4476,7855,0,-8,-31,1
620012,6038,-4430,7494,-1,-10,-33,1
620017,5880,-4452,7742,0,-10,-34,1
620022,5897,-4415,7571,-1,-11,-36,1
620027,5803,-4421,7628,0,-12,-38,1
620032,5841,-4397,7543,-2,-12,-40,1
620037,5816,-4382,7469,-2,-11,-42,1
620042,5623,-4414,7998,-2,-17,-44,1
620047,5532,-4386,7726,-2,-17,-46,1
620052,5331,-4347,7870,-3,-15,-47,1
620056,5291,-4337,7726,-4,-12,-49,1
620062,5113,-4423,7846,-4,-16,-51,1
620067,5132,-4414,7356,-6,-14,-53,1
620072,4811,-4469,7958,-5,-13,-55,1
620076,4572,-4545,8225,-5,-20,-56,1
620081,4309,-4605,7819,-6,-19,-58,1
620086,4051,-4603,8024,-7,-13,-59,1
620091,3673,-4683,8562,-6,-18,-60,1
620096,3316,-4920,8335,-6,-27,-62,1
620101,3036,-4790,7836,-9,-15,-63,1
620106,2574,-4896,8643,-8,-19,-64,1
620111,2095,-5046,8796,-8,-32,-65,1
620116,1740,-5005,8001,-10,-27,-65,1
620121,1326,-5034,8331,-11,-25,-66,1
620126,1034,-5116,8077,-12,-37,-68,1
620131,495,-5287,8580,-11,-41,-67,1
620136,143,-5195,8085,-14,-26,-66,1
620141,-262,-5257,8449,-14,-21,-66,1
620146,-693,-5258,8489,-16,-17,-65,1
620151,-1220,-5329,8868,-14,-21,-63,1
620156,-1737,-5331,9154,-14,-25,-62,1
620161,-2142,-5284,8912,-15,-26,-60,1
620166,-2541,-5331,9240,-15,-37,-59,1
620171,-2823,-5264,8697,-16,-18,-54,1
620176,-3003,-5360,9392,-13,-10,-51,1
620181,-3408,-5310,9102,-13,2,-47,1
620186,-3655,-5368,9151,-11,-2,-44,1
620191,-3960,-5291,8860,-13,5,-41,1
620196,-4178,-5337,9311,-11,5,-37,1
620201,-4429,-5355,9279,-10,7,-33,1
620206,-4665,-5318,9183,-9,9,-29,1
620211,-4914,-5302,9249,-8,8,-25,1
620216,-5064,-5302,9270,-7,9,-20,1
620221,-5241,-5313,9350,-6,8,-15,1
620226,-5502,-5287,9452,-4,7,-9,1
620231,-5698,-5268,9529,-2,4,-4,1
620236,-5909,-5271,9465,-1,-1,1,1
620241,-6146,-5281,9451,0,-5,6,1
620246,-5732,-5291,9360,2,0,10,1
620251,-5246,-5302,9115,2,7,11,1
620256,-4754,-5339,8983,2,9,12,1
620261,-4726,-5340,8801,2,8,14,1
620266,-4805,-5313,8866,3,1,17,1
620271,-5034,-5276,8892,4,2,20,1
620276,-5172,-5242,8711,4,1,24,1
620281,-4838,-5229,8834,5,7,27,1
620286,-4397,-5229,8862,6,10,29,1
620291,-4105,-5254,8802,7,7,31,1
620296,-4010,-5217,8683,7,2,34,1
620301,-3956,-5196,8773,8,1,36,1
620306,-3835,-5171,8902,8,-2,39,1
620311,-3685,-5148,8818,9,4,41,1
620316,-3740,-5137,8326,9,0,44,1
620321,-3269,-5115,8713,9,1,46,1
620326,-2929,-5140,8804,10,7,47,1
620331,-2948,-5094,8589,10,-6,49,1
620336,-2763,-4991,8699,10,5,51,1
620341,-2483,-4970,8938,11,4,53,1
620346,-2293,-4923,8809,11,5,55,1
620351,-2156,-4759,8490,10,6,56,1
620356,-1599,-4734,8837,11,14,57,1
620361,-1374,-4643,8670,10,9,59,1
620366,-1204,-4539,8522,11,9,60,1
620371,-821,-4482,8728,11,10,62,1
620376,-644,-4413,8325,10,10,64,1
620381,-206,-4411,8591,10,5,64,1
620385,252,-4329,8630,10,11,65,1
620390,668,-4353,8626,11,7,65,1
620396,576,-4295,7771,9,1,66,1
620401,1104,-4315,8167,10,0,66,1
620406,1478,-4338,8154,9,8,67,1
620411,1478,-4401,7728,9,-4,66,1
620415,1681,-4333,7727,9,-4,66,1
620420,2191,-4384,8080,11,13,66,1
620425,2310,-4462,7573,9,5,65,1
620430,2485,-4455,7475,9,-2,63,1
620435,2833,-4446,7584,8,9,62,1
620440,3159,-4562,7584,8,21,61,1
620445,3228,-4525,7531,6,19,60,1
620450,3681,-4558,7595,5,14,54,1
620455,3516,-4652,7351,3,4,53,1
620460,3260,-4621,7437,3,-9,51,1
620465,3386,-4580,7893,4,-6,49,1
620470,3554,-4650,7865,5,0,47,1
620475,3829,-4617,7703,4,-1,44,1
620480,4238,-4575,7748,4,8,40,1
620485,4560,-4616,8024,4,3,37,1
620490,4405,-4559,7493,2,-5,34,1
620495,4399,-4477,7773,2,-7,32,1
620500,4512,-4409,7874,2,5,29,1
620505,4508,-4434,7746,2,1,27,1
620510,4653,-4356,7714,1,2,24,1
620515,4834,-4307,7878,1,9,21,1
620520,5164,-4322,8184,2,4,18,1
620525,5188,-4283,7948,1,6,15,1
620530,5127,-4239,7914,1,0,13,1
620535,5044,-4197,7952,0,3,11,1
620540,4862,-4197,7816,0,-1,9,1
620545,4787,-4184,7790,0,2,7,1
620550,4798,-4179,7878,0,11,5,1
620555,4760,-4197,7897,0,12,2,1
620560,4628,-4203,7846,-1,11,-1,1
620565,4449,-4179,7886,-1,12,-3,1
620570,4300,-4150,7945,-1,14,-4,1
620575,4122,-4145,7983,-1,18,-6,1
620580,3861,-4126,8043,-2,16,-7,1
620585,3507,-4091,8173,-2,12,-8,1
620590,3134,-4052,8221,-1,8,-7,1
620595,2870,-4019,8290,-1,8,-7,1
620600,2743,-3998,8375,-1,11,-7,1
620605,2716,-3984,8342,-1,13,-7,1
620610,2627,-3972,8314,-1,11,-7,1
620615,2487,-3973,8299,-1,6,-7,1
620620,2335,-3968,8217,-1,3,-7,1
620625,2194,-3957,8188,-1,2,-6,1
620630,2093,-3952,8182,-1,0,-6,1
620635,2008,-3956,8158,-1,0,-5,1
620640,1893,-3970,8173,-1,-2,-5,1
620645,1786,-3984,8157,-1,-7,-4,1
620650,1692,-3988,8112,0,-11,-3,1
620655,1614,-3988,8065,0,-12,-3,1
620660,1541,-4003,7986,0,-12,-2,1
620665,1445,-4035,7923,0,-9,-2,1
620670,1320,-4063,7902,0,-6,-1,1
620675,1231,-4064,7886,-1,-5,-1,1
620680,1129,-4048,7908,-1,-5,0,1
620685,1058,-4037,7977,0,-4,0,1
620690,986,-4028,8030,0,-3,0,1
620695,908,-4022,8073,0,-3,0,1
620700,850,-4030,8109,0,-3,0,1
620705,824,-4039,8110,0,-3,1,1
620709,813,-4044,8093,0,-4,1,1
620715,817,-4040,8092,0,-4,1,1
620719,798,-4032,8092,0,-6,1,1
620725,766,-4027,8107,0,-8,0,1
620729,735,-4025,8155,0,-9,0,1
620734,703,-4019,8197,0,-9,1,1
620740,679,-4010,8208,0,-10,1,1
620744,661,-4001,8235,0,-10,1,1
620749,640,-3991,8238,0,-11,1,1
620754,633,-3987,8209,0,-11,1,1
620759,620,-3996,8222,0,-8,1,1
620764,615,-4013,8220,0,-4,1,1
620769,630,-4024,8214,0,0,1,1
620774,645,-4022,8242,0,4,1,1
620779,663,-4008,8251,0,5,1,1
620784,679,-3990,8252,0,5,1,1
620789,673,-3979,8264,0,6,1,1
620794,670,-3984,8260,0,5,1,1
620799,682,-4000,8253,0,6,1,1
620804,690,-4009,8262,0,5,1,1
620809,713,-4009,8251,0,4,1,1
620814,741,-4004,8246,0,2,1,1
620819,742,-4007,8252,0,1,1,1
620824,736,-4015,8249,0,-1,0,1
620829,665,-4022,8239,0,-1,0,1
620834,557,-4012,8248,0,0,0,1
620839,459,-3999,8254,0,3,0,1
620844,379,-3985,8262,0,4,0,1
620849,318,-3964,8280,0,3,0,1
620854,290,-3940,8282,0,0,0,1
620859,286,-3904,8257,0,-4,0,1
620864,302,-3845,8223,0,-9,-1,1
620869,404,-3804,8108,1,-19,-1,1
620874,480,-3793,7981,1,-42,-2,1
620879,469,-3821,7902,1,-57,-2,1
620884,440,-3879,7886,1,-57,-2,1
620889,417,-3952,7965,0,-47,-2,1
620894,418,-4023,8139,-1,-34,-2,1
620899,455,-4074,8362,-1,-23,-2,1
620904,505,-4086,8567,0,-17,-2,1
620909,549,-4062,8705,1,-15,-2,1
620914,593,-4007,8715,1,-17,-2,1
620919,745,-3935,8650,1,-22,-2,1
620924,805,-3901,8489,1,-31,-2,1
620929,777,-3912,8262,1,-35,-3,1
620934,758,-3910,8075,1,-35,-3,1
620939,782,-3888,7976,0,-39,-3,1
620944,850,-3874,7939,0,-45,-3,1
620949,947,-3877,7950,0,-51,-3,1
620954,1047,-3898,8059,0,-56,-3,1
620959,1141,-3920,8202,0,-63,-4,1
620964,1206,-3924,8323,1,-70,-4,1
620969,1249,-3912,8428,1,-75,-4,1
620974,1268,-3894,8449,1,-77,-4,1
620979,1282,-3894,8418,1,-73,-4,1
620984,1312,-3905,8377,1,-63,-3,1
620989,1350,-3937,8322,1,-52,-3,1
620994,1386,-3979,8250,0,-42,-3,1
620999,1428,-4022,8202,0,-34,-3,1
621004,1470,-4052,8181,0,-30,-3,1
621009,1506,-4084,8149,0,-26,-2,1
621014,1537,-4099,8149,0,-19,-2,1
621019,1581,-4098,8166,0,-13,-2,1
621024,1623,-4090,8154,0,-10,-2,1
621028,1666,-4066,8161,0,-9,-2,1
621034,1713,-4028,8133,0,-11,-2,1
621039,1762,-3963,8079,0,-16,-2,1
621043,1823,-3881,8038,0,-25,-2,1
621049,1874,-3825,8004,0,-34,-2,1
621053,1925,-3811,7992,0,-43,-3,1
621059,1962,-3822,8017,0,-51,-3,1
621063,1968,-3838,8054,0,-57,-3,1
621068,1962,-3844,8088,1,-59,-3,1
621073,1969,-3852,8123,1,-60,-4,1
621078,1971,-3861,8110,1,-61,-4,1
621083,1992,-3883,8087,1,-63,-4,1
621088,2011,-3920,8059,1,-61,-4,1
621093,2033,-3958,8027,0,-58,-4,1
621098,2067,-3994,8019,0,-55,-4,1
621103,2138,-4030,7989,0,-53,-4,1
621108,2224,-4042,7959,1,-52,-3,1
621113,2335,-4031,7927,1,-53,-3,1
621118,2437,-3995,7876,1,-57,-3,1
621123,2538,-3955,7846,1,-63,-3,1
621128,2631,-3929,7832,1,-70,-4,1
621133,2698,-3928,7833,1,-77,-4,1
621138,2759,-3925,7851,1,-84,-4,1
621143,2809,-3903,7886,1,-90,-4,1
621148,2863,-3841,7910,1,-100,-5,1
621153,2897,-3779,7924,1,-110,-5,1
621158,2928,-3754,7923,1,-119,-5,1
621163,2953,-3759,7920,1,-125,-5,1
621168,3095,-3788,7935,1,-130,-5,1
621173,3348,-3830,7894,2,-146,-5,1
621178,3473,-3880,7802,2,-157,-5,1
621183,3501,-3929,7695,1,-160,-6,1
621188,3401,-3995,7677,1,-153,-6,1
621193,3268,-4041,7581,2,-140,-5,1
621198,3176,-4066,7508,2,-119,-4,1
621203,3138,-4068,7394,1,-92,-4,1
621208,3137,-4070,7301,1,-64,-3,1
621213,3194,-4072,7253,1,-42,-3,1
621218,3309,-4053,7228,0,-27,-2,1
621223,3465,-4022,7228,0,-22,-2,1
621228,3656,-3999,7205,1,-25,-2,1
621233,3835,-3999,7183,1,-35,-3,1
621238,3998,-4012,7152,1,-48,-3,1
621243,4132,-4026,7117,1,-61,-4,1
621248,4235,-4041,7093,1,-72,-4,1
621253,4324,-4055,7086,1,-83,-4,1
621258,4420,-4053,7070,1,-95,-4,1
621263,4501,-4028,7063,1,-105,-5,1
621268,4570,-3993,7058,1,-112,-5,1
621273,4626,-3970,7048,1,-114,-4,1
621278,4677,-3954,7034,1,-113,-5,1
621283,4726,-3951,6997,1,-109,-4,1
621288,4762,-3974,6931,2,-102,-4,1
621293,4736,-3997,6818,1,-90,-4,1
621298,4694,-4014,6707,1,-73,-4,1
621303,4623,-4023,6618,1,-53,-3,1
621308,4546,-4007,6555,0,-32,-2,1
621313,4508,-3973,6540,0,-14,-2,1
621318,4517,-3930,6542,-1,-2,-2,1
621323,4586,-3902,6560,-1,3,-2,1
621328,4707,-3895,6581,0,0,-2,1
621333,4860,-3906,6586,0,-8,-2,1
621338,5005,-3920,6597,0,-20,-2,1
621343,5122,-3922,6590,0,-34,-3,1
621348,5183,-3888,6584,0,-48,-3,1
621353,5194,-3846,6549,0,-59,-4,1
621358,5194,-3843,6518,0,-65,-4,1
621363,5188,-3866,6498,0,-68,-4,1
621368,5201,-3902,6475,0,-71,-4,1
621372,5226,-3936,6466,0,-73,-4,1
621378,5273,-3944,6456,0,-78,-4,1
621382,5348,-3941,6461,0,-83,-4,1
621387,5420,-3939,6437,0,-89,-5,1
621393,5502,-3939,6416,0,-94,-5,1
621397,5574,-3946,6365,0,-97,-5,1
621402,5648,-3985,6282,0,-99,-5,1
621407,5685,-4003,6176,0,-100,-5,1
621412,5710,-3991,6072,0,-100,-5,1
621417,5720,-3980,5966,0,-98,-5,1
621422,5726,-3975,5863,0,-96,-5,1
621427,5758,-3984,5781,0,-93,-5,1
621432,5793,-4002,5712,0,-90,-4,1
621437,5836,-4011,5672,-1,-87,-4,1
621442,5883,-4015,5651,-1,-85,-4,1
621447,5927,-4010,5622,-1,-85,-4,1
621452,5980,-4001,5598,-1,-85,-4,1
621457,6026,-3990,5568,-1,-87,-4,1
621462,6073,-3979,5523,-1,-91,-4,1
621467,6119,-3968,5479,-1,-97,-4,1
621472,6169,-3974,5410,0,-104,-4,1
621477,6214,-3990,5323,0,-109,-4,1
621482,6240,-4011,5218,0,-112,-4,1
621487,6276,-4028,5070,0,-114,-4,1
621492,6346,-4021,4915,0,-114,-4,1
621497,6393,-4004,4777,0,-112,-4,1
621502,6410,-3991,4660,0,-109,-4,1
621507,6453,-3971,4550,-1,-103,-4,1
621512,6500,-3950,4437,-1,-91,-4,1
621517,6514,-3923,4335,-1,-76,-4,1
621522,6518,-3882,4245,-1,-62,-4,1
621527,6509,-3828,4162,-1,-49,-3,1
621532,6504,-3773,4090,-1,-39,-3,1
621537,6528,-3725,4040,-1,-32,-2,1
621542,6602,-3699,4008,-1,-28,-2,1
621547,6725,-3697,3983,-1,-26,-2,1
621552,6871,-3715,3983,-1,-27,-2,1
621557,7026,-3729,3982,-1,-32,-2,1
621562,7179,-3734,3975,-1,-42,-3,1
621567,7303,-3736,3972,-1,-54,-3,1
621572,7404,-3732,3975,-1,-69,-3,1
621577,7490,-3731,3972,-1,-83,-3,1
621582,7566,-3735,3978,-1,-94,-3,1
621587,7639,-3738,3980,-1,-103,-3,1
621592,7685,-3736,3961,-1,-109,-3,1
621597,7693,-3721,3916,-1,-112,-3,1
621602,7671,-3694,3845,-1,-111,-3,1
621607,7622,-3659,3754,-1,-110,-3,1
621612,7576,-3614,3645,-1,-108,-3,1
621617,7559,-3578,3533,-1,-107,-3,1
621622,7566,-3553,3432,-1,-104,-2,1
621627,7609,-3532,3380,-1,-101,-1,1
621632,7679,-3524,3353,-1,-97,-1,1
621637,7726,-3515,3359,0,-95,0,1
621642,7773,-3504,3330,0,-97,-1,1
621647,7903,-3485,3205,0,-101,-1,1
621652,8096,-3461,3021,0,-104,-1,1
621657,8249,-3462,2844,0,-104,0,1
621662,8353,-3476,2706,0,-104,0,1
621667,8440,-3475,2604,-1,-102,0,1
621672,8458,-3438,2471,-1,-96,0,1
621677,8440,-3374,2321,-1,-91,0,1
621682,8346,-3305,2171,-1,-87,0,1
621687,8194,-3261,2034,-1,-80,1,1
621692,8014,-3245,1924,-1,-68,1,1
621697,7810,-3263,1828,-1,-49,2,1
621702,7613,-3306,1757,-1,-25,2,1
621706,7425,-3369,1692,-1,2,3,1
621711,7257,-3430,1656,-1,30,3,1
621717,7101,-3487,1620,-1,53,4,1
621721,6974,-3542,1573,-1,72,5,1
621726,6894,-3611,1497,-1,88,5,1
621731,6830,-3711,1381,-1,103,6,1
621736,6751,-3881,1231,-1,121,6,1
621741,6661,-4131,1048,0,149,6,1
621746,6588,-4353,861,0,190,8,1
621751,6469,-4474,713,1,231,9,1
621756,6346,-4483,642,0,266,10,1
621761,6263,-4397,678,-1,297,11,1
621766,6202,-4242,880,-1,323,12,1
621771,6261,-4068,1196,-2,336,13,1
621776,6449,-3900,1605,-2,328,12,1
621781,6735,-3735,2091,-3,282,9,1
621786,7014,-3551,2698,-4,203,6,1
621791,7218,-3365,3277,-3,108,3,1
621796,7269,-3263,3738,-1,27,0,1
621801,7203,-3298,3934,0,-20,-1,1
621806,7048,-3442,3995,0,-30,-2,1
621811,6895,-3602,4020,0,-18,-2,1
621816,6737,-3736,4068,0,0,-1,1
621821,6608,-3837,4086,0,11,-1,1
621826,6509,-3920,4101,0,14,0,1
621831,6465,-3981,4089,0,9,0,1
621836,6477,-4029,4088,0,2,0,1
621841,6517,-4124,4098,0,-6,-1,1
621846,6580,-4243,4128,1,-16,-1,1
621851,6601,-4305,4158,1,-33,-2,1
621856,6540,-4290,4140,1,-51,-3,1
621861,6421,-4210,4100,1,-66,-4,1
621866,6313,-4097,4040,1,-76,-4,1
621871,6247,-3985,3984,1,-80,-3,1
621876,6279,-3905,3949,1,-80,-3,1
621881,6406,-3866,3963,1,-79,-3,1
621886,6604,-3841,3992,1,-79,-3,1
621891,6840,-3826,4043,1,-81,-4,1
621896,7037,-3797,4094,1,-85,-4,1
621901,7174,-3738,4128,1,-90,-5,1
621906,7230,-3657,4125,1,-96,-6,1
621911,7228,-3552,4074,1,-99,-6,1
621916,7195,-3439,3989,1,-101,-5,1
621921,7191,-3334,3886,1,-101,-5,1
621926,7212,-3231,3777,1,-101,-5,1
621931,7263,-3151,3686,1,-103,-5,1
621936,7257,-3167,3877,0,-108,-5,1
621941,7323,-3241,4160,-1,-103,-5,1
621946,7445,-3388,4330,-1,-101,-4,1
621951,7608,-3638,4246,-1,-104,-4,1
621956,7755,-3904,4060,0,-112,-5,1
621961,7741,-4140,3831,-1,-120,-7,1
621966,7612,-4281,3648,-1,-126,-7,1
621971,7499,-4326,3459,-1,-135,-6,1
621976,7370,-4321,3271,-1,-148,-6,1
621981,7260,-4361,3074,-1,-157,-5,1
621986,7222,-4430,2901,-1,-156,-4,1
621991,7317,-4487,2718,-1,-156,-5,1
621996,7477,-4535,2550,0,-163,-6,1
622001,7662,-4538,2358,0,-180,-6,1
622006,7775,-4511,2219,0,-200,-7,1
622011,7801,-4503,2134,-1,-219,-8,1
622016,7742,-4472,2071,-1,-226,-8,1
622021,7615,-4424,1999,-1,-223,-8,1
622025,7482,-4349,1887,-1,-212,-7,1
622031,7345,-4246,1693,0,-197,-7,1
622035,7215,-4151,1408,0,-181,-6,1
622041,7099,-4059,1075,1,-165,-6,1
622045,6988,-3962,698,1,-147,-5,1
622050,6906,-3869,316,1,-126,-4,1
622055,6866,-3775,-1,0,-104,-4,1
622060,6846,-3693,-252,-1,-87,-3,1
622065,6874,-3620,-490,-1,-76,-3,1
622070,6936,-3563,-615,-1,-71,-3,1
622075,7006,-3525,-669,-1,-74,-3,1
622080,7085,-3505,-674,-1,-81,-4,1
622085,7132,-3518,-694,0,-90,-4,1
622090,7148,-3560,-704,0,-97,-5,1
622095,7167,-3606,-727,0,-101,-5,1
622100,7170,-3654,-758,0,-102,-5,1
622105,7153,-3702,-790,0,-98,-5,1
622110,7118,-3726,-793,0,-91,-5,1
622115,7064,-3726,-789,-1,-79,-4,1
622120,7002,-3722,-759,-1,-66,-4,1
622125,6978,-3712,-718,-1,-53,-3,1
622130,6998,-3685,-683,-2,-40,-2,1
622135,7029,-3646,-665,-2,-27,-1,1
622140,7086,-3612,-680,-2,-15,-1,1
622145,7204,-3572,-739,-1,-10,-1,1
622150,7339,-3526,-847,-2,-16,-2,1
622155,7418,-3484,-982,-1,-30,-3,1
622160,7418,-3441,-1067,-2,-49,-3,1
622165,7395,-3370,-1205,-1,-66,-4,1
622170,7350,-3316,-1333,-1,-75,-4,1
622175,7279,-3279,-1498,-1,-74,-4,1
622180,7244,-3233,-1679,0,-66,-3,1
622185,7197,-3180,-1847,1,-55,-3,1
622190,7137,-3143,-1956,1,-44,-3,1
622195,7059,-3117,-2077,1,-32,-3,1
622200,6981,-3086,-2192,0,-18,-3,1
622205,6915,-3054,-2267,0,-4,-2,1
622210,6866,-3014,-2291,0,9,-2,1
622215,6909,-2972,-2288,0,17,-1,1
622220,6979,-2929,-2262,0,23,-1,1
622225,7112,-2887,-2234,0,26,-1,1
622230,7247,-2853,-2210,0,26,-1,1
622235,7395,-2842,-2204,0,23,-1,1
622240,7485,-2856,-2174,0,19,-2,1
622245,7574,-2842,-2161,0,13,-2,1
622250,7666,-2780,-2132,0,7,-2,1
622255,7742,-2696,-2083,0,2,-3,1
622260,7745,-2626,-2023,0,-5,-3,1
622265,7712,-2575,-1993,0,-12,-3,1
622270,7695,-2564,-2007,1,-17,-3,1
622275,7605,-2605,-2026,1,-22,-3,1
622280,7514,-2675,-2056,1,-29,-3,1
622285,7516,-2712,-2097,1,-33,-3,1
622290,7639,-2701,-2111,1,-32,-4,1
622295,7761,-2697,-2101,1,-35,-5,1
622300,7792,-2694,-2085,1,-47,-5,1
622305,7742,-2760,-2129,1,-62,-5,1
622310,7577,-2900,-2087,1,-66,-5,1
622315,7448,-3053,-2040,0,-64,-5,1
622320,7408,-3174,-1924,-1,-57,-5,1
622325,7424,-3256,-1811,-1,-49,-5,1
622330,7365,-3343,-1673,-1,-45,-5,1
622335,7247,-3399,-1654,-1,-47,-4,1
622340,7176,-3491,-1692,-1,-47,-4,1
622344,7026,-3658,-1695,-1,-46,-3,1
622350,6990,-3798,-1713,-2,-47,-3,1
622354,7075,-3864,-1801,-2,-45,-3,1
622360,7149,-3905,-1875,-2,-43,-4,1
622365,7127,-3925,-1915,-3,-47,-4,1
622370,7075,-3912,-1948,-3,-54,-4,1
622374,7012,-3920,-1977,-2,-57,-3,1
622379,6858,-3964,-1962,-2,-55,-3,1
622384,6803,-4004,-2083,-1,-53,-2,1
622389,6832,-4044,-2252,-1,-45,-2,1
622394,6896,-4069,-2441,-1,-39,-2,1
622399,6992,-4033,-2600,-2,-39,-3,1
622404,7090,-3940,-2740,-2,-40,-3,1
622409,7113,-3883,-2780,-2,-41,-3,1
622414,6993,-3871,-2778,-2,-40,-3,1
622419,6903,-3866,-2842,-1,-40,-3,1
622424,6796,-3888,-2921,-1,-38,-2,1
622429,6697,-3942,-3008,-1,-34,-2,1
622434,6660,-4013,-3075,-1,-27,-1,1
622439,6656,-4063,-3088,-2,-19,-1,1
622444,6662,-4053,-3085,-2,-10,-1,1
622449,6671,-4004,-3060,-2,-5,-1,1
622454,6677,-3942,-3015,-2,-5,-1,1
622459,6703,-3880,-2958,-2,-13,-1,1
622464,6767,-3839,-2921,-2,-23,0,1
622469,6780,-3867,-2898,-2,-33,0,1
622474,6751,-3965,-2900,-2,-41,0,1
622479,6729,-4097,-2948,-2,-46,-1,1
622484,6706,-4255,-3024,-2,-48,-1,1
622489,6630,-4417,-3071,-2,-49,-1,1
622494,6598,-4543,-3094,-2,-51,-1,1
622499,6588,-4619,-3090,-2,-54,-1,1
622504,6566,-4665,-3056,-1,-59,-1,1
622509,6534,-4657,-3024,-1,-67,-1,1
622514,6483,-4639,-3026,-1,-75,-1,1
622519,6418,-4621,-3066,0,-79,-1,1
622524,6366,-4587,-3121,0,-83,-2,1
622529,6302,-4530,-3212,0,-84,-2,1
622534,6203,-4449,-3296,-1,-82,-2,1
622539,6096,-4346,-3406,-1,-76,-2,1
622544,5998,-4234,-3528,-1,-69,-1,1
622549,5919,-4123,-3651,-1,-60,-1,1
622554,5876,-4017,-3779,0,-49,0,1
622559,5860,-3930,-3898,0,-38,0,1
622564,5866,-3866,-3983,-1,-29,0,1
622569,5880,-3815,-4038,-1,-21,0,1
622574,5891,-3774,-4054,-1,-16,1,1
622579,5895,-3749,-4037,-1,-13,1,1
622584,5892,-3730,-4001,-1,-12,1,1
622589,5887,-3716,-3964,-1,-10,1,1
622594,5871,-3706,-3957,0,-10,1,1
622599,5877,-3686,-4004,0,-11,1,1
622604,5874,-3666,-4116,1,-16,1,1
622609,5865,-3604,-4263,1,-19,1,1
622614,5824,-3534,-4401,1,-18,1,1
622619,5777,-3497,-4503,1,-14,0,1
622624,5682,-3501,-4564,1,-5,0,1
622629,5553,-3514,-4592,1,5,0,1
622634,5416,-3517,-4618,1,15,1,1
622639,5279,-3513,-4649,1,25,1,1
622644,5202,-3509,-4617,1,32,2,1
622649,5161,-3515,-4580,1,38,2,1
622654,5135,-3525,-4562,1,42,2,1
622659,5137,-3524,-4535,2,47,2,1
622664,5166,-3518,-4520,2,53,2,1
622669,5219,-3517,-4499,2,57,1,1
622674,5279,-3522,-4461,1,58,1,1
622679,5334,-3528,-4380,1,58,1,1
622683,5381,-3528,-4257,1,57,1,1
622688,5435,-3532,-4107,1,59,1,1
622693,5519,-3539,-3918,1,61,1,1
622698,5631,-3548,-3731,1,60,1,1
622703,5760,-3563,-3566,1,56,1,1
622708,5890,-3584,-3425,1,49,1,1
622713,5998,-3605,-3319,1,43,0,1
622718,6103,-3615,-3251,1,39,0,1
622723,6202,-3624,-3217,1,35,0,1
622728,6276,-3639,-3197,0,31,0,1
622733,6323,-3644,-3185,0,30,0,1
622738,6340,-3635,-3177,0,30,0,1
622743,6328,-3620,-3183,0,30,0,1
622748,6299,-3601,-3209,0,30,0,1
622753,6268,-3578,-3267,0,31,0,1
622758,6236,-3553,-3372,0,32,0,1
622763,6185,-3524,-3515,1,33,0,1
622768,6132,-3495,-3689,1,35,0,1
622773,6055,-3463,-3877,1,36,0,1
622778,5948,-3429,-4050,1,37,-1,1
622783,5838,-3393,-4171,0,38,-1,1
622788,5718,-3367,-4267,0,40,-1,1
622793,5587,-3369,-4331,0,41,-1,1
622798,5476,-3398,-4379,1,42,-1,1
622803,5386,-3448,-4436,1,43,-1,1
622808,5311,-3534,-4488,1,42,-2,1
622813,5251,-3628,-4495,1,41,-2,1
622818,5201,-3708,-4483,1,37,-2,1
622823,5148,-3789,-4464,0,34,-2,1
622828,5108,-3875,-4429,-1,29,-2,1
622833,5063,-3952,-4417,-1,22,-2,1
622838,5009,-4011,-4469,-2,14,-1,1
622843,4925,-4050,-4602,-3,8,0,1
622848,4831,-4080,-4804,-5,1,0,1
622853,4885,-4102,-4997,-6,-4,1,1
622858,4895,-4105,-5125,-8,-7,2,1
622863,5000,-4094,-5220,-10,-13,3,1
622868,5136,-4091,-5332,-12,-14,4,1
622873,5153,-4085,-5422,-14,-19,5,1
622878,5176,-4072,-5520,-16,-20,5,1
622883,5007,-4071,-5588,-18,-19,7,1
622888,5149,-4051,-5688,-20,-17,7,1
622893,5252,-4041,-5768,-21,-13,8,1
622898,5100,-4034,-5757,-23,-20,10,1
622903,5108,-4006,-5806,-24,-21,11,1
622908,4938,-4002,-5798,-26,-18,13,1
622913,4987,-4038,-5880,-28,-19,13,1
622918,4503,-4061,-5759,-29,-20,16,1
622923,4863,-4041,-5780,-31,-19,16,1
622928,4993,-4085,-5672,-32,-9,17,1
622933,4890,-4113,-5539,-33,-22,18,1
622938,5315,-4070,-5579,-34,-19,19,1
622943,5317,-4058,-5434,-35,-11,19,1
622948,5111,-4073,-5354,-36,-24,21,1
622953,5606,-4005,-5273,-37,-13,21,1
622958,6008,-4030,-5177,-38,-7,21,1
622963,5547,-4026,-4822,-38,-26,24,1
622968,5935,-3984,-4775,-39,-22,25,1
622973,6300,-3987,-4520,-40,-5,26,1
622978,6438,-4039,-4233,-41,-15,26,1
622983,6242,-4078,-3865,-41,-22,29,1
622988,7029,-4053,-3707,-42,-9,28,1
622993,7745,-4107,-3467,-42,-5,28,1
622997,7150,-4191,-2950,-41,-30,29,1
623003,7420,-4171,-2840,-41,-40,31,1
623008,7717,-4116,-2602,-41,-12,31,1
623013,7887,-4215,-2320,-40,-25,30,1
623017,8066,-4219,-1920,-40,-23,31,1
623022,8833,-4165,-1599,-39,-20,29,1
623027,9009,-4194,-856,-39,-21,29,1
623032,8747,-4196,-197,-38,-33,31,1
623037,9154,-4144,-89,-35,-25,29,1
623042,9208,-4110,-64,-32,-9,30,1
623047,8636,-4185,-196,-27,-16,25,1
623052,8624,-4186,-243,-23,-6,21,1
623057,9186,-4182,-390,-22,9,18,1
623062,9012,-4226,-171,-21,1,17,1
623067,8858,-4209,220,-19,-8,16,1
623072,8867,-4141,814,-16,7,15,1
623077,9099,-4150,1295,-12,12,13,1
623082,9192,-4156,1745,-9,13,11,1
623087,9533,-4123,1961,-5,12,9,1
623092,9979,-4055,2055,-2,13,5,1
623097,10278,-3995,2124,1,8,2,1
623102,10392,-3935,1957,3,2,-1,1
623107,10416,-3866,1729,5,-2,-3,1
623112,10332,-3800,1299,7,-2,-5,1
623117,9968,-3742,870,7,-7,-6,1
623122,9649,-3670,746,9,-7,-8,1
623127,9427,-3582,784,11,-5,-9,1
623132,9528,-3500,608,13,-3,-11,1
623137,9509,-3457,712,15,-6,-13,1
623142,9254,-3404,801,19,-13,-15,1
623147,9020,-3351,611,22,-9,-16,1
623152,8875,-3353,207,24,-2,-18,1
623157,8510,-3368,117,26,-3,-20,1
623162,8328,-3356,-21,28,2,-21,1
623167,8434,-3376,-286,30,5,-23,1
623172,8259,-3419,-110,32,2,-25,1
623177,8120,-3450,-196,34,-1,-27,1
623182,8150,-3494,-436,36,6,-28,1
623187,8106,-3546,-766,37,4,-29,1
623192,7875,-3559,-680,38,3,-29,1
623197,7974,-3577,-973,39,5,-30,1
623202,7928,-3596,-918,41,7,-30,1
623207,8056,-3614,-1304,41,6,-32,1
623212,7823,-3637,-1209,43,5,-31,1
623217,7748,-3606,-1678,43,8,-32,1
623222,7840,-3601,-2191,43,13,-32,1
623227,7551,-3594,-2200,43,9,-32,1
623232,7283,-3555,-2180,45,8,-31,1
623237,7163,-3549,-2229,46,12,-32,1
623242,7046,-3575,-2508,47,13,-32,1
623247,6788,-3644,-2619,47,14,-32,1
623252,6391,-3677,-2863,48,9,-31,1
623257,6449,-3700,-3667,46,17,-33,1
623262,6134,-3741,-3936,47,12,-33,1
623267,5495,-3734,-4013,47,6,-33,1
623272,5222,-3720,-4572,47,7,-33,1
623277,4566,-3747,-4826,48,13,-33,1
623282,4207,-3793,-5081,47,8,-31,1
623287,3548,-3783,-5468,45,16,-27,1
623292,3534,-3852,-5777,48,26,-28,1
623297,3857,-3921,-5326,49,50,-26,1
623302,4721,-3944,-5387,43,34,-26,1
623307,4836,-4041,-5756,40,-1,-26,1
623312,4413,-4119,-5623,39,-23,-26,1
623317,4067,-4051,-6439,36,-19,-24,1
623321,3819,-4078,-7147,32,-14,-23,1
623326,3340,-4112,-7556,28,-19,-19,1
623331,3276,-4036,-7732,24,-18,-17,1
623336,3444,-3979,-7970,21,-14,-15,1
623342,3440,-3961,-8142,18,-23,-13,1
623346,3224,-3934,-8459,14,-25,-11,1
623351,2998,-3925,-8990,10,-21,-9,1
623356,2731,-3952,-9543,5,-16,-6,1
623361,2363,-3935,-10003,-1,-10,-3,1
623366,2211,-3925,-10064,-4,-5,0,1
623371,2464,-3941,-9686,-6,-2,2,1
623376,2945,-3945,-8944,-7,-5,3,1
623381,3372,-3963,-8462,-7,-16,2,1
623386,3465,-4012,-8384,-8,-24,2,1
623391,3182,-4098,-8711,-11,-25,3,1
623396,2827,-4171,-9017,-15,-21,5,1
623401,2574,-4232,-9051,-18,-13,8,1
623406,2473,-4299,-8727,-21,-15,11,1
623411,2802,-4316,-8350,-22,-12,12,1
623416,3128,-4321,-8066,-23,-15,13,1
623421,2779,-4346,-7985,-25,-23,15,1
623426,3207,-4346,-8266,-28,-15,15,1
623431,3336,-4345,-8379,-31,-9,17,1
623436,3293,-4323,-8339,-34,-23,18,1
623441,3003,-4256,-8025,-36,-19,22,1
623446,3225,-4224,-7788,-37,-11,24,1
623451,3575,-4207,-7637,-39,-8,25,1
623456,3827,-4153,-7552,-41,-11,27,1
623461,3800,-4080,-7453,-43,-11,29,1
623466,4350,-4069,-7542,-45,-8,30,1
623471,4475,-4030,-7375,-47,-5,32,1
623476,4567,-3961,-7131,-48,-12,32,1
623481,4968,-3938,-6943,-50,-8,34,1
623486,4752,-3895,-6459,-51,-4,36,1
623491,5195,-3892,-6339,-52,-12,36,1
623496,5049,-3896,-6012,-53,-2,39,1
623501,5306,-3926,-5839,-54,-13,39,1
623506,5563,-3941,-5652,-54,-8,41,1
623511,5822,-3942,-5356,-55,-14,41,1
623516,5687,-3958,-5024,-55,-22,42,1
623521,6100,-3968,-4845,-54,-19,43,1
623526,6278,-3997,-4563,-54,-16,44,1
623531,6698,-4048,-4315,-54,-26,43,1
623536,7063,-4070,-3994,-54,-27,44,1
623541,7259,-4132,-3547,-53,-34,43,1
623546,7528,-4195,-3088,-52,-41,44,1
623551,7940,-4257,-2298,-53,-34,44,1
623556,8512,-4322,-1907,-53,-42,44,1
623561,8990,-4441,-504,-51,-40,45,1
623566,9505,-4506,147,-54,-43,50,1
623571,9641,-4495,318,-48,-37,49,1
623576,10162,-4585,332,-42,-40,39,1
623581,9843,-4595,303,-40,-22,38,1
623586,8916,-4597,26,-39,-27,38,1
623591,8509,-4567,-314,-38,-19,39,1
623596,8351,-4551,-178,-37,1,38,1
623601,8692,-4544,336,-33,5,35,1
623606,9155,-4453,1020,-29,10,32,1
623611,9940,-4443,1333,-24,1,27,1
623616,9534,-4459,1718,-19,-2,25,1
623621,9784,-4488,1399,-16,-3,19,1
623626,10025,-4547,1275,-14,10,16,1
623631,10218,-4553,1422,-11,5,11,1
623636,10455,-4476,1807,-7,2,7,1
623641,10792,-4428,2296,-3,1,2,1
623646,10771,-4432,2538,2,-5,-1,1
623651,10386,-4418,2521,5,-8,-3,1
623656,9998,-4416,2145,7,-1,-5,1
623660,9731,-4428,1768,8,8,-6,1
623666,9800,-4391,1507,9,11,-7,1
623670,10028,-4342,1608,12,13,-9,1
623675,10251,-4305,1692,15,8,-12,1
623680,10316,-4269,1562,18,6,-15,1
623685,10211,-4266,922,18,6,-18,1
623690,9884,-4254,476,19,9,-19,1
623695,9592,-4210,358,20,13,-20,1
623700,9664,-4159,108,22,16,-22,1
623705,9558,-4121,468,25,14,-24,1
623710,9467,-4112,519,28,10,-26,1
623715,9353,-4101,373,31,15,-27,1
623720,9122,-4119,-125,31,18,-29,1
623725,8790,-4150,-286,33,19,-29,1
623730,8395,-4118,-427,34,20,-30,1
623735,8456,-4096,-682,35,24,-33,1
623740,8315,-4112,-580,38,21,-33,1
623745,8038,-4096,-444,40,16,-33,1
623750,8281,-4083,-1118,40,22,-36,1
623755,7911,-4124,-935,42,20,-35,1
623760,7676,-4103,-1413,43,14,-36,1
623765,7466,-4066,-1464,44,25,-37,1
623770,7297,-4049,-2093,44,18,-38,1
623775,7004,-4006,-2177,45,23,-38,1
623780,6691,-3956,-2592,46,19,-38,1
623785,6289,-3910,-2476,47,21,-38,1
623790,6166,-3875,-2838,48,20,-39,1
623795,6006,-3883,-2911,50,24,-39,1
623800,5964,-3856,-3301,50,16,-39,1
623805,5816,-3812,-3665,50,17,-38,1
623810,5707,-3799,-3992,50,15,-39,1
623815,5438,-3790,-4230,49,17,-38,1
623820,5126,-3789,-4451,49,13,-37,1
623825,5033,-3786,-5094,47,16,-36,1
623830,4548,-3783,-5439,47,16,-34,1
623835,4191,-3791,-5720,46,20,-34,1
623840,4042,-3815,-5863,47,32,-32,1
623845,4117,-3838,-6094,46,49,-32,1
623850,4470,-3923,-5800,46,52,-31,1
623855,4616,-3960,-5486,42,34,-28,1
623860,4787,-4062,-5511,40,8,-27,1
623865,4725,-4127,-5526,37,5,-26,1
623870,4755,-4197,-5979,34,-1,-25,1
623875,4292,-4264,-6015,32,0,-22,1
623880,4111,-4283,-6244,28,-2,-20,1
623885,4143,-4274,-6486,25,7,-18,1
623890,4229,-4268,-6584,22,8,-16,1
623895,4082,-4236,-6427,20,4,-14,1
623900,4137,-4193,-6445,17,7,-12,1
623905,4186,-4182,-6518,15,7,-10,1
623910,4197,-4174,-6678,12,7,-8,1
623915,4210,-4147,-6890,10,8,-6,1
623920,4296,-4111,-7196,6,12,-5,1
623925,4389,-4087,-7328,3,14,-3,1
623930,4392,-4038,-7332,1,12,-2,1
623935,4389,-3983,-7270,-1,11,-1,1
623940,4359,-3956,-7192,-3,11,1,1
623945,4234,-3922,-7233,-4,13,2,1
623950,4235,-3895,-7106,-6,15,4,1
623955,4437,-3880,-6719,-6,17,4,1
623960,4816,-3875,-6158,-5,17,4,1
623965,5189,-3880,-5663,-4,10,3,1
623970,5398,-3888,-5321,-4,0,1,1
623975,5413,-3901,-5163,-3,-4,0,1
623980,5330,-3920,-5105,-3,-7,0,1
623984,5239,-3927,-4984,-4,-8,0,1
623990,5235,-3922,-4774,-3,-10,0,1
623995,5328,-3909,-4505,-3,-12,1,1
623999,5485,-3892,-4240,-2,-13,0,1
624005,5632,-3866,-4077,-1,-15,0,1
624010,5779,-3832,-4033,-1,-16,0,1
624014,5898,-3791,-4012,-1,-16,-1,1
624019,6017,-3734,-3990,-1,-16,-1,1
624024,6155,-3668,-3929,-1,-15,-1,1
624029,6260,-3602,-3824,0,-14,-1,1
624034,6351,-3533,-3715,0,-15,-2,1
624039,6423,-3465,-3644,1,-16,-2,1
624044,6451,-3403,-3603,1,-17,-2,1
624049,6497,-3347,-3584,2,-19,-3,1
624054,6550,-3309,-3569,2,-20,-3,1
624059,6559,-3294,-3556,2,-22,-3,1
624064,6539,-3294,-3555,2,-25,-4,1
624069,6484,-3294,-3551,2,-27,-4,1
624074,6420,-3295,-3543,2,-28,-4,1
624079,6375,-3298,-3524,2,-30,-4,1
624084,6361,-3302,-3493,2,-32,-4,1
624089,6357,-3301,-3434,2,-37,-4,1
624094,6370,-3301,-3369,2,-44,-4,1
624099,6354,-3304,-3314,2,-51,-5,1
624104,6333,-3295,-3285,2,-60,-5,1
624109,6311,-3258,-3262,2,-70,-5,1
624114,6292,-3184,-3241,2,-81,-6,1
624119,6273,-3093,-3197,2,-97,-7,1
624124,6350,-3004,-3007,1,-118,-7,1
624129,6453,-2965,-2805,1,-155,-9,1
624134,6503,-2981,-2680,0,-190,-10,1
624139,6472,-3030,-2662,0,-208,-11,1
624144,6371,-3079,-2775,1,-215,-12,1
624149,6230,-3129,-2962,0,-215,-12,1
624154,6105,-3196,-3132,0,-211,-12,1
624159,5982,-3284,-3314,-1,-203,-11,1
624164,5848,-3401,-3509,-1,-189,-11,1
624169,5715,-3539,-3721,-1,-167,-10,1
624174,5575,-3689,-3949,-1,-142,-9,1
624179,5482,-3831,-4165,-1,-117,-8,1
624184,5464,-3965,-4340,-1,-96,-6,1
624189,5480,-4041,-4532,-1,-78,-5,1
624194,5486,-4056,-4810,0,-63,-4,1
624199,5466,-4055,-5056,0,-47,-4,1
624204,5422,-4031,-5242,0,-34,-3,1
624209,5383,-3973,-5363,0,-27,-3,1
624214,5279,-3882,-5403,-1,-28,-3,1
624219,5122,-3775,-5433,-1,-30,-3,1
624224,4995,-3682,-5438,0,-30,-2,1
624229,4916,-3641,-5418,1,-35,-3,1
624234,4868,-3611,-5417,1,-48,-3,1
624239,4893,-3565,-5373,1,-62,-3,1
624244,4932,-3489,-5331,1,-77,-4,1
624249,4987,-3401,-5301,1,-93,-4,1
624254,5033,-3346,-5262,0,-104,-5,1
624259,5075,-3350,-5257,0,-111,-5,1
624264,5131,-3389,-5312,0,-121,-6,1
624269,5134,-3456,-5374,1,-135,-6,1
624274,5075,-3542,-5381,1,-143,-6,1
624279,4990,-3619,-5423,0,-142,-6,1
624284,4855,-3674,-5423,0,-134,-6,1
624289,4698,-3708,-5383,0,-125,-5,1
624294,4554,-3717,-5332,0,-118,-5,1
624299,4418,-3729,-5280,0,-113,-4,1
624304,4316,-3771,-5229,0,-109,-3,1
624309,4250,-3790,-5218,0,-106,-3,1
624313,4188,-3807,-5243,0,-104,-3,1
624319,4125,-3821,-5319,-1,-100,-2,1
624324,4057,-3845,-5382,-1,-93,-2,1
624329,3957,-3937,-5429,-1,-84,-2,1
624333,3874,-4029,-5490,-1,-72,-1,1
624338,3770,-4057,-5526,-1,-60,0,1
624343,3658,-4019,-5550,-1,-56,0,1
624348,3567,-3955,-5608,-1,-61,0,1
624353,3567,-3892,-5644,0,-75,-1,1
624358,3634,-3822,-5684,0,-95,-1,1
624363,3698,-3806,-5803,1,-125,-2,1
624368,3689,-3876,-5938,1,-148,-2,1
624373,3708,-3943,-6137,1,-157,-2,1
624378,3646,-4023,-6316,2,-157,-2,1
624383,3506,-4138,-6287,1,-160,-4,1
624388,3387,-4228,-6216,0,-167,-5,1
624393,3337,-4261,-6094,1,-182,-6,1
624398,3365,-4260,-5740,1,-204,-6,1
624403,3259,-4243,-5455,1,-227,-4,1
624408,2925,-4216,-5595,2,-234,-3,1
624413,2083,-4274,-6101,4,-216,-6,1
624418,1318,-4389,-6425,5,-176,-9,1
624423,848,-4504,-6400,5,-105,-8,1
