millis,ax,ay,az,gx,gy,gz,label
222207,733,-8258,-707,0,0,-2,0
222212,733,-8255,-693,0,0,-2,1
222217,736,-8253,-678,0,1,-2,1
222222,742,-8254,-663,0,1,-2,1
222227,748,-8259,-647,0,1,-2,1
222232,756,-8259,-629,0,2,-2,1
222237,763,-8259,-605,0,2,-2,1
222242,768,-8257,-590,0,2,-2,1
222247,774,-8257,-569,0,2,-2,1
222252,778,-8258,-552,0,2,-2,1
222257,787,-8256,-530,0,2,-2,1
222262,798,-8256,-504,0,2,-2,1
222267,809,-8252,-480,0,3,-2,1
222272,822,-8254,-452,0,3,-2,1
222277,838,-8254,-420,0,3,-2,1
222282,853,-8252,-395,0,2,-2,1
222287,865,-8253,-368,0,1,-2,1
222292,874,-8251,-344,0,0,-2,1
222297,875,-8255,-323,0,0,-2,1
222302,871,-8258,-316,0,-1,-2,1
222307,866,-8260,-308,0,-1,-1,1
222312,861,-8260,-301,0,-1,-1,1
222317,856,-8260,-294,0,-1,-2,1
222322,852,-8257,-290,0,-1,-1,1
222327,850,-8253,-286,0,-1,-1,1
222332,849,-8255,-283,0,-1,-1,1
222337,853,-8255,-278,-1,-1,-1,1
222342,854,-8256,-271,-1,-1,-1,1
222347,854,-8256,-267,-1,-1,-1,1
222352,854,-8257,-258,-1,-1,-1,1
222357,853,-8255,-247,-1,-1,-1,1
222362,848,-8253,-239,-1,-1,-1,1
222367,840,-8252,-233,-1,-1,-1,1
222372,833,-8254,-225,-1,-2,-1,1
222377,825,-8254,-220,-1,-2,-1,1
222382,814,-8256,-220,-1,-2,-1,1
222387,800,-8257,-224,-1,-3,-1,1
222392,786,-8259,-229,-1,-3,-1,1
222397,772,-8255,-239,-1,-3,-1,1
222402,752,-8256,-251,-1,-4,-1,1
222407,729,-8258,-260,-1,-4,-1,1
222412,704,-8260,-273,-1,-4,-1,1
222417,682,-8262,-288,-1,-4,-1,1
222422,660,-8262,-301,-1,-3,-1,1
222427,641,-8263,-315,-1,-3,-2,1
222432,623,-8262,-328,-1,-3,-2,1
222437,611,-8259,-345,-1,-3,-2,1
222442,604,-8259,-356,-1,-2,-2,1
222447,596,-8258,-362,-2,-2,-2,1
222452,586,-8262,-368,-2,-3,-2,1
222457,575,-8261,-377,-2,-3,-2,1
222462,560,-8264,-381,-2,-3,-2,1
222467,548,-8265,-391,-2,-3,-2,1
222472,538,-8266,-393,-1,-3,-2,1
222477,523,-8265,-409,-2,-2,-2,1
222482,524,-8267,-421,-2,-1,-2,1
222487,525,-8270,-438,-2,-2,-2,1
222492,523,-8266,-448,-2,-3,-2,1
222497,525,-8266,-457,-2,-2,-2,1
222502,530,-8267,-467,-1,-2,-3,1
222507,541,-8267,-480,-1,-1,-3,1
222512,546,-8267,-502,-1,-2,-3,1
222517,557,-8267,-513,-1,-1,-3,1
222522,568,-8265,-520,-1,0,-3,1
222527,575,-8262,-522,-1,0,-3,1
222532,596,-8262,-519,-1,1,-3,1
222537,618,-8260,-517,-1,1,-3,1
222542,639,-8259,-513,-1,1,-3,1
222547,664,-8256,-506,-1,1,-3,1
222552,685,-8256,-503,-1,1,-3,1
222557,708,-8254,-493,-1,1,-3,1
222562,726,-8255,-486,-1,1,-3,1
222567,741,-8252,-485,-1,1,-3,1
222572,757,-8252,-488,-1,2,-3,1
222577,774,-8252,-502,-1,2,-3,1
222582,795,-8251,-512,-1,3,-3,1
222587,815,-8252,-529,-1,3,-3,1
222592,833,-8254,-546,-1,3,-3,1
222597,853,-8255,-568,-1,3,-2,1
222602,873,-8254,-591,-1,3,-2,1
222607,893,-8254,-609,-1,4,-2,1
222612,914,-8253,-628,-1,4,-2,1
222617,941,-8251,-639,-1,5,-2,1
222622,998,-8252,-629,-1,4,-2,1
222627,1051,-8254,-636,-1,2,-2,1
222632,1076,-8252,-625,-1,-2,-2,1
222637,1073,-8251,-638,0,-4,-2,1
222642,1045,-8251,-642,0,-5,-2,1
222647,1011,-8252,-645,0,-4,-2,1
222652,968,-8255,-650,0,-4,-2,1
222657,930,-8256,-643,0,-3,-2,1
222662,884,-8254,-635,0,-2,-1,1
222667,846,-8254,-617,0,-2,-1,1
222672,818,-8254,-592,0,-1,-1,1
222677,796,-8256,-572,0,0,-2,1
222682,789,-8256,-553,0,0,-2,1
222687,777,-8258,-545,0,-1,-2,1
222692,762,-8259,-540,0,-2,-2,1
222697,749,-8260,-535,0,-4,-2,1
222702,738,-8259,-530,0,-4,-2,1
222707,725,-8257,-523,0,-5,-2,1
222712,724,-8258,-529,0,-4,-2,1
222717,744,-8257,-541,0,-3,-2,1
222722,791,-8254,-557,0,-2,-2,1
222727,853,-8252,-577,0,0,-2,1
222732,918,-8255,-596,0,0,-2,1
222737,977,-8256,-610,0,0,-1,1
222742,1031,-8256,-618,0,2,-1,1
222747,1075,-8256,-619,0,3,-1,1
222752,1121,-8255,-636,0,4,-1,1
222757,1163,-8255,-659,1,5,-1,1
222762,1203,-8252,-681,1,3,-1,1
222767,1221,-8251,-693,1,0,0,1
222772,1194,-8250,-691,1,-4,0,1
222777,1137,-8250,-674,1,-5,0,1
222782,1061,-8251,-646,1,-4,0,1
222787,983,-8252,-608,1,-1,0,1
222792,911,-8256,-560,1,1,0,1
222797,842,-8256,-510,1,2,0,1
222802,775,-8258,-443,1,3,0,1
222807,708,-8257,-368,0,4,0,1
222812,643,-8255,-281,0,6,-1,1
222817,587,-8256,-203,0,8,-1,1
222822,536,-8260,-125,0,8,-1,1
222827,492,-8261,-58,0,7,-1,1
222832,452,-8262,-8,0,6,-1,1
222837,418,-8268,37,-1,6,-1,1
222842,394,-8267,77,-1,6,-2,1
222847,387,-8265,112,-1,5,-2,1
222852,391,-8264,145,-1,4,-2,1
222857,401,-8263,168,-1,3,-2,1
222862,420,-8263,171,-1,1,-2,1
222867,441,-8264,159,-1,-1,-2,1
222872,457,-8266,139,-2,-3,-2,1
222877,476,-8266,120,-2,-4,-2,1
222882,494,-8265,94,-2,-4,-2,1
222887,514,-8265,70,-2,-4,-2,1
222892,527,-8267,32,-2,-4,-2,1
222897,538,-8265,-12,-2,-4,-2,1
222902,541,-8264,-50,-2,-5,-2,1
222907,535,-8262,-94,-2,-5,-3,1
222912,522,-8262,-139,-2,-6,-3,1
222917,505,-8264,-183,-2,-6,-3,1
222922,485,-8267,-231,-2,-6,-3,1
222927,468,-8272,-266,-2,-6,-3,1
222932,447,-8274,-299,-2,-6,-3,1
222937,427,-8277,-325,-2,-6,-3,1
222942,409,-8277,-344,-2,-7,-3,1
222947,389,-8278,-355,-2,-7,-4,1
222952,372,-8275,-363,-2,-7,-4,1
222957,367,-8275,-366,-2,-7,-4,1
222962,374,-8275,-362,-2,-7,-4,1
222967,392,-8273,-352,-2,-7,-4,1
222972,412,-8272,-342,-2,-8,-4,1
222977,440,-8271,-328,-2,-9,-4,1
222982,466,-8271,-315,-2,-9,-4,1
222987,500,-8271,-305,-2,-10,-4,1
222992,534,-8269,-295,-2,-11,-4,1
222997,575,-8268,-290,-2,-12,-4,1
223002,617,-8266,-286,-2,-12,-4,1
223007,659,-8266,-293,-2,-13,-4,1
223012,701,-8264,-303,-2,-14,-4,1
223017,740,-8263,-310,-2,-15,-4,1
223022,790,-8263,-312,-2,-16,-4,1
223027,846,-8260,-326,-2,-17,-4,1
223032,902,-8258,-338,-2,-18,-4,1
223037,953,-8261,-348,-2,-19,-4,1
223042,997,-8259,-362,-2,-19,-4,1
223047,1039,-8258,-369,-2,-20,-4,1
223052,1065,-8257,-366,-2,-21,-3,1
223057,1085,-8256,-372,-2,-21,-3,1
223062,1098,-8254,-382,-2,-21,-3,1
223067,1108,-8251,-392,-2,-19,-3,1
223072,1124,-8248,-411,-2,-18,-3,1
223077,1141,-8247,-435,-2,-18,-3,1
223082,1159,-8247,-451,-2,-18,-3,1
223087,1177,-8247,-472,-2,-18,-3,1
223091,1189,-8248,-497,-2,-18,-2,1
223096,1187,-8245,-529,-2,-18,-2,1
223102,1180,-8246,-570,-2,-17,-2,1
223106,1173,-8249,-609,-2,-17,-2,1
223111,1170,-8249,-639,-2,-16,-2,1
223117,1170,-8248,-668,-2,-16,-2,1
223122,1165,-8251,-688,-2,-14,-2,1
223127,1162,-8251,-697,-2,-12,-2,1
223132,1166,-8250,-704,-2,-10,-1,1
223136,1179,-8248,-696,-2,-9,-1,1
223141,1197,-8249,-679,-2,-8,-1,1
223147,1203,-8249,-678,-2,-9,-1,1
223151,1177,-8248,-685,-1,-10,-1,1
223156,1129,-8246,-699,-1,-9,-1,1
223162,1068,-8248,-715,-1,-8,-1,1
223166,1023,-8253,-729,-1,-6,-1,1
223172,985,-8257,-752,-1,-5,-1,1
223177,960,-8258,-781,-1,-4,-1,1
223182,939,-8261,-810,-1,-3,-1,1
223187,921,-8258,-836,-1,-3,-1,1
223192,904,-8257,-853,-1,-3,-1,1
223197,881,-8256,-868,-1,-3,-1,1
223201,860,-8254,-872,0,-3,-1,1
223206,836,-8256,-862,0,-2,-1,1
223211,815,-8256,-841,0,-1,-1,1
223216,795,-8254,-813,0,0,-1,1
223221,778,-8255,-771,0,1,-1,1
223227,758,-8255,-722,0,2,-1,1
223232,731,-8255,-671,0,2,-1,1
223236,700,-8258,-616,0,2,-1,1
223241,661,-8260,-569,0,2,-1,1
223246,620,-8262,-526,0,3,-1,1
223251,581,-8263,-477,0,3,-1,1
223256,546,-8265,-439,0,4,-1,1
223261,523,-8267,-404,-1,5,-1,1
223266,509,-8267,-370,-1,7,-2,1
223271,508,-8264,-333,-1,8,-2,1
223276,507,-8262,-306,-1,9,-2,1
223281,511,-8260,-276,-1,9,-2,1
223286,522,-8257,-243,-1,9,-2,1
223291,535,-8255,-216,-1,9,-2,1
223296,547,-8253,-195,-1,7,-2,1
223301,560,-8253,-167,-1,6,-2,1
223306,578,-8254,-141,-2,4,-2,1
223311,594,-8253,-119,-2,2,-2,1
223316,599,-8253,-96,-2,0,-2,1
223321,600,-8254,-85,-2,-2,-2,1
223326,592,-8254,-73,-2,-2,-2,1
223331,587,-8254,-66,-2,-2,-2,1
223336,585,-8256,-62,-2,-2,-2,1
223341,588,-8256,-62,-2,-2,-2,1
223346,599,-8258,-64,-2,-1,-2,1
223351,616,-8261,-66,-3,-1,-3,1
223356,633,-8262,-74,-3,-2,-3,1
223361,640,-8260,-87,-3,-2,-3,1
223366,648,-8259,-109,-3,-2,-3,1
223371,657,-8258,-127,-3,-2,-3,1
223376,663,-8259,-147,-3,-2,-3,1
223381,666,-8261,-168,-3,-2,-3,1
223386,676,-8262,-178,-3,-2,-3,1
223391,693,-8261,-184,-3,-1,-3,1
223396,707,-8262,-184,-3,-2,-3,1
223401,704,-8261,-183,-3,-3,-3,1
223406,702,-8263,-186,-3,-3,-3,1
223411,702,-8263,-184,-3,-3,-3,1
223416,705,-8260,-185,-4,-2,-3,1
223421,720,-8259,-185,-4,-2,-3,1
223426,731,-8259,-189,-4,-2,-3,1
223431,741,-8261,-196,-4,-3,-3,1
223436,746,-8262,-208,-4,-3,-3,1
223441,758,-8260,-221,-4,-4,-3,1
223446,771,-8259,-242,-4,-5,-3,1
223451,777,-8256,-279,-4,-6,-3,1
223456,784,-8251,-315,-4,-8,-3,1
223461,791,-8249,-359,-4,-8,-3,1
223466,808,-8251,-398,-4,-8,-3,1
223471,825,-8251,-442,-4,-8,-3,1
223476,840,-8251,-490,-4,-8,-3,1
223481,855,-8251,-533,-4,-8,-3,1
223486,866,-8253,-579,-4,-8,-3,1
223491,878,-8250,-627,-4,-8,-2,1
223496,891,-8247,-674,-3,-8,-2,1
223501,905,-8244,-714,-3,-7,-2,1
223506,919,-8244,-747,-3,-6,-2,1
223511,926,-8243,-779,-3,-6,-2,1
223516,933,-8245,-800,-3,-5,-2,1
223521,938,-8246,-817,-3,-3,-2,1
223526,946,-8243,-826,-3,-2,-2,1
223531,959,-8237,-836,-3,-2,-2,1
223536,971,-8234,-846,-3,-2,-2,1
223541,982,-8234,-853,-2,-2,-2,1
223546,994,-8240,-866,-2,-1,-2,1
223551,999,-8242,-872,-2,-1,-2,1
223556,995,-8241,-879,-2,-2,-2,1
223561,986,-8243,-885,-2,-3,-2,1
223566,975,-8246,-887,-2,-4,-2,1
223571,969,-8249,-879,-2,-3,-1,1
223576,967,-8247,-868,-2,-2,-1,1
223581,972,-8250,-866,-2,-2,-1,1
223586,976,-8250,-863,-2,-2,-1,1
223591,982,-8249,-861,-2,-1,-1,1
223596,979,-8247,-851,-2,0,-1,1
223601,969,-8245,-839,-2,0,-1,1
223606,943,-8249,-828,-1,-1,-1,1
223611,909,-8252,-820,-1,-5,-1,1
223616,879,-8253,-821,-1,-8,-1,1
223621,871,-8255,-823,-1,-13,-1,1
223626,879,-8256,-808,-1,-18,-1,1
223631,885,-8255,-783,-1,-23,-1,1
223636,865,-8254,-756,-1,-26,-1,1
223641,825,-8252,-742,-1,-28,-1,1
223646,767,-8252,-733,0,-28,-1,1
223651,708,-8254,-738,0,-28,-1,1
223656,660,-8257,-742,0,-28,-1,1
223661,627,-8258,-740,0,-27,-1,1
223666,608,-8257,-732,-1,-25,-1,1
223671,600,-8258,-710,-1,-22,-2,1
223676,591,-8258,-689,-1,-20,-2,1
223681,579,-8256,-669,-1,-19,-2,1
223686,563,-8255,-657,0,-18,-2,1
223691,545,-8254,-643,0,-18,-2,1
223696,535,-8254,-633,0,-16,-2,1
223701,532,-8257,-627,0,-14,-2,1
223706,537,-8256,-612,-1,-12,-2,1
223711,546,-8256,-589,-1,-10,-2,1
223716,546,-8259,-565,-1,-9,-2,1
223721,543,-8261,-538,-1,-8,-2,1
223726,536,-8261,-519,-1,-6,-2,1
223731,542,-8260,-502,-1,-5,-2,1
223736,558,-8260,-491,-1,-4,-2,1
223741,577,-8260,-492,-1,-3,-2,1
223746,597,-8259,-501,-1,-2,-2,1
223751,616,-8258,-503,-1,-2,-2,1
223756,627,-8260,-504,-1,-2,-3,1
223761,634,-8259,-496,-1,-1,-3,1
223766,639,-8260,-493,-1,-1,-3,1
223771,646,-8261,-489,-1,-1,-2,1
223776,660,-8258,-494,-1,0,-2,1
223781,678,-8258,-497,-1,0,-2,1
223786,700,-8256,-504,-1,0,-3,1
223791,723,-8255,-501,-1,0,-3,1
223796,741,-8255,-490,-1,0,-3,1
223801,756,-8254,-472,-1,0,-3,1
223806,773,-8251,-456,-1,-1,-2,1
223811,789,-8250,-447,-1,-2,-2,1
223816,812,-8251,-445,-1,-2,-2,1
223821,839,-8251,-449,-1,-2,-2,1
223826,869,-8252,-456,-1,-2,-2,1
223831,900,-8253,-467,-1,-2,-2,1
223836,924,-8251,-485,-2,-2,-2,1
223841,947,-8251,-498,-2,-2,-2,1
223846,966,-8247,-509,-1,-2,-2,1
223851,982,-8245,-523,-1,-2,-2,1
223856,996,-8246,-538,-1,-2,-2,1
223861,1008,-8249,-549,-1,-2,-2,1
223866,1011,-8249,-556,-2,-2,-1,1
223871,1007,-8251,-559,-2,-1,-1,1
223876,996,-8252,-561,-2,-1,-1,1
223881,982,-8249,-555,-2,-1,-1,1
223886,968,-8247,-547,-2,-1,-1,1
223891,954,-8246,-541,-2,-1,-1,1
223896,939,-8249,-536,-2,-1,-1,1
223901,925,-8250,-529,-2,0,-1,1
223906,909,-8250,-524,-2,0,-1,1
223911,890,-8250,-515,-2,-1,-1,1
223916,866,-8252,-503,-2,-1,-1,1
223921,837,-8253,-490,-2,-1,-1,1
223926,805,-8252,-481,-2,-1,-1,1
223931,777,-8253,-471,-2,-1,-1,1
223936,747,-8251,-464,-2,-1,-1,1
223941,717,-8251,-456,-2,-1,-1,1
223946,684,-8253,-453,-2,-1,-1,1
223951,636,-8253,-457,-2,0,-1,1
223956,594,-8255,-444,-2,1,-1,1
223961,570,-8255,-432,-2,3,-2,1
223966,575,-8256,-416,-2,4,-2,1
223971,582,-8255,-413,-2,4,-2,1
223976,584,-8256,-410,-2,3,-2,1
223981,584,-8251,-404,-2,1,-2,1
223986,579,-8249,-404,-2,0,-2,1
223991,572,-8249,-397,-2,-1,-2,1
223996,563,-8249,-393,-2,-2,-2,1
224001,557,-8248,-394,-2,-2,-2,1
224006,551,-8248,-404,-3,-3,-2,1
224011,547,-8247,-413,-3,-3,-2,1
224016,546,-8244,-428,-3,-3,-2,1
224021,557,-8245,-450,-3,-2,-2,1
224026,571,-8244,-466,-3,-2,-2,1
224031,576,-8243,-482,-3,-3,-2,1
224036,573,-8246,-495,-3,-3,-2,1
224041,571,-8248,-502,-3,-3,-2,1
224046,573,-8250,-515,-3,-3,-2,1
224051,580,-8253,-518,-3,-2,-2,1
224056,589,-8250,-529,-3,-1,-3,1
224061,603,-8250,-535,-3,-1,-3,1
224066,618,-8251,-536,-3,-1,-3,1
224071,631,-8252,-535,-3,-1,-3,1
224076,643,-8253,-531,-3,-1,-3,1
224081,655,-8252,-526,-3,-1,-3,1
224086,672,-8249,-524,-3,-1,-3,1
224091,693,-8248,-527,-3,-2,-3,1
224096,717,-8248,-533,-3,-2,-3,1
224101,743,-8246,-547,-3,-2,-3,1
224106,767,-8245,-563,-3,-3,-3,1
224111,782,-8244,-574,-3,-3,-3,1
224116,792,-8243,-586,-3,-3,-3,1
224121,797,-8243,-597,-3,-3,-3,1
224126,808,-8243,-616,-3,-3,-2,1
224131,820,-8240,-636,-3,-3,-2,1
224136,837,-8240,-652,-3,-3,-2,1
224141,854,-8238,-663,-3,-3,-2,1
224146,869,-8239,-675,-3,-3,-2,1
224151,881,-8238,-682,-3,-3,-2,1
224156,888,-8237,-685,-3,-3,-2,1
224161,897,-8239,-694,-3,-2,-2,1
224166,908,-8241,-706,-3,-2,-2,1
224171,923,-8242,-719,-3,-2,-2,1
224176,937,-8240,-741,-3,-3,-2,1
224181,951,-8241,-763,-2,-3,-2,1
224186,959,-8239,-784,-2,-3,-2,1
224191,964,-8238,-801,-2,-3,-2,1
224196,964,-8240,-816,-2,-3,-2,1
224201,960,-8243,-838,-2,-3,-2,1
224206,956,-8242,-850,-2,-3,-2,1
224211,955,-8239,-867,-2,-3,-1,1
224216,954,-8240,-875,-2,-2,-1,1
224221,949,-8239,-884,-2,-2,-1,1
224226,944,-8239,-892,-2,-1,-1,1
224230,941,-8236,-895,-2,-1,-1,1
224236,932,-8236,-892,-2,-1,-1,1
224240,908,-8235,-888,-2,-1,-1,1
224246,869,-8235,-889,-2,-1,-1,1
224251,850,-8236,-880,-2,1,-1,1
224255,852,-8236,-871,-1,2,-1,1
224261,881,-8235,-854,-1,2,-1,1
224266,908,-8238,-845,-1,2,-1,1
224270,920,-8237,-836,-1,0,-1,1
224276,910,-8237,-829,-1,-2,-1,1
224280,882,-8235,-827,-1,-3,-1,1
224286,841,-8235,-823,-1,-2,-1,1
224290,793,-8238,-819,-1,0,-1,1
224296,782,-8242,-819,-1,1,-1,1
224301,785,-8242,-815,-1,2,-1,1
224305,785,-8242,-805,-1,1,-1,1
224310,777,-8244,-793,-1,0,-1,1
224316,750,-8247,-783,-1,0,-1,1
224320,724,-8246,-768,-1,0,-1,1
224325,689,-8245,-756,-1,0,-1,1
224331,654,-8247,-749,-1,0,-1,1
224335,613,-8249,-742,-1,-1,-1,1
224340,575,-8248,-735,-1,0,-1,1
224345,549,-8246,-714,-1,1,-1,1
224350,532,-8244,-695,-1,2,-2,1
224355,520,-8245,-672,-1,2,-2,1
224360,506,-8245,-652,-1,2,-2,1
224365,491,-8246,-642,-1,0,-2,1
224370,478,-8249,-633,-1,-1,-2,1
224375,465,-8250,-624,-1,-2,-2,1
224380,458,-8250,-614,-1,-2,-2,1
224385,460,-8249,-606,-1,-1,-2,1
224390,467,-8247,-597,-1,-1,-2,1
224395,480,-8243,-594,-1,-1,-2,1
224400,490,-8240,-588,-1,-2,-3,1
224405,495,-8241,-589,-1,-3,-3,1
224410,502,-8242,-593,-1,-3,-3,1
224415,514,-8243,-596,-1,-2,-3,1
224420,529,-8241,-607,-1,-2,-3,1
224425,550,-8240,-623,-1,-2,-3,1
224430,572,-8239,-631,-1,-2,-3,1
224435,594,-8241,-641,-1,-2,-3,1
224440,616,-8241,-644,-1,-1,-3,1
224445,640,-8241,-646,-1,-1,-3,1
224450,661,-8240,-653,-1,-1,-3,1
224455,688,-8238,-665,-1,-1,-3,1
224460,717,-8237,-675,-1,-1,-3,1
224465,746,-8237,-690,-1,-1,-3,1
224470,770,-8238,-700,-1,-2,-3,1
224475,789,-8238,-707,-1,-2,-3,1
224480,810,-8239,-723,-1,-2,-3,1
224485,826,-8240,-737,-1,-2,-3,1
224490,844,-8239,-749,-1,-3,-2,1
224495,861,-8238,-765,-1,-3,-2,1
224500,878,-8239,-779,-1,-2,-2,1
224505,894,-8241,-792,-1,-2,-2,1
224510,911,-8241,-809,-1,-2,-2,1
224515,925,-8241,-818,-1,-2,-2,1
224520,937,-8242,-822,-1,-2,-2,1
224525,946,-8243,-820,-1,-1,-2,1
224530,953,-8243,-820,-1,-1,-2,1
224535,961,-8244,-812,0,-1,-2,1
224540,966,-8244,-804,0,-1,-2,1
224545,971,-8242,-792,0,-1,-2,1
224550,972,-8242,-778,0,0,-2,1
224555,967,-8242,-767,0,0,-2,1
224560,960,-8241,-754,0,1,-2,1
224565,952,-8242,-740,0,1,-1,1
224570,943,-8244,-724,0,1,-1,1
224575,938,-8243,-707,0,2,-1,1
224580,933,-8247,-687,0,2,-1,1
224585,930,-8248,-668,0,2,-1,1
224590,923,-8246,-651,0,2,-1,1
224595,917,-8243,-628,-1,2,-1,1
224600,906,-8242,-608,-1,2,-1,1
224605,891,-8243,-586,-1,1,-1,1
224610,879,-8242,-571,-1,1,-1,1
224615,868,-8240,-553,-1,1,-1,1
224620,862,-8241,-531,-1,1,-1,1
224625,855,-8244,-507,-1,0,-1,1
224630,846,-8246,-486,-1,0,-1,1
224635,829,-8247,-464,-1,-1,-1,1
224640,808,-8248,-445,-1,-1,-1,1
224645,788,-8251,-427,-1,-2,-1,1
224650,770,-8249,-409,-1,-2,-1,1
224655,750,-8247,-394,-1,-2,-1,1
224660,733,-8246,-384,-1,-2,-1,1
224665,716,-8244,-379,-1,-2,-1,1
224670,701,-8243,-381,-2,-3,-1,1
224675,684,-8244,-388,-2,-3,-1,1
224680,665,-8247,-391,-2,-3,-1,1
224685,647,-8250,-392,-2,-3,-1,1
224690,629,-8251,-397,-2,-3,-1,1
224695,614,-8250,-401,-2,-3,-2,1
224700,600,-8249,-406,-2,-3,-2,1
224705,585,-8247,-412,-2,-3,-2,1
224710,568,-8248,-417,-2,-3,-2,1
224715,553,-8249,-416,-2,-3,-2,1
224720,537,-8249,-415,-2,-3,-2,1
224725,530,-8250,-411,-2,-3,-2,1
224730,519,-8250,-411,-2,-3,-2,1
224735,509,-8250,-410,-2,-3,-2,1
224740,499,-8250,-412,-2,-3,-2,1
224745,487,-8252,-415,-3,-4,-2,1
224750,484,-8255,-423,-3,-4,-2,1
224755,485,-8256,-432,-3,-5,-3,1
224760,490,-8254,-443,-3,-5,-3,1
224765,499,-8254,-459,-3,-6,-3,1
224770,512,-8254,-476,-3,-6,-3,1
224775,529,-8253,-499,-3,-7,-3,1
224780,545,-8250,-527,-3,-7,-3,1
224785,561,-8248,-549,-3,-7,-3,1
224790,578,-8244,-576,-3,-7,-3,1
224795,592,-8243,-598,-3,-7,-3,1
224800,610,-8242,-616,-3,-7,-3,1
224805,630,-8239,-641,-3,-6,-3,1
224810,655,-8239,-667,-3,-5,-3,1
224815,681,-8237,-689,-3,-5,-3,1
224820,710,-8236,-706,-3,-5,-3,1
224825,736,-8236,-722,-3,-5,-3,1
224830,761,-8236,-735,-2,-4,-3,1
224835,786,-8237,-749,-2,-4,-3,1
224840,810,-8237,-761,-2,-4,-3,1
224845,834,-8235,-780,-2,-5,-3,1
224850,856,-8232,-801,-2,-5,-3,1
224855,879,-8232,-816,-2,-5,-3,1
224860,899,-8233,-835,-2,-5,-3,1
224865,920,-8232,-854,-2,-4,-3,1
224870,936,-8232,-869,-2,-4,-2,1
224875,951,-8233,-879,-2,-4,-2,1
224880,959,-8233,-890,-2,-3,-2,1
224885,965,-8233,-899,-2,-3,-2,1
224890,969,-8234,-901,-2,-2,-2,1
224895,974,-8236,-905,-2,-2,-2,1
224900,977,-8235,-909,-2,-1,-2,1
224905,978,-8232,-907,-2,-1,-2,1
224910,978,-8232,-898,-1,-1,-2,1
224915,977,-8235,-890,-1,0,-2,1
224920,981,-8238,-882,-1,0,-2,1
224925,982,-8238,-876,-1,0,-2,1
224930,983,-8238,-865,-1,0,-2,1
224935,980,-8237,-863,-1,-1,-1,1
224940,978,-8236,-858,-1,-1,-1,1
224945,971,-8237,-857,-1,-1,-1,1
224950,963,-8233,-861,-1,-1,-1,1
224955,951,-8230,-864,-1,-1,-1,1
224960,941,-8231,-869,-1,-1,-1,1
224965,933,-8233,-867,-1,-1,-1,1
224970,924,-8237,-868,-1,-1,-1,1
224975,917,-8239,-874,-1,-1,-1,1
224980,913,-8240,-874,-1,-1,-1,1
224985,905,-8239,-870,-1,-1,-1,1
224990,892,-8237,-868,-1,-1,-1,1
224995,883,-8237,-864,-1,-1,-1,1
225000,870,-8236,-859,-1,0,-1,1
225005,857,-8236,-849,-1,0,-1,1
225010,849,-8237,-839,-1,1,-1,1
225015,844,-8236,-825,0,1,-1,1
225020,839,-8237,-810,-1,1,-1,1
225025,836,-8236,-798,-1,1,-1,1
225030,833,-8237,-783,0,1,-1,1
225035,827,-8240,-770,0,1,-1,1
225040,819,-8240,-762,0,1,-1,1
225045,804,-8242,-755,0,1,-1,1
225050,787,-8240,-752,0,1,-1,1
225055,765,-8242,-741,0,1,-1,1
225060,745,-8243,-734,0,1,-1,1
225065,728,-8242,-720,0,2,-1,1
225070,710,-8240,-713,0,2,-1,1
225075,687,-8241,-700,-1,2,-1,1
225080,667,-8241,-685,0,2,-1,1
225085,644,-8243,-665,0,2,-1,1
225090,619,-8243,-649,-1,2,-1,1
225095,594,-8243,-632,-1,2,-1,1
225100,567,-8247,-610,-1,2,-1,1
225105,545,-8249,-589,-1,2,-2,1
225110,525,-8249,-571,-1,2,-2,1
225115,512,-8249,-557,-1,1,-2,1
225120,499,-8248,-544,-1,1,-2,1
225125,490,-8248,-533,-1,0,-2,1
225130,485,-8246,-524,-1,0,-2,1
225135,485,-8246,-518,-1,-1,-2,1
225140,481,-8247,-515,-1,-1,-2,1
225145,482,-8249,-512,-1,-2,-2,1
225150,484,-8247,-512,-1,-2,-2,1
225155,492,-8243,-517,-1,-2,-2,1
225160,509,-8238,-522,-1,-1,-2,1
225165,528,-8237,-527,-1,-2,-2,1
225170,556,-8233,-533,-1,-2,-2,1
225175,579,-8235,-539,-1,-2,-2,1
225180,600,-8237,-543,-1,-2,-3,1
225185,619,-8237,-544,-1,-2,-3,1
225190,638,-8241,-551,-1,-2,-3,1
225195,658,-8244,-560,-1,-2,-3,1
225200,677,-8247,-568,-1,-1,-3,1
225205,694,-8246,-572,-1,-1,-2,1
225210,709,-8243,-576,-1,-1,-2,1
225215,722,-8240,-575,-1,-1,-2,1
225220,734,-8242,-571,-2,-1,-2,1
225225,746,-8245,-571,-2,-1,-3,1
225230,757,-8242,-577,-2,-1,-3,1
225235,766,-8241,-575,-2,-1,-2,1
225240,775,-8243,-575,-2,-1,-2,1
225245,780,-8247,-581,-2,-2,-2,1
225250,786,-8249,-586,-2,-2,-2,1
225255,788,-8244,-592,-2,-2,-2,1
225260,790,-8243,-596,-2,-2,-2,1
225265,794,-8243,-608,-2,-2,-2,1
225270,800,-8243,-619,-2,-2,-2,1
225275,812,-8243,-631,-2,-2,-2,1
225280,827,-8246,-640,-2,-2,-2,1
225285,835,-8243,-650,-2,-2,-2,1
225290,845,-8241,-656,-2,-2,-2,1
225295,858,-8239,-660,-2,-1,-2,1
225300,871,-8237,-665,-2,-1,-2,1
225305,887,-8240,-669,-2,-1,-2,1
225310,901,-8240,-667,-2,-2,-2,1
225315,912,-8240,-666,-2,-2,-2,1
225320,923,-8237,-671,-2,-2,-2,1
225325,931,-8235,-675,-2,-2,-2,1
225330,937,-8235,-682,-2,-2,-2,1
225335,941,-8236,-689,-2,-2,-2,1
225340,943,-8236,-696,-2,-3,-2,1
225345,939,-8234,-700,-2,-3,-2,1
225350,938,-8232,-706,-2,-2,-2,1
225355,934,-8234,-712,-2,-2,-2,1
225360,928,-8237,-721,-1,-2,-2,1
225365,919,-8240,-734,-1,-3,-1,1
225370,909,-8242,-747,-1,-3,-1,1
225375,895,-8243,-755,-1,-3,-1,1
225380,881,-8240,-764,-1,-3,-1,1
225385,870,-8240,-778,-1,-2,-1,1
225390,857,-8240,-790,-1,-2,-1,1
225395,852,-8240,-798,-1,-2,-1,1
225400,843,-8239,-804,-1,-2,-1,1
225404,833,-8237,-806,-1,-2,-1,1
225409,821,-8238,-808,-1,-2,-1,1
225414,811,-8239,-804,-1,-2,-1,1
225419,803,-8239,-801,-1,-2,-1,1
225424,796,-8243,-798,-1,-2,-1,1
225429,790,-8245,-798,-1,-2,-1,1
225435,783,-8247,-791,-1,-2,-1,1
225439,782,-8248,-790,-1,-1,-1,1
225445,776,-8247,-785,-1,-1,-1,1
225449,768,-8247,-781,-1,-1,-1,1
225454,761,-8246,-782,-1,-1,-1,1
225459,754,-8244,-778,-1,-1,-1,1
225465,745,-8242,-775,-1,-1,-1,1
225469,735,-8239,-769,-1,-1,-1,1
225475,723,-8237,-761,-1,-1,-1,1
225479,708,-8238,-755,-1,-1,-1,1
225485,692,-8238,-751,-1,-1,-1,1
225489,675,-8239,-745,-1,-1,-2,1
225495,656,-8239,-739,-1,-1,-2,1
225500,634,-8241,-735,-1,-1,-2,1
225504,613,-8239,-725,-1,-1,-2,1
225510,594,-8243,-717,-1,-1,-2,1
225515,582,-8248,-712,-1,-1,-2,1
225520,576,-8249,-704,-1,-2,-2,1
225525,571,-8249,-696,-1,-2,-2,1
225529,564,-8252,-686,-1,-2,-2,1
225534,563,-8252,-680,-1,-2,-2,1
225539,561,-8248,-671,-1,-2,-2,1
225544,567,-8244,-662,-1,-2,-2,1
225549,575,-8242,-656,-1,-2,-2,1
225554,582,-8240,-649,-1,-2,-2,1
225559,592,-8239,-641,-1,-2,-2,1
225564,599,-8240,-637,-1,-2,-2,1
225569,610,-8242,-630,-1,-2,-2,1
225574,614,-8240,-622,-1,-2,-2,1
225579,625,-8237,-622,-1,-1,-2,1
225584,659,-8235,-618,-1,-1,-2,1
225589,695,-8236,-612,-1,-2,-2,1
225594,707,-8238,-609,-1,-3,-2,1
225599,712,-8238,-615,-1,-3,-2,1
225604,719,-8239,-629,-1,-2,-2,1
225609,729,-8238,-648,-1,-2,-2,1
225614,742,-8237,-662,-1,-2,-2,1
225619,756,-8239,-672,-1,-1,-2,1
225624,770,-8238,-686,-1,0,-2,1
225629,793,-8236,-699,-1,1,-2,1
225634,829,-8237,-714,-1,1,-2,1
225639,870,-8239,-728,-1,1,-2,1
225644,908,-8238,-742,-1,0,-2,1
225649,937,-8234,-750,-1,0,-2,1
225654,954,-8233,-753,-1,0,-2,1
225659,959,-8232,-748,-1,0,-2,1
225664,961,-8231,-742,-1,1,-2,1
225669,961,-8232,-729,-1,1,-2,1
225674,960,-8233,-714,-1,2,-2,1
225679,958,-8235,-712,-1,2,-2,1
225684,952,-8234,-708,-1,2,-2,1
225689,948,-8237,-699,-1,2,-2,1
225694,944,-8239,-683,-1,2,-1,1
225699,941,-8236,-655,-1,3,-1,1
225704,939,-8239,-635,-1,3,-1,1
225709,931,-8241,-617,-1,3,-1,1
225714,924,-8244,-611,-1,2,-1,1
225719,911,-8245,-607,-1,1,-1,1
225724,896,-8244,-607,-1,1,-1,1
225729,881,-8244,-607,-1,1,-1,1
225734,864,-8243,-606,-1,1,-1,1
225739,843,-8244,-604,-1,0,-1,1
225744,818,-8246,-605,-1,0,-1,1
225749,797,-8245,-604,-1,-1,-1,1
225754,778,-8247,-607,-1,-1,-1,1
225759,762,-8247,-610,-1,-1,-1,1
225764,749,-8250,-609,-1,-1,-1,1
225769,737,-8251,-609,-1,-1,-1,1
225774,726,-8251,-610,-1,0,-1,1
225779,717,-8250,-601,-1,1,-1,1
225784,708,-8248,-589,-1,1,-1,1
225789,701,-8247,-573,-1,2,-1,1
225794,700,-8243,-566,-1,2,-1,1
225799,702,-8243,-565,-1,2,-2,1
225804,707,-8242,-571,-1,1,-1,1
225809,710,-8243,-575,-1,0,-2,1
225814,704,-8245,-581,-1,-1,-2,1
225819,695,-8245,-584,-1,-2,-2,1
225824,683,-8246,-590,-1,-3,-2,1
225829,667,-8247,-601,-1,-3,-2,1
225834,662,-8247,-618,-1,-3,-2,1
225839,654,-8249,-628,-1,-4,-2,1
225844,642,-8249,-647,-1,-3,-2,1
225849,639,-8250,-650,-1,-2,-2,1
225854,632,-8248,-661,-1,-1,-2,1
225859,633,-8248,-666,-1,-1,-2,1
225864,630,-8249,-674,-1,-1,-2,1
225869,641,-8250,-672,-1,-1,-2,1
225874,663,-8253,-668,-1,-1,-2,1
225879,681,-8256,-674,-1,-1,-2,1
225884,700,-8255,-673,-1,-2,-2,1
225889,708,-8252,-679,-1,-3,-2,1
225894,713,-8250,-680,-1,-3,-2,1
225899,718,-8250,-685,-1,-3,-2,1
225904,724,-8249,-694,-1,-2,-2,1
225909,734,-8246,-699,-1,-2,-2,1
225914,743,-8242,-702,-1,-2,-2,1
225919,754,-8240,-715,-1,-2,-2,1
225924,766,-8238,-727,-1,-2,-2,1
225929,772,-8238,-733,-1,-1,-2,1
225934,778,-8239,-739,-1,-1,-2,1
225939,775,-8239,-742,-1,-2,-2,1
225944,767,-8239,-736,-1,-1,-2,1
225949,762,-8240,-728,-1,-1,-2,1
225954,759,-8241,-720,-1,-1,-2,1
225959,753,-8243,-712,-1,-1,-2,1
225964,744,-8241,-702,-1,-2,-2,1
225969,734,-8242,-697,-1,-2,-2,1
225974,725,-8245,-693,-1,-2,-2,1
225979,714,-8245,-689,-1,-2,-2,1
225984,701,-8243,-683,-1,-2,-2,1
225989,693,-8245,-682,-1,-2,-2,1
225994,695,-8247,-685,-1,-2,-2,1
225999,699,-8247,-682,-1,-2,-2,1
226004,706,-8247,-681,-1,-2,-2,1
226009,713,-8246,-676,-1,-2,-2,1
226014,720,-8248,-672,-1,-1,-2,1
226019,729,-8245,-663,-1,-1,-2,1
226024,740,-8244,-652,-1,-1,-2,1
226029,753,-8243,-638,-1,-1,-2,1
226034,766,-8241,-618,-1,-1,-2,1
226039,779,-8239,-601,-1,0,-2,1
226044,789,-8238,-582,-1,0,-2,1
226049,798,-8240,-559,-1,0,-2,1
226054,803,-8243,-540,-1,0,-2,1
226059,807,-8242,-522,-1,0,-2,1
226064,811,-8243,-506,-2,0,-2,1
226069,813,-8243,-499,-2,-1,-2,1
226074,811,-8240,-496,-2,-1,-2,1
226079,805,-8237,-504,-2,-1,-2,1
226084,801,-8234,-516,-2,-1,-2,1
226089,794,-8234,-527,-2,-1,-2,1
226094,785,-8235,-535,-2,-2,-2,1
226099,775,-8234,-551,-2,-2,-2,1
226104,762,-8236,-565,-2,-2,-2,1
226109,756,-8238,-581,-2,-1,-2,1
226114,757,-8241,-598,-2,-1,-2,1
226119,765,-8243,-606,-2,-1,-2,1
226124,772,-8243,-615,-2,-1,-2,1
226129,771,-8245,-622,-2,-1,-2,1
226134,757,-8245,-625,-2,-2,-2,1
226139,730,-8243,-638,-2,-2,-2,1
226144,737,-8242,-630,-2,-1,-2,1
226149,739,-8242,-634,-2,0,-2,1
226154,751,-8242,-634,-2,0,-2,1
226159,768,-8244,-640,-2,1,-2,1
226164,788,-8244,-653,-2,0,-2,1
226169,814,-8245,-660,-2,-1,-2,1
226174,819,-8245,-680,-2,-1,-2,1
226179,823,-8244,-689,-2,-2,-2,1
226184,815,-8242,-706,-2,-2,-2,1
226189,810,-8240,-732,-2,-3,-2,1
226194,808,-8242,-747,-2,-3,-2,1
226199,802,-8240,-770,-2,-2,-2,1
226204,808,-8239,-774,-2,-2,-2,1
226209,810,-8241,-783,-2,-1,-2,1
226214,818,-8241,-787,-2,-1,-2,1
226219,826,-8241,-789,-1,-2,-2,1
226224,824,-8242,-794,-1,-2,-2,1
226229,825,-8244,-800,-1,-2,-2,1
226234,819,-8242,-810,-1,-3,-2,1
226239,819,-8241,-811,-1,-3,-2,1
226244,818,-8237,-815,-1,-2,-2,1
226249,816,-8238,-818,-1,-2,-2,1
226254,817,-8239,-816,-1,-2,-2,1
226259,814,-8239,-820,-1,-2,-2,1
226264,812,-8239,-826,-1,-2,-2,1
226269,806,-8242,-825,-1,-2,-2,1
226274,799,-8242,-830,-1,-2,-2,1
226279,790,-8240,-836,-1,-2,-2,1
226284,782,-8238,-841,-1,-1,-2,1
226289,781,-8238,-836,-1,-1,-2,1
226294,780,-8239,-830,-1,-1,-2,1
226299,780,-8238,-824,-1,-1,-2,1
226304,780,-8236,-812,-1,-1,-2,1
226309,781,-8234,-796,-1,-2,-2,1
226314,780,-8233,-791,-1,-2,-2,1
226319,776,-8234,-787,-1,-2,-2,1
226324,774,-8235,-786,-1,-2,-2,1
226329,772,-8235,-786,-1,-2,-2,1
226334,775,-8237,-794,-1,-2,-2,1
226339,776,-8240,-798,-1,-2,-2,1
226344,779,-8243,-797,-1,-2,-2,1
226349,782,-8245,-800,-1,-1,-2,1
226354,784,-8244,-810,0,-1,-2,1
226359,790,-8242,-820,0,-1,-2,1
226364,791,-8242,-825,0,-1,-2,1
226369,795,-8242,-824,0,0,-2,1
226374,801,-8243,-820,0,0,-2,1
226379,805,-8242,-811,0,0,-2,1
226384,806,-8241,-805,0,1,-2,1
226389,812,-8241,-794,0,1,-1,1
226394,816,-8240,-784,0,1,-1,1
226399,815,-8240,-774,0,2,-2,1
226404,819,-8241,-769,0,2,-1,1
226409,797,-8243,-776,0,2,-1,1
226414,780,-8241,-768,0,2,-1,1
226419,780,-8239,-759,0,4,-1,1
226424,800,-8240,-747,0,4,-1,1
226429,824,-8239,-741,0,4,-1,1
226434,832,-8238,-749,0,3,-1,1
226439,835,-8238,-746,0,2,-1,1
226444,824,-8239,-752,0,1,-1,1
226449,821,-8236,-748,0,0,-1,1
226454,808,-8232,-739,0,0,-1,1
226459,791,-8231,-736,0,0,-1,1
226464,776,-8232,-732,0,0,-1,1
226469,757,-8236,-727,0,0,-1,1
226474,752,-8241,-713,0,0,-1,1
226479,746,-8243,-705,0,1,-1,1
226484,736,-8243,-693,0,1,-1,1
226489,723,-8239,-687,0,1,-2,1
226494,716,-8236,-685,0,1,-2,1
226499,711,-8237,-676,0,0,-1,1
226504,706,-8241,-673,0,0,-2,1
226509,702,-8241,-668,0,0,-1,1
226514,701,-8241,-660,0,0,-2,1
226519,704,-8243,-653,0,0,-2,1
226524,710,-8243,-637,0,1,-2,1
226529,717,-8243,-625,0,0,-2,1
226534,723,-8241,-607,0,0,-2,1
226539,728,-8238,-589,0,0,-2,1
226544,736,-8239,-573,0,0,-2,1
226549,744,-8238,-559,0,0,-2,1
226554,751,-8236,-548,0,0,-2,1
226559,759,-8237,-534,0,-1,-2,1
226564,762,-8236,-520,0,-1,-2,1
226569,758,-8234,-506,0,-1,-2,1
226574,752,-8234,-500,0,-1,-2,1
226579,750,-8236,-503,0,-1,-2,1
226584,752,-8236,-505,0,-1,-2,1
226589,755,-8238,-512,0,-1,-2,1
226594,759,-8238,-517,0,-2,-2,1
226599,763,-8239,-526,-1,-2,-2,1
226604,767,-8241,-538,0,-3,-2,1
226609,770,-8241,-537,0,-4,-2,1
226614,757,-8242,-545,0,-4,-2,1
226619,752,-8241,-541,0,-3,-2,1
226624,741,-8241,-553,0,-1,-2,1
226629,738,-8241,-558,-1,-1,-2,1
226634,735,-8241,-565,-1,-1,-2,1
226638,738,-8241,-569,-1,-1,-2,1
226644,747,-8239,-562,-1,-1,-2,1
226648,753,-8240,-558,-1,-1,-2,1
226654,757,-8240,-553,-1,-1,-2,1
226659,756,-8236,-555,-1,-2,-2,1
226663,754,-8235,-560,-1,-3,-2,1
226668,752,-8235,-559,-1,-3,-2,1
226674,752,-8237,-563,-1,-2,-2,1
226679,750,-8239,-565,-1,-2,-2,1
226683,746,-8241,-567,-1,-2,-2,1
226688,744,-8241,-574,-1,-2,-2,1
226693,739,-8242,-579,-1,-2,-2,1
226699,739,-8244,-586,-1,-2,-2,1
226704,735,-8246,-595,-1,-2,-2,1
226709,732,-8246,-607,-1,-2,-2,1
226714,730,-8248,-613,-1,-2,-2,1
226718,730,-8248,-613,-1,-2,-2,1
226723,730,-8247,-610,-1,-1,-2,1
226728,731,-8243,-605,-1,-1,-2,1
226733,732,-8242,-602,-1,-1,-2,1
226738,735,-8244,-597,-1,-2,-2,1
226743,741,-8245,-590,-1,-2,-2,1
226748,745,-8243,-578,-1,-2,-2,1
226753,748,-8242,-575,-1,-3,-2,1
226758,748,-8244,-575,-1,-3,-2,1
226763,746,-8244,-574,-1,-3,-2,1
226768,744,-8242,-572,-1,-3,-2,1
226773,741,-8243,-576,-1,-3,-2,1
226778,739,-8243,-583,-1,-2,-2,1
226783,745,-8245,-596,-1,-1,-2,1
226788,753,-8245,-602,-1,-1,-2,1
226793,757,-8247,-609,-1,-2,-2,1
226798,759,-8246,-613,-1,-2,-2,1
226803,758,-8245,-618,-1,-2,-2,1
226808,763,-8246,-624,-1,-1,-2,1
226813,765,-8247,-628,-1,-1,-2,1
226818,767,-8250,-635,-1,-1,-2,1
226823,766,-8248,-631,-1,-1,-2,1
226828,766,-8247,-626,-1,-1,-2,1
226833,765,-8248,-618,-1,-1,-2,1
226838,768,-8249,-608,-1,0,-2,1
226843,773,-8249,-601,-1,-1,-2,1
226848,777,-8248,-602,-1,-2,-2,1
226853,776,-8246,-600,-1,-2,-2,1
226858,774,-8246,-599,-1,-2,-2,1
226863,767,-8247,-600,-1,-2,-2,1
226868,762,-8250,-607,-1,-2,-2,1
226873,760,-8249,-614,-1,-2,-2,1
226878,756,-8245,-615,-1,-1,-2,1
226883,753,-8244,-615,-1,-1,-2,1
226888,752,-8247,-615,-1,-1,-2,1
226893,750,-8249,-616,-1,-1,-2,1
226898,749,-8252,-619,-1,-1,-2,1
226903,748,-8251,-616,-1,-1,-2,1
226908,745,-8250,-611,-1,-1,-2,1
226913,742,-8252,-604,-1,-1,-2,1
226918,738,-8248,-591,-1,-1,-2,1
226923,734,-8244,-578,-1,-1,-2,1
226928,736,-8243,-569,-1,-1,-2,1
226933,739,-8243,-562,-1,-1,-2,1
226938,743,-8242,-558,-1,-1,-2,1
226943,744,-8244,-554,-1,-1,-2,1
226948,745,-8245,-551,-1,-1,-2,1
226953,744,-8243,-547,-1,-1,-2,1
226958,746,-8243,-553,-1,-1,-2,1
226963,746,-8241,-555,-1,-1,-2,1
226968,743,-8242,-562,-1,-1,-2,1
226973,744,-8243,-568,-1,-1,-2,1
226978,742,-8243,-573,-1,-1,-2,1
226983,736,-8244,-574,-1,-1,-2,1
226988,731,-8243,-579,-1,-1,-2,1
226993,724,-8245,-575,-1,-1,-2,1
226998,720,-8248,-566,-1,0,-2,1
227003,716,-8247,-554,-1,0,-2,1
227008,712,-8247,-545,-1,0,-2,1
227013,711,-8246,-538,-1,0,-2,1
227018,717,-8251,-536,-1,0,-2,1
227023,719,-8253,-530,-1,0,-2,1
227028,723,-8255,-530,-1,0,-2,1
227033,726,-8257,-528,-1,0,-2,1
227038,731,-8257,-523,-1,-1,-2,1
227043,736,-8256,-525,-1,-1,-2,1
227048,737,-8253,-528,-1,-1,-2,1
227053,740,-8251,-532,-1,-1,-2,1
227058,744,-8250,-545,-1,-1,-2,1
227063,746,-8250,-551,-1,-1,-2,1
227068,746,-8248,-557,-1,-1,-2,1
227073,746,-8249,-561,-1,-1,-2,1
227078,744,-8248,-559,-1,-1,-2,1
227083,739,-8245,-566,-1,-1,-2,1
227088,735,-8246,-565,-1,-1,-2,1
227093,730,-8245,-559,-1,-1,-2,1
227098,729,-8245,-549,-1,-1,-2,1
227103,726,-8248,-544,-1,-1,-2,1
227108,723,-8248,-543,-1,-1,-2,1
227113,723,-8250,-542,-1,-1,-2,1
227118,726,-8252,-544,-1,-1,-2,1
227123,729,-8252,-553,-1,-1,-2,1
227128,733,-8250,-561,-1,-1,-2,1
227133,736,-8251,-567,-1,-1,-2,1
227138,738,-8252,-577,-1,-1,-2,1
227143,739,-8250,-592,-1,-1,-2,1
227148,743,-8253,-600,-1,-1,-2,1
227153,749,-8253,-607,-1,-1,-2,1
227158,754,-8253,-616,-1,0,-2,1
227163,761,-8254,-624,-1,0,-2,1
227168,766,-8253,-631,-1,0,-2,1
227173,779,-8254,-645,-1,0,-2,1
227178,794,-8258,-651,-1,1,-2,1
227183,798,-8257,-660,-1,0,-2,1
227188,794,-8255,-671,-1,0,-2,1
227193,777,-8256,-690,-1,1,-2,1
227198,778,-8253,-716,-1,2,-2,1
227203,792,-8252,-762,-1,4,-2,1
227208,825,-8253,-786,0,3,-2,1
227213,836,-8256,-830,0,0,-1,1
227218,829,-8258,-854,0,-1,-1,1
227223,806,-8257,-884,0,1,-1,1
227228,780,-8254,-924,0,3,-1,1
227233,747,-8254,-964,0,4,-2,1
227238,689,-8255,-1032,1,5,-2,1
227243,622,-8258,-1089,1,7,-2,1
227248,547,-8260,-1155,1,10,-2,1
227253,491,-8262,-1222,1,13,-2,1
227258,447,-8260,-1297,1,15,-2,1
227263,406,-8260,-1384,2,15,-2,1
227268,370,-8259,-1470,2,14,-2,1
227273,372,-8256,-1561,2,11,-2,1
227278,377,-8258,-1634,3,8,-3,1
227283,380,-8258,-1691,3,2,-3,1
227288,338,-8259,-1743,4,-4,-3,1
227293,269,-8259,-1793,5,-7,-3,1
227298,195,-8258,-1826,5,-8,-3,1
227303,146,-8260,-1852,6,-6,-4,1
227308,138,-8262,-1871,6,-3,-4,1
227313,172,-8261,-1874,6,0,-4,1
227318,251,-8258,-1865,7,-1,-4,1
227323,353,-8257,-1843,7,-3,-4,1
227328,466,-8253,-1806,7,-6,-4,1
227333,585,-8247,-1755,8,-10,-4,1
227338,704,-8245,-1690,8,-15,-4,1
227343,814,-8260,-1624,9,-21,-4,1
227348,931,-8365,-1560,9,-28,-4,1
227353,1022,-8544,-1484,9,-34,-3,1
227358,1098,-8773,-1393,10,-39,-3,1
227363,1152,-9014,-1305,10,-42,-3,1
227368,1192,-9254,-1231,10,-42,-2,1
227373,1201,-9481,-1183,10,-40,-2,1
227378,1179,-9677,-1145,11,-36,-2,1
227383,1132,-9820,-1104,11,-31,-2,1
227388,1067,-9912,-1066,11,-26,-2,1
227393,986,-9959,-1032,11,-20,-2,1
227398,894,-9971,-1010,11,-14,-3,1
227403,790,-9953,-980,12,-10,-3,1
227408,675,-9920,-950,12,-5,-4,1
227413,549,-9877,-905,12,-1,-4,1
227418,421,-9828,-849,13,3,-5,1
227423,302,-9778,-787,13,8,-6,1
227428,209,-9738,-713,13,14,-7,1
227433,145,-9696,-642,13,19,-7,1
227438,112,-9659,-555,14,22,-8,1
227443,108,-9630,-463,14,24,-9,1
227448,130,-9603,-357,14,25,-10,1
227453,162,-9577,-260,14,25,-11,1
227458,198,-9551,-160,15,24,-12,1
227463,242,-9519,-67,15,23,-13,1
227468,276,-9484,19,15,22,-13,1
227473,288,-9446,69,16,21,-14,1
227478,296,-9402,118,16,20,-15,1
227483,305,-9349,173,16,20,-16,1
227488,311,-9284,236,16,21,-17,1
227493,310,-9215,288,17,23,-18,1
227498,307,-9149,326,17,24,-19,1
227503,304,-9082,350,18,25,-20,1
227508,310,-9018,383,18,26,-21,1
227513,334,-8959,429,19,28,-22,1
227518,374,-8902,487,19,31,-23,1
227523,428,-8850,535,19,33,-23,1
227528,496,-8793,586,20,34,-24,1
227533,570,-8726,636,20,33,-25,1
227538,643,-8653,683,21,33,-26,1
227543,714,-8571,725,21,32,-26,1
227548,780,-8479,763,22,31,-27,1
227553,845,-8389,810,23,30,-28,1
227558,905,-8301,858,23,30,-28,1
227563,964,-8213,906,24,30,-29,1
227568,1020,-8130,956,24,30,-29,1
227573,1075,-8054,1014,24,31,-30,1
227578,1125,-7987,1074,25,31,-30,1
227583,1182,-7930,1131,25,30,-31,1
227588,1244,-7885,1187,26,28,-31,1
227593,1299,-7847,1236,26,26,-32,1
227598,1342,-7812,1273,27,23,-32,1
227603,1375,-7791,1301,27,21,-32,1
227608,1397,-7779,1319,28,20,-33,1
227613,1414,-7772,1326,28,20,-33,1
227618,1433,-7774,1335,29,20,-33,1
227623,1453,-7781,1338,29,21,-33,1
227628,1476,-7796,1345,29,22,-34,1
227633,1502,-7813,1355,30,23,-34,1
227638,1525,-7825,1358,30,23,-34,1
227643,1553,-7835,1357,31,24,-34,1
227648,1579,-7838,1353,31,23,-34,1
227653,1587,-7837,1352,32,23,-34,1
227658,1588,-7833,1349,32,22,-34,1
227663,1580,-7831,1347,32,24,-34,1
227668,1574,-7829,1348,33,26,-34,1
227673,1571,-7826,1351,33,29,-34,1
227678,1574,-7818,1368,33,31,-34,1
227683,1584,-7808,1387,33,33,-34,1
227688,1596,-7795,1411,34,34,-34,1
227693,1610,-7782,1433,34,35,-34,1
227698,1628,-7774,1462,34,35,-34,1
227703,1652,-7766,1498,34,36,-34,1
227708,1675,-7759,1539,34,37,-33,1
227713,1706,-7752,1582,34,38,-33,1
227718,1737,-7745,1619,34,38,-33,1
227723,1774,-7735,1663,34,39,-32,1
227728,1813,-7723,1705,34,39,-32,1
227733,1850,-7702,1745,34,40,-32,1
227738,1887,-7676,1775,34,41,-31,1
227743,1929,-7638,1803,34,42,-30,1
227748,1978,-7591,1828,34,42,-30,1
227753,2024,-7538,1843,34,41,-29,1
227758,2059,-7482,1850,34,40,-29,1
227763,2074,-7426,1853,33,39,-28,1
227768,2079,-7371,1854,33,38,-28,1
227773,2083,-7323,1862,33,37,-27,1
227778,2097,-7280,1871,33,37,-26,1
227783,2111,-7242,1887,33,37,-26,1
227788,2126,-7206,1920,33,37,-25,1
227793,2146,-7176,1968,32,36,-25,1
227798,2168,-7157,2020,32,35,-24,1
227803,2192,-7148,2078,32,34,-23,1
227808,2216,-7146,2121,31,33,-22,1
227813,2245,-7151,2162,31,31,-22,1
227818,2287,-7156,2203,30,29,-21,1
227823,2338,-7166,2237,30,27,-20,1
227828,2397,-7176,2261,29,23,-19,1
227833,2647,-7154,2329,29,19,-19,1
227838,2917,-7123,2360,29,19,-19,1
227843,2943,-7104,2302,28,13,-19,1
227848,3032,-7074,2308,28,-5,-19,1
227853,3172,-7021,2397,27,-15,-18,1
227858,3319,-6950,2487,27,-12,-19,1
227863,3355,-6882,2486,28,-4,-21,1
227868,3308,-6816,2470,27,-3,-23,1
227873,3263,-6741,2498,27,-6,-23,1
227878,3259,-6671,2579,26,-4,-24,1
227883,3253,-6614,2663,26,4,-26,1
227888,3230,-6583,2698,26,11,-27,1
227892,3185,-6585,2695,26,13,-28,1
227898,3139,-6611,2689,26,9,-28,1
227903,3117,-6660,2720,26,5,-28,1
227908,3122,-6740,2756,25,3,-27,1
227912,3136,-6853,2780,25,2,-27,1
227918,3193,-6940,2817,25,-3,-26,1
227922,3223,-7033,2815,25,-11,-26,1
227928,3193,-7140,2779,24,-23,-25,1
227933,3133,-7254,2758,23,-33,-23,1
227937,3042,-7363,2762,22,-37,-21,1
227942,2908,-7450,2753,22,-36,-20,1
227947,2777,-7506,2740,21,-32,-18,1
227952,2651,-7537,2729,20,-26,-16,1
227958,2549,-7546,2721,20,-20,-14,1
227963,2456,-7530,2703,19,-14,-13,1
227967,2415,-7489,2697,18,-10,-13,1
227972,2475,-7424,2662,17,-5,-15,1
227978,2502,-7348,2594,16,1,-15,1
227983,2453,-7262,2570,16,1,-13,1
227987,2387,-7162,2593,15,-3,-12,1
227993,2730,-7040,2387,16,0,-11,1
227997,2900,-6958,2445,18,12,-8,1
228003,3103,-6881,2324,18,9,-9,1
228007,3220,-6809,2215,17,6,-9,1
228012,3308,-6734,2278,16,0,-10,1
228017,3384,-6662,2427,16,0,-10,1
228022,3424,-6607,2602,17,3,-9,1
228027,3434,-6568,2672,18,-1,-9,1
228032,3422,-6532,2749,19,-8,-8,1
228038,3456,-6506,2838,20,-15,-6,1
228042,3566,-6497,2895,21,-15,-5,1
228048,3679,-6502,2936,22,-9,-6,1
228052,3743,-6525,2950,22,-7,-6,1
228057,3750,-6568,2942,23,-10,-6,1
228062,3741,-6622,2945,24,-12,-6,1
228067,3733,-6677,2962,25,-12,-5,1
228072,3716,-6732,2969,26,-8,-5,1
228077,3693,-6788,2968,27,-4,-5,1
228082,3641,-6844,2959,28,-2,-4,1
228087,3558,-6894,2968,29,-2,-3,1
228092,3472,-6935,3027,30,-1,-2,1
228097,3402,-6969,3094,31,1,-1,1
228102,3344,-6996,3142,32,3,0,1
228107,3292,-7016,3180,33,3,1,1
228112,3234,-7030,3204,34,0,2,1
228117,3154,-7041,3229,35,-3,3,1
228122,3069,-7054,3259,36,-5,4,1
228127,3006,-7074,3275,37,-7,5,1
228132,2973,-7111,3286,38,-9,6,1
228137,2949,-7162,3301,40,-12,7,1
228142,2910,-7225,3318,40,-15,7,1
228147,2830,-7301,3353,41,-18,8,1
228152,2724,-7384,3390,42,-22,9,1
228157,2639,-7467,3419,43,-24,10,1
228162,2583,-7534,3442,43,-25,11,1
228167,2558,-7583,3459,44,-25,12,1
228172,2516,-7612,3478,44,-24,12,1
228177,2447,-7625,3516,44,-25,13,1
228182,2382,-7626,3567,44,-26,14,1
228187,2323,-7617,3614,44,-26,14,1
228192,2273,-7588,3637,44,-26,15,1
228197,2276,-7537,3633,44,-26,15,1
228202,2302,-7447,3549,44,-22,15,1
228207,2457,-7301,3323,43,-10,14,1
228212,2941,-7132,2986,42,17,10,1
228217,3145,-6979,2926,39,47,6,1
228222,2997,-6830,2970,38,47,8,1
228227,2774,-6686,3225,40,22,13,1
228232,3010,-6506,3365,40,0,10,1
228237,3294,-6293,3421,38,6,6,1
228242,3559,-6073,3343,37,29,3,1
228247,3718,-5860,3293,36,62,1,1
228252,3693,-5721,3327,35,93,-2,1
228257,3639,-5648,3453,33,110,-4,1
228262,3636,-5643,3722,33,109,-5,1
228267,3744,-5645,3944,33,87,-6,1
228272,3927,-5681,4153,34,49,-7,1
228277,4011,-5727,4316,34,4,-7,1
228282,4068,-5782,4516,35,-46,-8,1
228287,4035,-5828,4633,35,-96,-7,1
228292,3997,-5867,4708,35,-141,-7,1
228297,3840,-5900,4740,35,-170,-8,1
228302,3580,-5920,4705,35,-182,-8,1
228307,3249,-5916,4661,35,-177,-9,1
228312,2882,-5892,4638,35,-160,-10,1
228317,2531,-5844,4635,34,-136,-11,1
228322,2257,-5773,4657,34,-109,-12,1
228327,2077,-5706,4708,34,-83,-13,1
228332,1979,-5661,4767,33,-61,-14,1
228337,1821,-5638,4679,33,-46,-15,1
228342,1704,-5672,4603,34,-43,-18,1
228347,1728,-5744,4566,34,-48,-19,1
228352,1928,-5827,4579,33,-52,-20,1
228357,2177,-5919,4638,33,-48,-21,1
228362,2385,-6022,4655,34,-48,-23,1
228367,2562,-6138,4681,34,-55,-24,1
228372,2747,-6238,4664,34,-71,-25,1
228377,2943,-6302,4717,34,-90,-25,1
228382,3094,-6321,4765,34,-110,-27,1
228387,3183,-6312,4836,33,-125,-28,1
228392,3214,-6284,4896,33,-136,-29,1
228397,3205,-6256,4930,32,-139,-30,1
228402,3191,-6235,4956,32,-136,-32,1
228407,3181,-6215,5033,31,-128,-33,1
228412,3166,-6203,5142,30,-115,-34,1
228417,3210,-6199,5275,29,-98,-35,1
228422,3316,-6203,5444,27,-78,-35,1
228427,3484,-6211,5619,26,-59,-35,1
228432,3737,-6206,5770,25,-44,-35,1
228437,4054,-6167,5878,24,-35,-35,1
228442,4389,-6094,5921,23,-33,-34,1
228447,4706,-5994,5900,22,-40,-34,1
228452,4986,-5890,5851,21,-53,-33,1
228457,5201,-5796,5767,20,-66,-32,1
228462,5350,-5720,5671,20,-77,-31,1
228467,5435,-5660,5574,19,-82,-31,1
228472,5466,-5604,5464,18,-83,-30,1
228477,5472,-5550,5380,17,-79,-30,1
228482,5455,-5497,5317,16,-70,-30,1
228487,5409,-5428,5263,15,-57,-30,1
228492,5394,-5348,5247,14,-41,-30,1
228497,5421,-5274,5250,13,-22,-30,1
228502,5488,-5208,5273,12,-5,-30,1
228507,5620,-5160,5326,11,6,-29,1
228512,5777,-5115,5408,10,12,-29,1
228517,5952,-5071,5482,9,13,-28,1
228522,6149,-5016,5556,8,9,-28,1
228527,6337,-4955,5602,7,0,-27,1
228532,6483,-4891,5614,6,-16,-26,1
228537,6582,-4827,5608,5,-34,-25,1
228542,6619,-4760,5564,5,-51,-25,1
228547,6610,-4688,5485,4,-65,-24,1
228552,6568,-4614,5367,3,-77,-24,1
228557,6487,-4543,5198,3,-86,-24,1
228562,6384,-4487,4983,3,-97,-24,1
228567,6255,-4453,4731,3,-110,-24,1
228572,6087,-4436,4449,3,-124,-25,1
228577,5876,-4421,4150,4,-136,-26,1
228582,5641,-4412,3872,4,-139,-27,1
228587,5369,-4415,3630,5,-133,-29,1
228592,5115,-4426,3427,5,-122,-30,1
228597,4905,-4439,3234,5,-108,-32,1
228602,4761,-4451,3052,6,-93,-33,1
228607,4672,-4463,2896,6,-80,-35,1
228612,4619,-4479,2772,7,-71,-37,1
228617,4587,-4491,2657,8,-66,-38,1
228622,4581,-4493,2549,8,-63,-40,1
228627,4604,-4478,2451,9,-61,-41,1
228632,4660,-4463,2373,10,-59,-43,1
228637,4752,-4459,2315,11,-60,-44,1
228642,4847,-4472,2258,12,-61,-46,1
228647,4927,-4506,2211,13,-64,-48,1
228652,4990,-4555,2172,13,-68,-49,1
228657,5030,-4611,2126,14,-70,-51,1
228662,5051,-4670,2072,15,-69,-53,1
228667,5065,-4731,2019,15,-65,-54,1
228672,5059,-4790,1971,16,-59,-56,1
228677,5046,-4848,1929,17,-54,-58,1
228682,5036,-4900,1891,17,-48,-60,1
228687,5027,-4947,1864,18,-41,-61,1
228692,5016,-4989,1851,19,-33,-63,1
228697,5019,-5029,1854,20,-26,-65,1
228702,5029,-5068,1855,21,-19,-67,1
228707,5075,-5113,1858,22,-13,-69,1
228712,5151,-5161,1862,23,-8,-71,1
228717,5248,-5216,1849,24,-5,-73,1
228722,5354,-5263,1830,25,-5,-74,1
228727,5459,-5295,1810,26,-8,-76,1
228732,5554,-5312,1782,27,-11,-78,1
228737,5636,-5318,1758,28,-14,-80,1
228742,5706,-5314,1729,29,-17,-82,1
228747,5759,-5303,1685,29,-21,-84,1
228752,5793,-5280,1653,30,-26,-86,1
228757,5793,-5244,1617,31,-29,-88,1
228762,5771,-5183,1581,31,-30,-90,1
228767,5743,-5094,1552,31,-30,-92,1
228772,5713,-4976,1531,32,-29,-94,1
228777,5699,-4829,1505,32,-29,-96,1
228782,5697,-4662,1484,33,-30,-98,1
228787,5700,-4488,1465,33,-33,-99,1
228792,5693,-4302,1447,33,-36,-101,1
228797,5682,-4109,1434,33,-39,-103,1
228802,5658,-3912,1413,33,-40,-105,1
228807,5636,-3712,1394,33,-40,-107,1
228812,5616,-3511,1373,33,-37,-108,1
228817,5605,-3311,1343,33,-35,-110,1
228822,5606,-3112,1330,33,-33,-112,1
228827,5623,-2906,1329,33,-33,-113,1
228832,5655,-2683,1332,33,-34,-115,1
228837,5704,-2444,1347,33,-35,-117,1
228842,5768,-2193,1360,33,-37,-118,1
228847,5837,-1940,1358,33,-39,-120,1
228852,5909,-1688,1368,32,-42,-121,1
228857,5970,-1444,1370,32,-43,-122,1
228862,6036,-1206,1357,32,-43,-123,1
228867,6100,-977,1342,31,-41,-125,1
228872,6158,-760,1332,31,-38,-126,1
228877,6210,-546,1324,31,-36,-127,1
228882,6260,-318,1313,30,-34,-128,1
228887,6317,-80,1307,30,-31,-129,1
228892,6389,169,1315,30,-30,-130,1
228897,6475,431,1322,30,-30,-131,1
228902,6562,704,1310,29,-32,-132,1
228907,6643,980,1302,29,-36,-132,1
228912,6717,1254,1295,29,-40,-133,1
228917,6771,1535,1295,28,-42,-134,1
228922,6814,1822,1294,28,-43,-134,1
228927,6860,2108,1282,27,-43,-134,1
228932,6904,2381,1263,27,-42,-135,1
228937,6954,2636,1244,26,-42,-135,1
228942,7001,2867,1217,25,-42,-135,1
228947,7036,3074,1178,25,-40,-136,1
228952,7065,3255,1133,24,-37,-136,1
228957,7083,3418,1092,23,-33,-136,1
228962,7097,3567,1052,23,-28,-136,1
228967,7118,3714,1016,22,-24,-136,1
228972,7136,3863,1001,22,-20,-136,1
228977,7164,4016,992,22,-16,-136,1
228982,7198,4173,985,22,-15,-136,1
228987,7233,4320,972,21,-15,-136,1
228992,7258,4451,963,21,-20,-136,1
228997,7266,4568,954,21,-26,-135,1
229002,7241,4669,927,20,-32,-135,1
229007,7184,4757,894,20,-35,-135,1
229012,7107,4837,866,20,-35,-134,1
229017,7024,4911,835,19,-34,-134,1
229022,6941,4978,812,19,-31,-133,1
229027,6857,5040,800,18,-27,-133,1
229032,6769,5094,786,18,-21,-132,1
229037,6686,5147,773,17,-14,-132,1
229042,6619,5186,763,17,-6,-131,1
229047,6573,5213,746,17,1,-131,1
229052,6548,5233,736,18,7,-131,1
229057,6542,5256,732,18,10,-130,1
229062,6537,5293,732,18,10,-130,1
229067,6536,5337,743,19,8,-129,1
229072,6514,5387,762,19,3,-129,1
229077,6461,5434,783,19,-2,-128,1
229082,6385,5478,793,20,-5,-128,1
229087,6289,5519,802,20,-6,-128,1
229092,6179,5555,810,20,-7,-127,1
229097,6066,5601,822,20,-7,-127,1
229102,5936,5656,827,20,-5,-126,1
229107,5795,5717,834,20,-2,-126,1
229112,5658,5782,842,20,2,-126,1
229117,5530,5848,851,20,7,-125,1
229122,5403,5924,868,21,13,-125,1
229127,5296,6013,885,21,18,-124,1
229132,5206,6116,920,21,21,-124,1
229137,5130,6244,952,22,21,-124,1
229142,5069,6393,1002,22,19,-123,1
229147,5013,6562,1048,22,15,-122,1
229152,4958,6738,1090,23,9,-122,1
229157,4897,6906,1122,23,3,-121,1
229162,4828,7054,1141,23,-2,-121,1
229167,4757,7171,1152,23,-6,-120,1
229172,4686,7267,1151,23,-7,-120,1
229177,4608,7344,1136,23,-6,-119,1
229182,4540,7398,1116,22,-3,-118,1
229187,4496,7440,1095,22,1,-118,1
229192,4472,7473,1074,22,4,-117,1
229197,4454,7501,1061,22,5,-117,1
229202,4430,7536,1043,22,6,-116,1
229207,4401,7577,1033,23,6,-115,1
229212,4367,7628,1016,23,5,-115,1
229217,4336,7687,1006,23,4,-114,1
229222,4297,7756,1006,23,1,-113,1
229227,4252,7847,1007,22,-3,-112,1
229232,4195,7960,1002,22,-8,-111,1
229237,4115,8076,992,22,-12,-110,1
229242,4018,8184,972,21,-15,-109,1
229247,3911,8277,947,20,-16,-108,1
229251,3797,8355,908,20,-15,-106,1
229257,3672,8428,835,19,-13,-105,1
229262,3568,8488,799,19,-6,-104,1
229267,3507,8531,771,19,4,-103,1
229272,3519,8550,725,19,9,-103,1
229277,3504,8553,688,20,7,-103,1
229282,3477,8555,655,19,-4,-102,1
229287,3389,8572,616,19,-14,-100,1
229292,3257,8599,583,18,-17,-99,1
229296,3131,8632,552,17,-10,-97,1
229302,3053,8667,533,17,2,-96,1
229307,3015,8695,520,17,11,-95,1
229311,2995,8719,513,16,13,-94,1
229317,2968,8748,506,16,8,-93,1
229322,2910,8781,492,16,2,-92,1
229327,2832,8816,482,15,-1,-90,1
229332,2748,8849,464,15,0,-89,1
229337,2678,8875,443,14,4,-87,1
229342,2631,8894,430,14,8,-86,1
229346,2606,8908,418,14,10,-85,1
229351,2592,8933,412,14,10,-83,1
229356,2535,8995,395,13,8,-82,1
229362,2445,9090,377,13,6,-80,1
229367,2328,9189,349,12,5,-77,1
229372,2233,9275,310,12,5,-75,1
229377,2122,9353,292,11,8,-71,1
229381,2052,9423,274,10,10,-68,1
229387,1961,9480,264,9,9,-65,1
229392,1902,9513,272,7,7,-61,1
229396,1866,9520,274,6,7,-57,1
229401,1832,9507,277,5,9,-53,1
229406,1831,9470,279,4,12,-50,1
229411,1846,9421,284,3,16,-47,1
229416,1882,9368,289,2,22,-44,1
229421,1937,9307,295,2,30,-41,1
229426,2020,9230,300,1,39,-39,1
229431,2124,9119,306,1,47,-37,1
229437,2241,8980,316,1,52,-35,1
229441,2358,8836,319,1,54,-34,1
229446,2469,8712,329,1,54,-32,1
229451,2575,8606,340,1,53,-31,1
229456,2658,8513,356,1,51,-30,1
229461,2711,8421,375,1,48,-29,1
229466,2738,8334,396,1,46,-28,1
229471,2723,8248,425,1,45,-27,1
229476,2686,8172,448,1,45,-26,1
229481,2617,8108,465,1,46,-26,1
229486,2534,8054,480,1,46,-25,1
229491,2438,8007,497,1,45,-25,1
229496,2327,7963,512,1,43,-24,1
229501,2220,7918,517,0,40,-23,1
229506,2152,7855,487,0,36,-23,1
229511,2074,7812,492,0,28,-22,1
229516,1989,7814,507,0,17,-22,1
229521,1913,7824,473,0,6,-21,1
229526,1798,7820,414,0,-2,-21,1
229531,1704,7834,423,1,-4,-21,1
229536,1599,7891,407,1,-2,-21,1
229541,1499,7994,379,2,-2,-21,1
229546,1396,8124,347,2,-3,-21,1
229551,1298,8261,341,2,-6,-20,1
229556,1207,8413,340,2,-6,-20,1
229561,1137,8578,316,2,-2,-20,1
229566,1086,8750,310,2,3,-20,1
229571,1054,8902,325,3,5,-21,1
229576,1023,9009,361,2,2,-21,1
229581,976,9068,385,2,-3,-21,1
229586,950,9078,403,2,-6,-21,1
229591,914,9072,438,1,-3,-22,1
229596,845,9059,469,1,3,-22,1
229601,763,9051,477,1,9,-23,1
229606,694,9053,462,0,14,-22,1
229611,649,9068,440,0,19,-22,1
229616,617,9086,415,-1,25,-22,1
229621,599,9107,402,-1,30,-21,1
229626,583,9131,383,-2,33,-21,1
229631,584,9149,374,-2,34,-20,1
229636,588,9165,368,-3,32,-20,1
229641,587,9171,368,-3,30,-19,1
229646,581,9165,350,-4,27,-19,1
229651,558,9150,391,-5,26,-18,1
229656,542,9113,371,-5,25,-18,1
229661,538,9056,313,-5,29,-18,1
229666,555,8989,272,-6,34,-17,1
229671,562,8913,268,-6,37,-17,1
229676,586,8827,284,-6,38,-17,1
229681,608,8724,252,-6,41,-16,1
229686,618,8617,213,-6,45,-16,1
229691,635,8514,201,-6,52,-16,1
229696,625,8425,202,-6,57,-16,1
229701,640,8356,193,-6,59,-15,1
229706,668,8306,152,-7,60,-15,1
229711,713,8277,120,-7,60,-14,1
229716,735,8265,94,-7,62,-14,1
229721,745,8265,55,-7,63,-14,1
229726,751,8290,15,-7,61,-13,1
229731,762,8344,-36,-7,58,-13,1
229736,783,8409,-98,-6,53,-12,1
229741,800,8484,-147,-6,49,-12,1
229746,803,8563,-189,-6,46,-12,1
229751,801,8648,-253,-6,44,-11,1
229756,796,8737,-323,-6,44,-11,1
229761,795,8826,-383,-5,44,-11,1
229766,795,8905,-433,-5,46,-10,1
229771,793,8970,-472,-5,47,-10,1
229776,807,9017,-505,-5,48,-9,1
229781,831,9047,-536,-4,48,-8,1
229786,861,9064,-557,-4,47,-8,1
229791,883,9069,-570,-4,45,-7,1
229796,901,9065,-575,-3,43,-6,1
229801,921,9060,-586,-3,40,-6,1
229806,928,9056,-595,-3,36,-5,1
229811,926,9044,-608,-2,33,-4,1
229816,917,9011,-612,-2,31,-3,1
229821,900,8960,-600,-1,30,-3,1
229826,878,8902,-575,-1,29,-3,1
229831,851,8840,-539,0,27,-2,1
229836,831,8792,-506,1,24,-2,1
229841,820,8763,-465,1,20,-2,1
229846,797,8767,-389,1,15,-1,1
229851,778,8810,-301,2,8,-1,1
229856,746,8906,-223,2,2,-1,1
229861,708,9097,-113,2,-3,-1,1
229866,654,9409,4,1,-6,-1,1
229871,626,9867,48,1,-6,-1,1
229876,589,10395,126,0,-3,0,1
229881,523,11008,287,-1,0,0,1
229886,704,11254,570,-3,-2,0,1
229891,757,11116,412,-4,12,2,1
229896,746,10785,250,-3,34,1,1
229901,631,10419,191,-3,50,1,1
229906,421,10068,215,-3,43,1,1
229911,342,9737,282,-3,27,1,1
229916,269,9428,343,-3,20,1,1
229921,213,9157,391,-3,19,0,1
229926,148,8933,398,-2,19,-1,1
229931,141,8760,421,-2,14,-1,1
229936,157,8626,421,-2,8,-1,1
229941,198,8521,417,-2,2,-1,1
229946,243,8436,400,-1,-2,-1,1
229951,284,8392,401,-1,-6,-1,1
229956,352,8397,420,-1,-13,0,1
229961,414,8396,439,-1,-17,0,1
229966,436,8371,458,-1,-18,0,1
229971,421,8328,474,-1,-20,-1,1
229976,384,8271,484,-1,-23,-1,1
229981,343,8213,480,-1,-28,-1,1
229986,308,8193,460,-1,-33,-1,1
229991,294,8219,421,0,-36,-1,1
229996,292,8268,341,0,-37,-1,1
230001,289,8308,255,0,-38,-1,1
230006,259,8314,201,0,-38,-1,1
230011,193,8303,193,1,-39,-1,1
230016,110,8289,210,1,-40,-1,1
230021,32,8285,223,1,-38,-2,1
230026,1,8279,223,1,-34,-2,1
230031,26,8275,212,1,-29,-2,1
230036,70,8266,201,1,-25,-2,1
230041,114,8256,194,2,-23,-2,1
230046,147,8255,209,2,-23,-3,1
230051,160,8248,231,2,-23,-3,1
230056,152,8250,247,2,-25,-3,1
230061,140,8242,253,2,-27,-3,1
230066,131,8229,231,3,-28,-3,1
230071,130,8216,216,3,-28,-3,1
230076,100,8195,169,2,-30,-3,1
230081,36,8174,102,2,-36,-2,1
230086,-34,8183,29,2,-42,-2,1
230091,-95,8206,-10,2,-45,-2,1
230096,-135,8209,-42,2,-43,-2,1
230101,-148,8199,-61,2,-39,-2,1
230106,-135,8192,-80,2,-33,-2,1
230111,-113,8187,-99,2,-28,-2,1
230116,-91,8183,-112,2,-25,-2,1
230121,-84,8182,-123,2,-23,-2,1
230126,-97,8183,-133,2,-23,-2,1
230131,-122,8180,-128,2,-22,-2,1
230136,-147,8180,-116,2,-21,-2,1
230141,-160,8180,-115,2,-19,-2,1
230146,-166,8181,-113,2,-17,-2,1
230151,-162,8185,-109,2,-15,-2,1
230156,-156,8189,-98,2,-15,-2,1
230161,-151,8199,-62,2,-15,-2,1
230166,-154,8210,15,2,-18,-2,1
230171,-164,8196,105,2,-23,-2,1
230176,-172,8166,163,2,-28,-2,1
230181,-167,8146,133,2,-32,-1,1
230186,-154,8145,29,2,-36,-1,1
230191,-150,8145,-100,2,-35,-1,1
230196,-145,8148,-234,2,-29,-1,1
230201,-127,8150,-325,2,-21,-1,1
230206,-125,8156,-363,1,-12,-2,1
230211,-142,8158,-341,1,-5,-2,1
230216,-174,8157,-283,1,-2,-2,1
230221,-202,8161,-221,1,-1,-2,1
230226,-216,8167,-196,1,-4,-1,1
230231,-211,8165,-207,1,-6,-1,1
230236,-197,8159,-238,1,-8,-1,1
230241,-175,8157,-270,1,-8,-1,1
230246,-161,8155,-289,1,-7,-1,1
230251,-159,8154,-304,1,-5,-1,1
230256,-158,8149,-302,0,-2,-1,1
230261,-158,8146,-299,0,-1,-1,1
230266,-151,8151,-296,0,-1,-1,1
230271,-145,8146,-298,0,-2,-1,1
230276,-145,8145,-302,0,-2,0,1
230281,-140,8146,-301,0,-2,-1,1
230286,-127,8141,-300,0,-2,-1,1
230291,-105,8142,-298,0,0,-1,1
230296,-77,8142,-292,0,0,-1,1
230301,-46,8141,-272,-1,0,-1,1
230306,-20,8145,-255,-1,-1,-1,1
230311,1,8144,-235,-1,-2,-1,1
230316,13,8145,-216,-1,-3,-1,1
230321,20,8149,-204,-1,-4,-1,1
230326,19,8149,-196,-1,-4,-1,1
230331,15,8150,-188,-1,-3,-1,1
230336,12,8155,-181,-1,-3,-1,1
230341,12,8157,-176,-1,-3,-1,1
230346,7,8159,-171,-1,-3,-1,1
230351,5,8156,-169,-1,-3,-1,1
230356,6,8150,-161,-1,-3,-1,1
230361,11,8146,-151,-1,-2,-1,1
230366,20,8146,-146,-1,-2,-1,1
230371,30,8147,-142,-1,-2,-1,1
230376,35,8152,-137,-1,-2,-1,1
230381,39,8154,-131,-1,-2,-1,1
230386,42,8149,-125,-1,-2,-1,1
230391,46,8149,-119,-1,-3,-1,1
230396,56,8152,-112,-1,-2,-1,1
230401,69,8153,-110,-1,-2,-1,1
230406,84,8158,-108,0,-1,-1,1
230411,100,8159,-101,0,-1,-1,1
230416,114,8162,-97,0,-1,-1,1
230421,124,8162,-89,0,-2,-1,1
230426,132,8162,-88,0,-2,-2,1
230431,137,8160,-89,0,-3,-2,1
230436,140,8157,-84,0,-3,-2,1
230441,140,8159,-87,0,-3,-2,1
230446,139,8161,-91,0,-3,-2,1
230451,142,8162,-97,0,-3,-2,1
230456,139,8162,-102,0,-4,-2,1
230461,133,8161,-109,0,-5,-2,1
230466,126,8161,-114,0,-5,-2,1
230471,117,8159,-122,0,-5,-2,1
230476,107,8156,-129,-1,-5,-2,1
230481,95,8155,-135,-1,-5,-2,1
230486,79,8155,-144,0,-5,-2,1
230491,67,8156,-148,0,-4,-2,1
230496,51,8158,-147,-1,-3,-2,1
230501,41,8156,-152,-1,-3,-2,1
230506,34,8155,-155,-1,-3,-2,1
230511,28,8152,-156,-1,-3,-2,1
230516,21,8153,-162,-1,-4,-2,1
230521,16,8153,-166,-1,-3,-2,1
230526,14,8152,-168,-1,-3,-2,1
230531,12,8150,-169,-1,-3,-2,1
230536,7,8151,-164,-1,-3,-2,1
230541,9,8151,-166,-1,-4,-2,1
230546,15,8150,-173,-1,-4,-2,1
230551,16,8150,-180,-1,-4,-2,1
230556,12,8147,-187,-1,-4,-2,1
230561,10,8149,-196,-1,-4,-2,1
230566,10,8150,-210,-1,-4,-2,1
230571,8,8149,-212,-1,-3,-2,1
230576,0,8147,-210,-1,-3,-2,1
230581,-11,8149,-204,-1,-2,-2,1
230586,-23,8146,-208,-1,-1,-2,1
230591,-36,8148,-206,-1,0,-2,1
230596,-46,8146,-200,-1,1,-2,1
230601,-54,8146,-201,-1,2,-2,1
230606,-60,8147,-203,-1,2,-2,1
230610,-64,8145,-196,-1,2,-2,1
230616,-66,8145,-178,-1,2,-2,1
230620,-69,8145,-167,-1,1,-2,1
230626,-70,8145,-160,-1,1,-2,1
230631,-66,8147,-155,-1,1,-2,1
230636,-67,8150,-151,-1,1,-1,1
230641,-66,8152,-147,-1,1,-1,1
230645,-66,8153,-139,-1,1,-1,1
230651,-64,8157,-133,-1,1,-1,1
230656,-58,8155,-121,-1,1,-1,1
230660,-49,8154,-115,-1,2,-1,1
230666,-37,8153,-113,-1,2,-1,1
230670,-22,8155,-110,-1,2,-1,1
230676,-9,8156,-108,-1,2,-1,1
230680,-1,8154,-101,-1,2,-1,1
230685,6,8155,-100,-1,2,-2,1
230691,15,8155,-95,-1,1,-2,1
230695,25,8155,-89,-1,1,-2,1
230701,33,8152,-84,-1,2,-2,1
230706,39,8156,-86,-1,2,-2,1
230710,41,8154,-88,-1,2,-2,1
230716,42,8156,-89,-1,2,-2,1
230720,43,8154,-88,-1,1,-2,1
230725,41,8152,-88,0,1,-2,1
230731,34,8153,-88,0,1,-2,1
230736,32,8146,-89,0,1,-2,1
230741,31,8146,-83,0,1,-2,1
230746,33,8147,-81,0,0,-2,1
230750,40,8146,-80,0,0,-2,1
230755,53,8148,-72,0,-1,-2,1
230760,60,8153,-57,0,-2,-2,1
230765,67,8153,-42,0,-4,-2,1
230770,62,8158,-32,0,-5,-2,1
230775,58,8159,-40,0,-5,-2,1
230780,53,8159,-64,0,-5,-2,1
230785,53,8159,-91,0,-5,-2,1
230790,60,8159,-113,0,-3,-2,1
230795,74,8159,-125,0,-2,-2,1
230800,87,8164,-122,1,-1,-2,1
230805,92,8162,-119,1,-1,-2,1
230810,90,8159,-111,1,-1,-2,1
230815,83,8154,-105,1,-1,-2,1
230820,68,8151,-120,1,-1,-2,1
230825,64,8145,-137,1,-1,-2,1
230830,58,8150,-161,1,-2,-2,1
230835,53,8154,-191,0,-2,-2,1
230840,46,8153,-205,0,-3,-2,1
230845,36,8147,-209,0,-3,-2,1
230850,27,8142,-213,0,-1,-2,1
230855,28,8142,-210,0,-1,-2,1
230860,21,8142,-212,0,-1,-2,1
230865,17,8142,-209,0,-2,-2,1
230870,22,8139,-198,0,-3,-2,1
230875,34,8136,-194,0,-4,-2,1
230880,48,8141,-200,0,-5,-2,1
230885,55,8147,-211,0,-5,-2,1
230890,57,8145,-219,0,-5,-2,1
230895,55,8143,-225,0,-5,-2,1
230900,56,8147,-230,0,-4,-2,1
230905,57,8154,-235,0,-4,-2,1
230910,55,8152,-236,0,-4,-2,1
230915,50,8150,-236,0,-4,-2,1
230920,46,8155,-241,0,-4,-2,1
230925,36,8155,-252,0,-4,-2,1
230930,31,8150,-254,0,-4,-2,1
230935,25,8149,-261,0,-3,-2,1
230940,23,8146,-267,0,-3,-2,1
230945,23,8146,-273,0,-2,-2,1
230950,25,8143,-279,0,-2,-2,1
230955,26,8142,-285,-1,-2,-2,1
230960,35,8143,-287,-1,-2,-2,1
230965,39,8142,-288,-1,-3,-2,1
230970,41,8140,-290,-1,-3,-2,1
230975,44,8140,-291,-1,-3,-2,1
230980,49,8141,-293,-1,-3,-2,1
230985,53,8145,-297,-1,-3,-2,1
230990,53,8148,-297,-1,-3,-2,1
230995,51,8149,-297,-1,-4,-2,1
231000,47,8149,-288,-1,-4,-2,1
231005,38,8147,-281,-1,-4,-2,1
231010,30,8149,-271,-1,-4,-2,1
231015,26,8149,-263,-1,-4,-2,1
231020,21,8147,-257,-1,-4,-2,1
231025,15,8145,-256,-1,-4,-2,1
231030,5,8143,-257,-1,-4,-2,1
231035,-6,8143,-257,-1,-4,-2,1
231040,-13,8144,-258,-1,-3,-2,1
231045,-23,8145,-258,-1,-3,-2,1
231050,-34,8147,-253,-1,-2,-2,1
231055,-46,8147,-251,-1,-2,-2,1
231060,-55,8145,-249,-1,-2,-2,1
231065,-61,8145,-246,-1,-1,-2,1
231070,-66,8144,-246,-1,-1,-2,1
231075,-64,8144,-242,-1,-2,-2,1
231080,-62,8145,-238,-1,-2,-2,1
231085,-56,8147,-235,-1,-2,-2,1
231090,-52,8148,-231,-1,-2,-2,1
231095,-48,8149,-226,-1,-2,-2,1
231100,-43,8150,-220,-1,-2,-2,1
231105,-40,8150,-218,-1,-2,-2,1
231110,-36,8152,-217,-1,-3,-2,1
231115,-31,8155,-207,-1,-3,-2,1
231120,-26,8156,-200,-1,-3,-2,1
231125,-25,8156,-205,-1,-3,-1,1
231130,-26,8155,-209,-1,-2,-2,1
231135,-27,8153,-217,-1,-2,-2,1
231140,-29,8153,-218,-1,-1,-2,1
231145,-36,8156,-215,-1,-1,-2,1
231150,-40,8154,-206,-1,0,-1,1
231155,-40,8153,-203,-1,0,-1,1
231160,-35,8152,-201,-1,0,-1,1
231165,-26,8152,-191,-1,-1,-1,1
231170,-15,8155,-186,-1,-1,-1,1
231175,0,8158,-176,-1,-1,-1,1
231180,12,8158,-176,-1,-1,-1,1
231185,21,8159,-169,-1,-1,-1,1
231190,27,8159,-162,-1,-1,-1,1
231195,34,8159,-159,-1,-1,-2,1
231200,45,8159,-155,-1,-1,-2,1
231205,52,8157,-149,-1,-1,-2,1
231210,55,8158,-145,-1,-1,-2,1
231215,55,8159,-144,-1,-1,-2,1
231220,51,8161,-149,-1,-1,-2,1
231225,49,8159,-151,-1,-1,-2,1
231230,48,8157,-158,-1,-1,-2,1
231235,43,8154,-161,-1,-1,-2,1
231240,42,8155,-165,-1,-1,-2,1
231245,41,8157,-169,-1,-1,-2,1
231250,39,8156,-173,-1,-1,-2,1
231255,38,8153,-177,-1,-1,-2,1
231260,39,8149,-184,-1,-2,-2,1
231265,38,8146,-190,-1,-2,-2,1
231270,37,8145,-197,-1,-2,-2,1
231275,36,8146,-203,-1,-2,-2,1
231280,36,8150,-200,-1,-2,-2,1
231285,39,8151,-200,-1,-2,-2,1
231290,46,8151,-201,-1,-2,-2,1
231295,60,8151,-196,-1,-2,-2,1
231300,70,8155,-193,-1,-3,-2,1
231305,80,8156,-186,-1,-3,-2,1
231310,87,8156,-184,-1,-4,-2,1
231315,87,8157,-187,-1,-5,-2,1
231320,82,8157,-188,-1,-5,-2,1
231325,72,8160,-184,-1,-5,-2,1
231330,60,8159,-191,-1,-4,-2,1
231335,50,8156,-200,-1,-4,-2,1
231340,47,8157,-212,-1,-4,-2,1
231345,44,8156,-220,-1,-3,-2,1
231350,43,8155,-224,-1,-3,-2,1
231355,39,8153,-228,-1,-3,-2,1
231360,41,8151,-229,-1,-3,-2,1
231365,44,8149,-229,-1,-3,-2,1
231370,40,8145,-233,-1,-3,-2,1
231375,36,8143,-239,-1,-3,-2,1
231380,30,8145,-244,-1,-3,-2,1
231385,21,8147,-246,-1,-3,-2,1
231390,9,8148,-246,-1,-3,-2,1
231395,-3,8146,-244,-1,-3,-2,1
231400,-11,8145,-242,-1,-3,-2,1
231405,-11,8144,-232,-1,-3,-2,1
231410,-9,8140,-232,-1,-3,-2,1
231415,-7,8143,-233,-1,-3,-2,1
231420,-2,8143,-230,-1,-3,-2,1
231425,3,8147,-224,-1,-3,-2,1
231430,6,8149,-221,-1,-3,-2,1
231435,10,8150,-218,-1,-3,-2,1
231440,9,8153,-215,-1,-3,-2,1
231445,8,8155,-217,-1,-3,-2,1
231450,8,8156,-215,-1,-2,-2,1
231455,6,8156,-213,-1,-2,-2,1
231460,5,8157,-215,-1,-2,-2,1
231465,7,8159,-214,-1,-2,-2,1
231470,11,8157,-212,-1,-2,-2,1
231475,12,8159,-217,-1,-2,-2,1
231480,12,8157,-223,-1,-2,-2,1
231485,9,8158,-224,-1,-2,-2,1
231490,7,8159,-221,-1,-1,-2,1
231495,4,8156,-219,-1,-2,-2,1
231500,-2,8154,-215,-1,-2,-2,1
231505,-8,8156,-212,-1,-3,-2,1
231510,-17,8156,-214,-1,-3,-2,1
231515,-25,8154,-214,-1,-3,-2,1
231520,-30,8152,-214,-1,-2,-2,1
231525,-34,8152,-216,-1,-2,-2,1
231530,-43,8150,-214,-1,-2,-2,1
231535,-49,8150,-213,-1,-1,-2,1
231540,-47,8146,-207,-1,-1,-2,1
231545,-45,8149,-195,-1,-1,-2,1
231550,-44,8151,-195,-1,-1,-2,1
231555,-45,8153,-196,-1,-1,-2,1
231560,-44,8154,-194,-1,0,-2,1
231565,-40,8153,-194,-1,0,-2,1
231570,-35,8153,-195,-1,1,-2,1
231575,-31,8154,-192,-1,1,-2,1
231580,-23,8157,-187,-1,1,-2,1
231585,-10,8158,-185,-1,1,-2,1
231590,1,8158,-190,-1,0,-2,1
231595,12,8157,-189,-1,0,-2,1
231600,23,8156,-192,-1,-1,-2,1
231605,28,8153,-198,-1,-1,-2,1
231610,30,8151,-208,-1,-1,-2,1
231615,31,8148,-207,-1,-2,-2,1
231620,24,8148,-209,-1,-2,-2,1
231625,14,8150,-219,-1,-2,-2,1
231630,2,8153,-212,-1,-1,-2,1
231635,-2,8157,-207,-1,-1,-2,1
231640,0,8159,-208,-1,-1,-2,1
231645,1,8160,-214,-1,-1,-2,1
231650,2,8162,-218,-1,-1,-2,1
231655,2,8161,-223,-1,-1,-2,1
231660,1,8163,-224,-1,-1,-2,1
231665,4,8164,-226,-1,0,-2,1
231670,9,8160,-220,-1,0,-2,1
231675,17,8157,-216,-1,0,-2,1
231680,24,8156,-215,-1,0,-2,1
231685,28,8157,-215,-1,-1,-2,1
231690,30,8158,-215,-1,-1,-2,1
231695,26,8160,-217,-1,-1,-2,1
231700,28,8159,-224,-1,-1,-2,1
231705,25,8158,-231,-1,-1,-2,1
231710,22,8158,-237,-1,-1,-2,1
231715,22,8157,-239,-1,0,-2,1
231720,20,8157,-245,-1,0,-2,1
231725,21,8154,-251,-1,0,-2,1
231730,20,8153,-251,-1,0,-2,1
231735,21,8151,-254,-1,0,-2,1
231740,23,8151,-260,-1,0,-2,1
231745,23,8145,-271,-1,0,-2,1
231750,23,8146,-284,-1,1,-2,1
231755,14,8147,-291,-2,1,-2,1
231760,5,8150,-283,-2,2,-2,1
231765,-14,8138,-227,-2,1,-2,1
231770,-23,8146,-169,-1,-5,-2,1
231775,-20,8166,-144,-2,-11,-2,1
231780,4,8167,-179,-1,-12,-2,1
231785,25,8155,-231,-1,-8,-2,1
231790,22,8145,-284,-1,-3,-2,1
231795,11,8147,-323,-2,2,-2,1
231800,-11,8151,-336,-2,3,-2,1
231805,-31,8155,-314,-2,3,-2,1
231810,-47,8159,-273,-2,2,-2,1
231815,-50,8160,-223,-2,0,-2,1
231820,-41,8158,-186,-2,-2,-2,1
231825,-15,8151,-173,-2,-3,-2,1
231830,25,8147,-177,-2,-4,-2,1
231835,63,8143,-188,-2,-5,-2,1
231840,84,8145,-201,-2,-6,-2,1
231845,76,8143,-207,-2,-7,-2,1
231850,47,8142,-212,-2,-6,-2,1
231855,9,8143,-207,-2,-6,-2,1
231860,-21,8144,-203,-2,-5,-2,1
231865,-38,8146,-202,-2,-4,-2,1
231870,-41,8147,-203,-2,-4,-2,1
231875,-34,8147,-202,-2,-4,-2,1
231880,-27,8146,-197,-2,-4,-2,1
231885,-19,8144,-187,-2,-4,-2,1
231890,-15,8144,-177,-2,-3,-2,1
231895,-16,8147,-174,-2,-3,-2,1
231900,-22,8149,-174,-1,-3,-2,1
231905,-32,8148,-169,-1,-3,-2,1
231910,-40,8149,-169,-1,-4,-2,1
231915,-47,8152,-173,-1,-4,-2,1
231920,-48,8153,-182,-1,-5,-2,1
231925,-50,8154,-187,-1,-4,-2,1
231930,-49,8155,-187,-1,-4,-2,1
231935,-42,8154,-184,-1,-3,-2,1
231940,-30,8153,-182,-1,-3,-2,1
231945,-18,8151,-180,-1,-2,-2,1
231950,-9,8150,-169,-1,-2,-2,1
231955,-3,8150,-153,-1,-2,-2,1
231960,-1,8154,-143,-1,-2,-2,1
231965,2,8156,-144,-1,-3,-2,1
231970,4,8153,-150,-1,-3,-2,1
231975,7,8150,-155,-1,-3,-2,1
231980,12,8152,-160,-1,-3,-2,1
231985,13,8153,-165,-1,-3,-2,1
231990,14,8152,-174,-1,-2,-2,1
231995,19,8153,-182,-1,-2,-2,1
232000,22,8150,-186,-1,-2,-2,1
232005,20,8149,-183,-1,-3,-2,1
232010,18,8145,-181,-1,-3,-2,1
232015,13,8143,-183,-1,-3,-2,1
232020,6,8143,-182,-1,-3,-2,1
232025,0,8144,-186,-1,-3,-2,1
232030,-6,8146,-191,-1,-3,-2,1
232035,-11,8146,-194,-1,-3,-2,1
232040,-14,8146,-194,-1,-2,-2,1
232045,-12,8147,-194,-1,-2,-2,1
232049,-9,8147,-197,-1,-1,-2,1
232055,-8,8147,-201,-1,-1,-2,1
232060,-9,8147,-202,-1,-2,-2,1
232065,-8,8147,-204,-1,-2,-2,1
232070,-8,8146,-196,-1,-3,-2,1
232074,-6,8144,-185,-1,-3,-2,1
232080,-2,8143,-182,-1,-4,-2,1
232085,4,8146,-180,-1,-4,-2,1
232089,9,8148,-183,-1,-4,-2,1
232094,9,8145,-183,-1,-4,-2,1
232099,7,8147,-189,-1,-5,-2,1
232105,4,8152,-191,-1,-6,-2,1
232110,1,8156,-191,-1,-6,-2,1
232115,-3,8158,-195,-1,-7,-2,1
232120,-12,8157,-200,-1,-8,-2,1
232124,-10,8147,-191,-1,-9,-2,1
232129,-11,8150,-179,-1,-11,-2,1
232134,-2,8153,-177,-1,-13,-2,1
232139,8,8154,-176,-1,-13,-2,1
232144,21,8157,-159,-1,-12,-2,1
232150,22,8162,-137,-1,-13,-2,1
232154,26,8165,-136,-1,-15,-2,1
232159,25,8170,-148,-1,-16,-2,1
232165,24,8176,-163,-1,-17,-2,1
232169,16,8191,-176,-1,-18,-2,1
232174,7,8196,-175,-1,-20,-2,1
232179,-2,8197,-167,-1,-23,-2,1
232185,-25,8198,-143,-1,-27,-2,1
232190,-45,8198,-114,-1,-30,-2,1
232194,-64,8195,-94,-1,-34,-2,1
232199,-66,8195,-103,0,-38,-2,1
232204,-71,8191,-152,0,-42,-1,1
232209,-78,8194,-211,0,-45,-1,1
232214,-103,8213,-262,0,-45,-1,1
232219,-139,8260,-300,0,-42,-1,1
232224,-157,8315,-338,-1,-36,-2,1
232229,-160,8384,-379,-1,-30,-1,1
232234,-145,8422,-418,-1,-23,-1,1
232240,-99,8435,-438,-1,-19,-1,1
232244,-78,8430,-434,-1,-16,-1,1
232249,-43,8409,-401,-1,-15,-1,1
232254,1,8392,-356,-1,-13,-1,1
232259,62,8385,-365,-1,-16,-1,1
232264,111,8379,-350,-1,-23,-1,1
232269,108,8375,-350,-1,-27,0,1
232274,119,8369,-374,-1,-29,0,1
232279,139,8365,-387,-1,-29,1,1
232284,174,8371,-395,-2,-28,1,1
232289,228,8391,-392,-2,-29,2,1
232294,258,8424,-377,-2,-30,3,1
232299,304,8468,-352,-2,-32,5,1
232304,321,8517,-325,-2,-32,6,1
232309,332,8563,-339,-2,-31,7,1
232314,421,8603,-319,-2,-26,7,1
232319,489,8644,-287,-2,-13,7,1
232324,540,8686,-282,-1,-3,7,1
232329,610,8727,-277,-1,-5,8,1
232334,684,8771,-274,-1,-16,10,1
232339,754,8829,-255,-2,-29,12,1
232344,803,8898,-258,-1,-35,14,1
232349,831,8975,-303,-1,-33,16,1
232354,843,9054,-358,-1,-26,17,1
232359,877,9134,-410,-1,-19,19,1
232364,915,9202,-451,-1,-16,20,1
232369,985,9262,-489,0,-16,22,1
232374,1067,9313,-532,0,-18,24,1
232379,1149,9357,-576,0,-19,26,1
232384,1235,9402,-634,0,-20,28,1
232389,1307,9456,-690,1,-19,30,1
232394,1378,9526,-748,1,-18,32,1
232399,1433,9604,-792,1,-16,34,1
232404,1484,9686,-836,1,-14,36,1
232409,1513,9775,-882,2,-11,38,1
232414,1550,9872,-931,2,-7,40,1
232419,1584,9969,-974,2,-1,42,1
232424,1631,10061,-995,2,5,45,1
232429,1694,10139,-1013,3,11,47,1
232434,1781,10205,-1028,3,15,49,1
232439,1891,10262,-1034,3,19,51,1
232444,2024,10314,-1039,3,22,54,1
232449,2164,10355,-1048,4,25,56,1
232454,2318,10384,-1054,4,27,58,1
232459,2493,10401,-1053,4,27,61,1
232464,2669,10400,-1035,5,26,63,1
232469,2842,10373,-1026,5,24,65,1
232474,3001,10325,-1017,6,21,67,1
232479,3136,10262,-1004,7,18,69,1
232484,3243,10185,-988,8,16,72,1
232489,3327,10097,-963,8,16,74,1
232494,3390,10003,-943,9,17,76,1
232499,3435,9903,-917,10,21,78,1
232504,3475,9805,-889,10,24,81,1
232509,3511,9713,-863,10,28,83,1
232514,3547,9626,-843,11,32,85,1
232519,3581,9548,-826,11,36,87,1
232524,3618,9490,-809,11,39,89,1
232529,3655,9461,-794,11,41,91,1
232534,3692,9458,-786,11,42,93,1
232539,3727,9472,-780,11,42,96,1
232544,3763,9500,-766,11,41,98,1
232549,3793,9536,-747,11,41,100,1
232554,3821,9576,-713,11,40,102,1
232559,3843,9614,-679,11,39,104,1
232564,3852,9649,-655,10,37,106,1
232569,3854,9675,-636,10,37,108,1
232574,3856,9683,-622,10,38,111,1
232579,3872,9675,-615,9,40,113,1
232584,3899,9649,-603,9,41,114,1
232589,3937,9611,-592,8,43,116,1
232594,3982,9565,-584,8,43,118,1
232599,4027,9515,-571,7,44,120,1
232604,4077,9459,-559,7,45,122,1
232609,4141,9405,-541,6,48,124,1
232614,4212,9363,-514,6,50,125,1
232619,4288,9331,-493,5,52,127,1
232624,4363,9307,-464,4,52,129,1
232629,4440,9284,-439,3,52,131,1
232634,4525,9253,-409,2,52,132,1
232639,4607,9209,-383,1,52,134,1
232644,4691,9155,-354,0,51,135,1
232649,4779,9086,-326,-1,51,136,1
232654,4877,9006,-309,-1,50,137,1
232659,4960,8910,-267,-2,51,139,1
232664,5012,8807,-242,-3,52,140,1
232669,5096,8702,-228,-3,55,141,1
232674,5195,8611,-211,-4,59,142,1
232679,5324,8534,-182,-5,61,143,1
232684,5464,8465,-141,-6,60,144,1
232689,5605,8396,-79,-7,56,145,1
232694,5735,8325,22,-8,49,145,1
232699,5812,8260,70,-9,40,146,1
232704,5834,8205,116,-10,30,148,1
232709,5851,8153,173,-11,25,150,1
232714,5859,8094,230,-11,33,150,1
232719,5918,8014,282,-12,47,150,1
232724,6018,7912,335,-13,56,150,1
232729,6155,7797,402,-14,55,150,1
232734,6281,7683,464,-15,46,150,1
232739,6394,7580,520,-15,35,151,1
232744,6481,7485,571,-16,29,151,1
232749,6563,7388,619,-16,29,151,1
232754,6634,7273,673,-17,32,151,1
232759,6692,7138,742,-17,33,150,1
232764,6735,6986,804,-18,32,150,1
232769,6759,6838,870,-19,31,150,1
232774,6769,6706,937,-19,30,150,1
232779,6772,6599,996,-20,31,149,1
232784,6772,6503,1057,-20,33,148,1
232789,6761,6415,1112,-21,34,148,1
232794,6751,6321,1166,-22,33,147,1
232799,6729,6223,1220,-23,30,146,1
232804,6725,6114,1235,-23,29,146,1
232809,6609,6010,1316,-24,29,145,1
232814,6589,5912,1321,-25,29,144,1
232819,6597,5821,1335,-25,29,143,1
232824,6644,5719,1352,-26,25,143,1
232829,6605,5595,1401,-27,23,142,1
232834,6562,5440,1413,-28,23,141,1
232839,6474,5269,1454,-28,22,139,1
232844,6413,5096,1481,-29,18,138,1
232849,6317,4938,1502,-29,16,138,1
232854,6257,4792,1490,-30,19,137,1
232859,6214,4655,1524,-30,25,136,1
232864,6219,4524,1581,-31,29,134,1
232869,6222,4394,1643,-32,29,133,1
232874,6248,4261,1687,-33,26,132,1
232879,6264,4124,1728,-34,24,131,1
232884,6289,3990,1758,-34,25,130,1
232889,6325,3851,1783,-35,27,128,1
232894,6391,3711,1807,-35,29,127,1
232899,6455,3562,1837,-36,28,126,1
232904,6505,3405,1855,-37,24,124,1
232909,6527,3246,1866,-37,21,123,1
232914,6538,3084,1870,-38,20,122,1
232919,6545,2926,1868,-38,20,121,1
232924,6558,2772,1873,-39,22,119,1
232929,6599,2618,1835,-39,22,118,1
232934,6499,2474,1940,-40,22,117,1
232939,6403,2326,1963,-40,27,115,1
232944,6303,2187,1916,-41,38,113,1
232949,6263,2058,1755,-40,45,112,1
232954,6263,1943,1784,-41,44,110,1
232959,6339,1822,1850,-41,34,109,1
232964,6398,1700,1954,-41,22,108,1
232969,6445,1583,2002,-42,16,107,1
232974,6491,1458,2045,-42,15,105,1
232979,6548,1322,2086,-42,16,104,1
232984,6596,1177,2149,-42,16,103,1
232989,6627,1029,2209,-42,13,103,1
232994,6646,882,2261,-42,12,102,1
232999,6663,726,2311,-43,14,101,1
233004,6675,559,2347,-43,16,100,1
233009,6676,386,2364,-44,18,99,1
233014,6660,208,2366,-44,17,98,1
233019,6629,39,2359,-44,17,97,1
233024,6593,-114,2355,-44,17,95,1
233029,6565,-257,2347,-44,17,94,1
233034,6550,-389,2329,-44,17,93,1
233039,6540,-504,2319,-44,16,92,1
233044,6542,-600,2327,-44,16,91,1
233049,6556,-685,2354,-44,16,90,1
233054,6577,-760,2380,-44,15,89,1
233059,6601,-833,2397,-44,12,88,1
233064,6611,-914,2393,-44,9,87,1
233069,6607,-1001,2380,-44,7,86,1
233074,6585,-1103,2354,-44,6,86,1
233079,6554,-1220,2316,-43,6,85,1
233084,6531,-1347,2277,-43,6,84,1
233089,6509,-1483,2232,-43,6,83,1
233094,6485,-1620,2183,-43,5,82,1
233099,6449,-1757,2132,-42,4,81,1
233104,6407,-1891,2080,-42,4,81,1
233109,6361,-2023,2037,-42,6,80,1
233114,6315,-2149,2003,-42,9,79,1
233119,6274,-2266,1968,-42,13,78,1
233124,6234,-2381,1945,-42,16,77,1
233129,6199,-2501,1932,-42,18,76,1
233134,6160,-2624,1920,-42,20,75,1
233139,6111,-2748,1894,-42,22,75,1
233144,6063,-2880,1877,-42,23,74,1
233149,6021,-3012,1869,-42,25,73,1
233154,5981,-3138,1856,-42,26,72,1
233159,5945,-3263,1844,-42,27,71,1
233164,5909,-3389,1840,-42,26,70,1
233169,5867,-3512,1841,-42,25,70,1
233174,5818,-3635,1846,-42,25,69,1
233179,5765,-3755,1847,-42,26,68,1
233184,5709,-3868,1850,-42,29,67,1
233189,5657,-3970,1858,-42,32,66,1
233194,5618,-4059,1860,-42,35,65,1
233199,5590,-4133,1871,-43,37,64,1
233204,5570,-4197,1892,-43,39,63,1
233209,5561,-4250,1913,-43,40,62,1
233214,5558,-4291,1936,-43,40,61,1
233219,5564,-4315,1969,-43,39,60,1
233224,5572,-4331,2004,-43,37,59,1
233229,5582,-4350,2042,-43,33,57,1
233234,5589,-4372,2081,-43,29,56,1
233239,5592,-4395,2108,-43,25,55,1
233244,5584,-4425,2127,-43,22,54,1
233249,5559,-4464,2132,-43,18,53,1
233254,5529,-4508,2126,-43,15,52,1
233259,5489,-4559,2127,-43,13,51,1
233264,5432,-4614,2125,-43,12,50,1
233269,5376,-4676,2108,-43,12,49,1
233274,5323,-4737,2085,-42,13,48,1
233279,5282,-4804,2074,-42,14,47,1
233284,5252,-4878,2061,-42,13,46,1
233289,5235,-4960,2044,-42,12,45,1
233294,5228,-5047,2026,-42,9,44,1
233299,5224,-5141,2010,-42,7,43,1
233304,5216,-5236,1996,-42,3,42,1
233309,5203,-5331,1971,-42,0,41,1
233314,5183,-5422,1947,-41,-3,40,1
233319,5153,-5508,1934,-41,-6,39,1
233324,5115,-5587,1927,-41,-8,39,1
233329,5065,-5658,1925,-41,-10,38,1
233334,4998,-5727,1927,-40,-10,37,1
233339,4909,-5797,1933,-40,-10,36,1
233344,4816,-5872,1926,-40,-8,36,1
233349,4717,-5950,1908,-40,-5,35,1
233354,4619,-6039,1890,-39,-1,34,1
233359,4526,-6129,1866,-39,3,33,1
233364,4442,-6221,1836,-39,6,32,1
233369,4373,-6314,1794,-39,8,32,1
233374,4315,-6407,1756,-39,10,31,1
233379,4278,-6500,1711,-39,12,30,1
233384,4253,-6589,1667,-39,12,29,1
233389,4237,-6674,1635,-39,12,28,1
233394,4217,-6751,1603,-39,11,27,1
233399,4189,-6816,1570,-39,11,26,1
233404,4160,-6863,1542,-39,13,25,1
233409,4127,-6896,1518,-39,16,24,1
233414,4094,-6914,1500,-39,20,23,1
233419,4061,-6916,1477,-39,23,21,1
233424,4028,-6903,1450,-39,25,20,1
233429,3994,-6877,1421,-40,26,19,1
233434,3956,-6843,1395,-40,26,18,1
233439,3933,-6806,1232,-40,28,16,1
233444,3886,-6795,308,-39,41,15,1
233449,3667,-6782,-739,-36,108,14,1
233454,3508,-6723,-813,-31,216,14,1
233459,4184,-6712,-940,-27,257,17,1
233464,4950,-6671,-870,-24,215,22,1
233469,5479,-6481,-509,-24,125,24,1
233474,5800,-6260,-103,-23,47,22,1
233479,5921,-6107,291,-21,7,21,1
233484,5571,-6021,565,-19,-17,19,1
233489,5361,-5942,610,-18,-63,18,1
233494,5150,-5883,558,-18,-89,17,1
233499,4426,-5868,684,-17,-78,17,1
233504,3817,-5927,716,-17,-55,17,1
233509,3567,-6028,688,-17,-17,18,1
233514,3756,-6099,845,-18,31,19,1
233519,4296,-6203,1175,-19,74,19,1
233524,4851,-6349,1512,-20,84,20,1
233529,5338,-6468,1728,-21,57,22,1
233534,5587,-6540,1790,-22,17,24,1
233539,5681,-6580,1775,-22,-10,24,1
233544,5582,-6626,1716,-22,-15,24,1
233549,5355,-6741,1533,-22,-13,24,1
233554,5099,-6876,1104,-22,-12,25,1
233559,4782,-6970,697,-21,1,27,1
233564,4574,-7003,407,-20,27,29,1
233569,4548,-6994,252,-19,51,31,1
233573,4609,-6955,279,-18,60,32,1
233579,4649,-6886,402,-18,58,32,1
233584,4626,-6804,552,-18,52,32,1
233589,4505,-6718,678,-19,47,32,1
233594,4351,-6632,754,-19,46,32,1
233599,4254,-6549,767,-20,51,33,1
233604,4165,-6476,797,-20,62,33,1
233609,4112,-6419,825,-20,71,32,1
233614,4127,-6368,851,-21,75,32,1
233618,4189,-6339,882,-21,74,32,1
233624,4223,-6323,924,-21,67,32,1
233629,4182,-6312,958,-22,61,33,1
233633,4109,-6296,995,-22,60,33,1
233638,4050,-6273,1017,-23,65,33,1
233643,4014,-6247,1033,-23,72,33,1
233649,4003,-6217,1102,-23,79,33,1
233653,3957,-6174,1148,-24,83,33,1
233659,3978,-6110,1187,-24,85,33,1
233663,3995,-6054,1220,-25,83,33,1
233669,4013,-6003,1257,-25,79,34,1
233673,4027,-5955,1296,-26,75,34,1
233678,3952,-5913,1331,-26,72,34,1
233684,3825,-5876,1363,-26,72,34,1
233688,3698,-5855,1372,-27,75,35,1
233693,3621,-5859,1367,-27,81,35,1
233698,3593,-5902,1402,-27,88,35,1
233703,3625,-5970,1461,-27,90,35,1
233708,3701,-6042,1580,-27,86,35,1
233713,3747,-6097,1679,-26,81,35,1
233718,3784,-6186,1687,-26,75,35,1
233723,4029,-6298,1738,-26,64,34,1
233728,4409,-6333,1824,-26,44,33,1
233733,4652,-6403,1879,-25,16,32,1
233738,4598,-6532,1856,-24,-16,32,1
233743,4360,-6671,1823,-23,-48,33,1
233748,4157,-6785,1743,-22,-60,35,1
233753,4050,-6865,1655,-20,-48,35,1
233758,3949,-6922,1588,-19,-29,33,1
233763,3817,-6964,1551,-18,-25,31,1
233768,3692,-7000,1545,-18,-38,31,1
233773,3602,-7032,1546,-18,-56,31,1
233778,3541,-7052,1547,-18,-68,32,1
233783,3480,-7055,1517,-17,-71,32,1
233788,3384,-7044,1470,-16,-68,31,1
233793,3262,-7019,1408,-15,-66,31,1
233798,3151,-6987,1349,-14,-66,32,1
233803,3056,-6940,1308,-14,-67,32,1
233808,2980,-6891,1289,-13,-68,33,1
233813,2918,-6842,1270,-12,-69,33,1
233818,2849,-6785,1246,-11,-70,33,1
233823,2769,-6704,1239,-11,-73,33,1
233828,2699,-6599,1240,-10,-78,33,1
233833,2637,-6477,1258,-9,-83,34,1
233838,2586,-6349,1265,-9,-88,34,1
233843,2526,-6227,1239,-8,-92,34,1
233848,2471,-6091,1182,-8,-95,33,1
233853,2408,-5945,1105,-7,-99,33,1
233858,2355,-5762,1015,-7,-103,33,1
233863,2314,-5585,914,-6,-105,33,1
233868,2270,-5447,792,-5,-106,33,1
233873,2259,-5542,639,-5,-107,33,1
233878,2222,-5704,514,-4,-109,33,1
233883,2164,-5769,426,-4,-112,33,1
233888,2096,-5803,352,-3,-107,33,1
233893,2008,-5858,302,-2,-94,33,1
233898,1903,-5953,236,-2,-77,32,1
233903,1800,-6099,179,-2,-56,32,1
233908,1731,-6220,132,-2,-31,33,1
233913,1706,-6246,75,-3,-3,33,1
233918,1659,-6067,-25,-3,25,32,1
233923,1569,-5743,-108,-3,43,32,1
233928,1440,-5625,-169,-4,47,32,1
233933,1338,-5775,-137,-3,39,32,1
233938,1230,-6173,-35,-3,18,32,1
233943,1338,-6761,85,-2,-19,32,1
233948,1483,-7410,208,-2,-63,32,1
233953,1671,-8020,363,-1,-107,32,1
233958,1804,-8528,507,-1,-139,33,1
233963,1888,-8887,628,0,-155,34,1
233968,1927,-9208,656,0,-156,35,1
233973,1902,-9517,604,1,-144,36,1
233978,1817,-9759,510,1,-125,36,1
233983,1680,-9960,408,1,-103,36,1
233988,1530,-10159,342,1,-80,37,1
233993,1424,-10356,326,1,-56,37,1
233998,1403,-10546,321,1,-38,37,1
234003,1447,-10711,285,1,-27,37,1
234008,1515,-10826,239,1,-24,38,1
234013,1562,-10875,189,1,-25,38,1
234018,1550,-10861,151,1,-26,38,1
234023,1481,-10798,128,2,-25,39,1
234028,1379,-10696,109,2,-23,39,1
234033,1255,-10559,93,2,-19,39,1
234038,1118,-10387,108,2,-15,39,1
234043,972,-10189,154,2,-11,38,1
234048,832,-9985,210,2,-7,38,1
234053,705,-9781,262,2,-4,37,1
234058,599,-9585,283,2,-2,37,1
234063,518,-9396,284,2,-2,37,1
234068,456,-9216,291,2,-3,36,1
234073,391,-9052,317,1,-3,35,1
234078,932,-10099,288,3,-7,35,1
234083,90,-9709,621,1,-60,41,1
234088,1373,-8660,750,2,-93,19,1
234093,2190,-7773,578,2,10,18,1
234098,1772,-7121,611,3,93,13,1
234103,1515,-6748,840,3,79,7,1
234108,1223,-8124,996,1,43,9,1
234113,745,-7596,1072,-3,-4,17,1
234118,528,-8199,1285,-2,-32,10,1
234123,141,-7815,1339,-1,-30,8,1
234128,157,-7920,1410,1,-15,4,1
234133,50,-8110,1412,1,12,1,1
234138,139,-8240,1590,2,32,-3,1
234143,30,-8283,1694,2,49,-6,1
234148,-89,-8276,1720,1,49,-8,1
234153,-71,-8255,1815,1,47,-8,1
234158,-128,-8249,1849,1,46,-8,1
234163,-205,-8255,1806,1,41,-7,1
234168,-241,-8258,1823,1,35,-6,1
234173,-229,-8265,1726,0,30,-5,1
234178,-127,-8280,1603,0,29,-4,1
234183,18,-8278,1560,-1,28,-3,1
234188,175,-8273,1431,-2,26,-4,1
234193,359,-8272,1328,-2,27,-5,1
234198,445,-8256,1336,-3,30,-6,1
234203,503,-8251,1262,-3,29,-6,1
234208,565,-8256,1199,-2,29,-6,1
234213,529,-8252,1220,-2,26,-5,1
234218,605,-8255,1085,-2,18,-4,1
234223,647,-8259,1015,-2,16,-4,1
234228,738,-8252,993,-2,11,-3,1
234233,837,-8253,848,-2,10,-4,1
234238,901,-8258,768,-2,13,-5,1
234243,930,-8256,740,-2,14,-5,1
234248,940,-8261,604,-2,14,-5,1
234253,931,-8265,570,-2,17,-5,1
234258,919,-8264,551,-2,17,-4,1
234263,977,-8268,441,-2,17,-4,1
234268,1028,-8262,454,-2,20,-3,1
234273,1114,-8256,439,-1,19,-3,1
234278,1222,-8257,352,-1,18,-3,1
234283,1290,-8254,383,-1,18,-4,1
234288,1330,-8252,371,-1,13,-3,1
234293,1362,-8260,308,-1,9,-3,1
234298,1348,-8258,376,-1,7,-3,1
234303,1340,-8254,377,-1,2,-2,1
234308,1340,-8254,359,-1,0,-2,1
234313,1334,-8244,436,-1,-1,-2,1
234318,1361,-8240,420,0,-5,-1,1
234323,1364,-8243,412,0,-6,-2,1
234328,1336,-8244,487,0,-9,-2,1
234333,1305,-8247,461,0,-13,-2,1
234338,1240,-8251,476,0,-14,-2,1
234343,1154,-8249,556,0,-14,-1,1
234348,1117,-8253,526,0,-15,-1,1
234353,1046,-8260,553,0,-11,-1,1
234358,1018,-8260,612,0,-10,-1,1
234363,1017,-8266,562,0,-9,-1,1
234368,989,-8272,588,0,-7,-1,1
234373,970,-8270,637,-1,-7,-2,1
234378,961,-8272,594,-1,-7,-2,1
234383,910,-8272,654,-1,-6,-1,1
234388,892,-8265,710,-1,-7,-1,1
234393,892,-8267,681,-1,-7,-1,1
234398,867,-8269,742,-1,-5,-1,1
234403,895,-8263,764,-1,-7,-1,1
234408,913,-8265,705,-1,-7,-1,1
234413,895,-8266,740,-1,-6,-2,1
234418,889,-8264,735,-1,-8,-1,1
234423,868,-8267,686,-1,-7,-1,1
234428,815,-8267,740,-1,-6,-1,1
234433,807,-8261,734,-1,-7,-1,1
234438,791,-8261,700,-1,-5,-1,1
234443,773,-8260,742,-1,-4,-1,1
234448,790,-8258,710,-1,-5,-1,1
234453,774,-8264,673,-1,-4,-2,1
234458,740,-8265,714,-1,-4,-2,1
234463,727,-8263,675,-1,-5,-2,1
234468,681,-8269,651,-1,-4,-2,1
234473,645,-8272,692,-1,-4,-2,1
234478,650,-8271,651,-1,-4,-2,1
234483,628,-8275,639,-1,-2,-2,1
234488,624,-8274,673,-1,-2,-2,1
234493,643,-8277,617,-1,-3,-2,1
234498,625,-8280,614,-1,-1,-2,1
234503,617,-8280,648,-2,-2,-2,1
234508,642,-8281,603,-2,-2,-2,1
234513,641,-8280,628,-2,0,-2,1
234518,665,-8273,668,-2,-1,-2,1
234523,711,-8269,622,-2,-1,-2,1
234528,722,-8268,653,-2,1,-2,1
234533,748,-8266,682,-2,-1,-2,1
234538,779,-8265,640,-2,-1,-2,1
234543,767,-8265,683,-2,0,-2,1
234548,787,-8262,704,-2,-1,-2,1
234553,813,-8263,668,-2,-1,-2,1
234558,806,-8263,709,-2,0,-2,1
234563,832,-8260,703,-2,-1,-2,1
234568,851,-8262,650,-2,0,-2,1
234573,834,-8264,686,-2,0,-2,1
234578,845,-8263,667,-2,-1,-2,1
234583,842,-8263,618,-2,-1,-2,1
234588,816,-8263,653,-2,-2,-2,1
234593,832,-8260,628,-2,-4,-2,1
234598,834,-8262,593,-2,-3,-2,1
234603,831,-8262,630,-2,-3,-2,1
234608,859,-8261,594,-2,-4,-2,1
234613,861,-8263,560,-2,-4,-2,1
234618,849,-8263,590,-2,-4,-2,1
234623,862,-8262,548,-2,-6,-2,1
234628,840,-8266,530,-2,-5,-2,1
234633,826,-8266,556,-2,-6,-2,1
234638,852,-8263,514,-2,-6,-2,1
234643,846,-8268,503,-2,-5,-2,1
234648,846,-8271,514,-2,-5,-2,1
234653,864,-8272,461,-2,-5,-2,1
234658,847,-8276,451,-2,-3,-2,1
234663,840,-8275,466,-2,-3,-2,1
234668,856,-8274,422,-2,-3,-2,1
234673,845,-8273,435,-2,-1,-2,1
234678,858,-8272,449,-2,-1,-2,1
234683,885,-8269,410,-2,-1,-2,1
234688,879,-8270,433,-1,0,-2,1
234693,889,-8267,440,-1,-1,-2,1
234698,898,-8265,402,-1,-1,-2,1
234703,878,-8266,428,-1,0,-2,1
234708,884,-8268,422,-1,-1,-2,1
234713,889,-8271,394,-1,0,-2,1
234718,874,-8273,434,-1,1,-2,1
234723,886,-8271,435,-1,1,-2,1
234728,889,-8271,417,-1,2,-2,1
234733,874,-8272,451,-1,2,-2,1
234738,886,-8269,442,-1,1,-2,1
234743,880,-8269,436,-1,1,-2,1
234748,863,-8270,470,-1,0,-2,1
234753,876,-8268,457,-1,-2,-2,1
234758,873,-8270,457,-1,-2,-2,1
234763,864,-8269,492,-1,-3,-2,1
234768,873,-8269,477,-1,-4,-2,1
234773,855,-8271,482,-1,-3,-2,1
234778,835,-8272,513,-1,-4,-2,1
234783,835,-8271,494,-1,-4,-2,1
234788,814,-8275,510,-1,-4,-2,1
234793,803,-8275,537,-1,-4,-2,1
234798,811,-8272,518,-1,-4,-2,1
234803,801,-8273,541,-1,-3,-2,1
234808,803,-8272,561,-1,-4,-2,1
234813,821,-8271,543,-1,-4,-2,1
234818,809,-8270,559,-1,-4,-2,1
234823,813,-8271,566,-1,-5,-2,1
234827,826,-8272,551,-1,-5,-2,1
234833,819,-8271,576,-1,-4,-2,1
234838,837,-8273,571,-1,-4,-2,1
234843,851,-8269,551,-1,-4,-2,1
234847,846,-8269,574,-1,-3,-2,1
234853,860,-8268,573,-1,-3,-2,1
234858,865,-8267,568,-1,-2,-2,1
234863,851,-8267,602,-1,-2,-2,1
234868,865,-8267,604,-1,-3,-2,1
234872,866,-8265,604,-1,-2,-2,1
234877,852,-8268,627,-1,-2,-2,1
234883,862,-8268,610,-1,-2,-2,1
234888,858,-8271,605,-1,-1,-2,1
234893,847,-8271,616,-1,-1,-2,1
234897,854,-8269,600,-1,-2,-2,1
234903,842,-8268,599,-1,-1,-2,1
234908,833,-8266,611,-1,-1,-2,1
234912,845,-8262,583,-1,-1,-2,1
234918,833,-8263,585,-1,0,-2,1
234922,830,-8264,590,-1,-1,-2,1
234927,840,-8263,561,-1,-1,-2,1
234932,826,-8261,563,-1,-1,-2,1
234938,819,-8259,559,-1,-2,-2,1
234943,824,-8260,534,-1,-3,-2,1
234948,805,-8264,542,-1,-2,-2,1
234952,804,-8265,531,-1,-2,-2,1
234957,808,-8268,507,-1,-2,-2,1
234963,794,-8268,516,-1,-1,-2,1
234967,795,-8267,510,-1,-2,-2,1
234972,803,-8267,493,-1,-1,-2,1
234977,795,-8268,507,-1,-1,-2,1
234982,806,-8266,498,-1,-2,-2,1
234987,814,-8263,496,-1,-2,-2,1
234992,808,-8261,513,-1,-2,-2,1
234997,820,-8260,504,-1,-3,-2,1
235002,828,-8261,514,-1,-3,-2,1
235007,823,-8260,547,-1,-3,-2,1
235012,835,-8259,553,-1,-4,-2,1
235017,834,-8259,573,-1,-4,-2,1
235022,828,-8257,603,-1,-4,-2,1
235027,842,-8258,604,-1,-4,-2,1
235032,843,-8262,618,-1,-3,-2,1
235037,842,-8264,636,-1,-3,-2,1
235042,857,-8265,624,-1,-4,-2,1
235047,855,-8267,631,-1,-3,-2,1
235052,855,-8267,639,-1,-4,-2,1
235057,870,-8266,624,-1,-4,-2,1
235062,866,-8266,628,-1,-3,-2,1
235067,864,-8266,621,-1,-4,-2,1
235072,867,-8265,596,-1,-4,-2,1
235077,851,-8263,595,-1,-3,-2,1
235082,841,-8263,579,-1,-3,-2,1
235087,835,-8266,555,-1,-3,-2,1
235092,815,-8271,556,-1,-2,-2,1
235097,809,-8269,546,-1,-2,-2,1
235102,807,-8267,528,-1,-1,-2,1
235107,793,-8267,537,-1,0,-2,1
235112,797,-8266,531,-1,-1,-2,1
235117,805,-8267,518,-1,0,-2,1
235122,802,-8268,531,-1,0,-2,1
235127,816,-8264,521,-1,-1,-2,1
235132,825,-8266,525,-1,-1,-2,1
235137,828,-8270,543,-1,-1,-2,1
235142,847,-8271,534,-1,-2,-2,1
235147,858,-8270,543,-1,-2,-2,1
235152,865,-8268,563,-1,-2,-2,1
235157,883,-8270,561,-1,-2,-2,1
235162,889,-8269,580,-2,-2,-2,1
235167,887,-8269,599,-2,-2,-2,1
235172,894,-8270,588,-2,-3,-1,1
235177,891,-8267,597,-2,-2,-1,1
235182,889,-8264,597,-2,-2,-1,1
235187,898,-8262,582,-2,-3,-1,1
235192,890,-8262,586,-2,-2,-1,1
235197,887,-8261,580,-2,-3,-1,1
235202,885,-8265,563,-2,-4,-1,1
235207,863,-8267,565,-2,-3,-1,1
235212,853,-8268,555,-2,-4,-1,1
235217,847,-8267,536,-2,-4,-1,1
235222,822,-8267,539,-2,-5,-1,1
235227,808,-8268,528,-1,-6,-1,1
235232,801,-8265,514,-1,-6,-1,1
235237,778,-8265,520,-1,-5,-1,1
235242,769,-8265,506,-1,-6,-2,1
235247,758,-8265,493,-1,-5,-2,1
235252,738,-8265,495,-2,-5,-2,1
235257,737,-8267,485,-2,-4,-2,1
235262,732,-8267,483,-1,-3,-2,1
235267,726,-8264,493,-1,-3,-2,1
235272,736,-8262,490,-1,-3,-2,1
235277,738,-8261,495,-1,-2,-2,1
235282,739,-8262,511,-1,-2,-2,1
235287,753,-8262,505,-1,-2,-2,1
235292,757,-8264,519,-1,-2,-2,1
235297,766,-8262,526,-1,-2,-2,1
235302,784,-8261,518,-2,-2,-2,1
235307,790,-8261,523,-2,-2,-2,1
235312,795,-8261,522,-1,-2,-2,1
235317,806,-8261,515,-1,-2,-2,1
235322,799,-8262,522,-2,-2,-2,1
235327,794,-8264,515,-1,-2,-2,1
235332,792,-8264,503,-1,-3,-2,1
235337,775,-8266,507,-1,-2,-2,1
235342,767,-8266,498,-1,-3,-2,1
235347,760,-8267,485,-1,-2,-2,1
235352,745,-8267,480,-1,-2,-2,1
235357,745,-8267,464,-1,-2,-2,1
235362,742,-8267,445,-1,-1,-2,1
235367,735,-8269,440,-1,-1,-2,1
235372,741,-8267,428,-1,-1,-2,1
235377,745,-8270,419,-1,-1,-2,1
235382,746,-8271,420,-1,-1,-2,1
235387,755,-8270,409,-1,-2,-2,1
235392,760,-8272,408,-1,-2,-2,1
235397,763,-8272,417,-1,-2,-2,1
235402,771,-8271,415,-1,-2,-2,1
235407,772,-8270,427,-1,-2,-2,1
235412,776,-8268,437,-1,-2,-2,1
235417,789,-8267,439,-1,-2,-2,1
235422,796,-8264,454,-1,-2,-2,1
235427,802,-8263,466,-1,-2,-2,1
235432,811,-8264,472,-1,-2,-2,1
235437,817,-8265,484,-1,-2,-2,1
235442,825,-8266,492,-1,-2,-2,1
235447,835,-8266,496,-1,-3,-2,1
235452,836,-8269,513,-1,-3,-2,1
235457,841,-8268,523,-1,-3,-2,1
235462,845,-8268,528,-1,-3,-2,1
235467,845,-8265,541,-1,-3,-2,1
235472,851,-8266,546,-1,-3,-2,1
235477,854,-8264,554,-1,-3,-2,1
235482,853,-8265,573,-1,-3,-2,1
235487,855,-8266,575,-1,-4,-2,1
235492,854,-8266,573,-1,-4,-2,1
235497,847,-8264,575,-1,-4,-2,1
235502,845,-8267,562,-1,-4,-2,1
235507,837,-8265,553,-1,-4,-2,1
235512,828,-8262,550,-1,-4,-2,1
235517,827,-8264,534,-1,-3,-2,1
235522,820,-8265,530,-1,-3,-2,1
235527,812,-8265,528,-1,-3,-2,1
235532,813,-8265,515,-1,-3,-2,1
235537,808,-8266,514,-1,-3,-2,1
235542,810,-8266,510,-1,-2,-2,1
235547,820,-8266,503,-1,-2,-2,1
235552,822,-8268,504,-1,-2,-2,1
235557,827,-8269,502,-1,-2,-2,1
235562,829,-8268,502,-1,-2,-2,1
235567,829,-8269,518,-1,-2,-2,1
235572,836,-8268,526,-1,-3,-2,1
235577,840,-8268,530,-1,-3,-2,1
235582,840,-8269,544,-1,-3,-2,1
235587,842,-8269,547,-1,-4,-2,1
235592,842,-8270,550,-1,-4,-2,1
235597,833,-8270,555,-1,-4,-2,1
235602,832,-8272,554,-1,-5,-2,1
235607,830,-8273,554,-1,-4,-2,1
235612,823,-8273,560,-1,-4,-2,1
235617,818,-8275,561,-1,-4,-2,1
235622,811,-8277,560,-1,-4,-2,1
235627,807,-8277,561,-1,-4,-2,1
235632,809,-8278,554,-1,-4,-2,1
235637,805,-8277,554,-1,-4,-2,1
235642,803,-8276,551,-1,-5,-2,1
235647,802,-8276,540,-1,-4,-2,1
235652,799,-8275,538,-1,-4,-2,1
235657,797,-8276,533,-1,-4,-2,1
235662,800,-8277,526,-1,-4,-2,1
235667,797,-8275,525,-1,-4,-2,1
235672,796,-8272,520,-1,-4,-2,1
235677,801,-8274,514,-1,-4,-2,1
235682,802,-8274,516,-1,-4,-2,1
235687,806,-8272,509,-1,-4,-2,1
235692,806,-8268,504,-1,-4,-2,1
235697,805,-8269,508,-1,-4,-2,1
235702,806,-8268,497,-1,-4,-2,1
235707,807,-8269,499,-1,-3,-2,1
235712,805,-8272,502,-1,-3,-2,1
235717,807,-8272,504,-1,-3,-2,1
235722,808,-8271,509,-1,-2,-2,1
235727,808,-8272,513,-1,-2,-2,1
235732,809,-8273,506,-1,-2,-2,1
235737,811,-8276,509,-1,-2,-2,1
235742,814,-8276,507,-1,-3,-2,1
235747,818,-8277,502,-1,-3,-2,1
235752,820,-8275,506,-1,-3,-2,1
235757,823,-8273,504,-1,-3,-2,1
235762,828,-8273,501,-1,-2,-2,1
235767,829,-8275,507,-1,-2,-2,1
235772,831,-8270,507,-1,-3,-2,1
235777,834,-8270,506,-1,-3,-2,1
235782,835,-8268,511,-1,-3,-2,1
235787,840,-8269,516,-1,-3,-2,1
235792,846,-8269,524,-1,-4,-2,1
235797,851,-8267,540,-1,-4,-2,1
235802,857,-8269,552,-1,-5,-2,1
235807,861,-8268,565,-1,-6,-2,1
235812,863,-8267,574,-1,-6,-2,1
235817,868,-8266,575,-1,-7,-2,1
235822,874,-8266,580,-1,-8,-2,1
235827,876,-8266,589,-1,-9,-2,1
235832,880,-8267,584,-1,-10,-2,1
235837,880,-8266,587,-1,-11,-1,1
235842,876,-8267,591,-1,-12,-2,1
235847,869,-8265,587,-1,-13,-2,1
235852,856,-8264,595,-1,-13,-2,1
235857,838,-8261,598,-1,-13,-1,1
235862,819,-8262,601,-1,-13,-2,1
235867,801,-8261,611,-1,-13,-2,1
235872,787,-8261,620,-1,-13,-2,1
235877,773,-8261,622,-2,-13,-2,1
235882,756,-8264,635,-2,-13,-2,1
235887,742,-8264,648,-2,-13,-2,1
235892,728,-8264,650,-2,-13,-2,1
235897,703,-8264,658,-2,-13,-2,1
235902,679,-8267,668,-2,-14,-2,1
235907,656,-8269,679,-2,-14,-2,1
235912,626,-8271,699,-2,-14,-2,1
235917,595,-8271,715,-2,-14,-2,1
235922,562,-8271,728,-2,-15,-2,1
235927,524,-8273,746,-2,-15,-2,1
235932,488,-8274,748,-2,-16,-2,1
235937,460,-8274,745,-2,-16,-3,1
235942,440,-8274,738,-2,-17,-3,1
235947,429,-8275,725,-2,-19,-3,1
235952,427,-8277,721,-2,-20,-3,1
235957,436,-8275,715,-3,-22,-3,1
235962,451,-8272,702,-3,-23,-3,1
235967,466,-8270,704,-3,-25,-3,1
235972,486,-8267,707,-3,-26,-3,1
235977,516,-8266,709,-3,-26,-3,1
235982,545,-8266,724,-3,-26,-3,1
235987,585,-8266,735,-3,-26,-4,1
235992,632,-8265,747,-3,-26,-3,1
235997,678,-8270,758,-3,-25,-3,1
236002,732,-8286,761,-3,-24,-3,1
236007,808,-8352,768,-3,-24,-3,1
236012,882,-8490,750,-3,-25,-3,1
236017,957,-8689,715,-4,-30,-3,1
236022,1024,-8932,709,-4,-38,-3,1
236027,1091,-9199,723,-4,-46,-2,1
236032,1142,-9471,755,-4,-53,-2,1
236037,1162,-9735,763,-4,-57,-2,1
236042,1144,-9984,742,-4,-59,-2,1
236047,1094,-10212,709,-5,-58,-1,1
236051,1034,-10410,693,-5,-55,-1,1
236057,966,-10576,690,-5,-50,-1,1
236062,899,-10704,693,-5,-43,-2,1
236067,824,-10790,700,-6,-38,-2,1
236071,745,-10838,705,-6,-37,-2,1
236077,665,-10853,724,-6,-40,-2,1
236081,589,-10832,750,-6,-46,-3,1
236087,520,-10779,783,-6,-53,-3,1
236092,445,-10702,809,-6,-60,-3,1
236097,360,-10601,820,-6,-66,-4,1
236102,262,-10487,815,-6,-69,-5,1
236107,173,-10369,795,-6,-69,-5,1
236112,96,-10247,768,-6,-67,-6,1
236117,39,-10116,748,-6,-63,-6,1
236121,-1,-9974,741,-6,-59,-7,1
236127,-27,-9830,735,-6,-56,-7,1
236131,-48,-9684,748,-6,-54,-8,1
236136,-65,-9537,769,-6,-52,-9,1
236141,-24,-9424,742,-6,-50,-9,1
236146,690,-9235,241,-8,-25,-14,1
236152,284,-9085,330,-9,20,-18,1
236156,540,-8937,225,-10,18,-20,1
236161,512,-8742,374,-11,17,-19,1
236166,1469,-8505,137,-12,1,-23,1
236171,2105,-8277,-146,-15,9,-29,1
236177,2530,-8054,-307,-18,5,-36,1
236181,2267,-7847,-191,-20,-14,-39,1
236187,2316,-7669,-89,-21,-48,-38,1
236191,2538,-7539,-126,-22,-61,-39,1
236196,3029,-7465,-330,-23,-61,-44,1
236201,3121,-7449,-456,-26,-54,-49,1
236206,2854,-7470,-413,-28,-60,-52,1
236211,2401,-7500,-197,-29,-70,-52,1
236216,2286,-7543,-46,-29,-71,-50,1
236221,2423,-7615,-57,-28,-57,-51,1
236226,2522,-7726,-45,-28,-42,-53,1
236231,2464,-7863,-121,-28,-42,-55,1
236236,2284,-8005,-104,-29,-51,-55,1
236241,2046,-8131,32,-29,-57,-54,1
236246,1972,-8235,167,-28,-51,-54,1
236251,1974,-8325,223,-26,-39,-54,1
236256,1989,-8407,179,-26,-32,-55,1
236261,1901,-8467,128,-25,-36,-55,1
236266,1786,-8494,142,-25,-46,-55,1
236271,1656,-8485,219,-24,-50,-54,1
236276,1591,-8448,279,-23,-46,-54,1
236281,1577,-8390,250,-21,-40,-54,1
236286,1534,-8328,175,-21,-37,-55,1
236291,1433,-8260,135,-20,-37,-55,1
236296,1337,-8188,162,-20,-36,-55,1
236301,1288,-8118,215,-19,-30,-55,1
236306,1292,-8059,232,-17,-23,-55,1
236311,1350,-8016,173,-16,-19,-55,1
236316,1398,-7985,90,-15,-21,-55,1
236321,1410,-7954,54,-14,-23,-55,1
236326,1420,-7918,73,-13,-22,-55,1
236331,1462,-7877,83,-12,-17,-55,1
236336,1574,-7812,-117,-11,-14,-55,1
236341,1710,-7716,-527,-11,-16,-55,1
236346,1822,-7593,-881,-13,-19,-56,1
236351,1856,-7448,-1113,-14,-16,-56,1
236356,1779,-7301,-1254,-15,-10,-56,1
236361,1865,-7196,-1388,-16,-6,-55,1
236366,2136,-7142,-1585,-17,0,-56,1
236371,2429,-7128,-1730,-18,2,-57,1
236376,2587,-7143,-1830,-19,-6,-58,1
236381,2668,-7183,-1858,-21,-20,-59,1
236386,2689,-7228,-1851,-22,-28,-59,1
236391,2735,-7265,-1816,-22,-32,-59,1
236396,2794,-7297,-1783,-22,-30,-60,1
236401,2837,-7321,-1777,-23,-29,-61,1
236406,2848,-7341,-1742,-23,-30,-61,1
236411,2855,-7350,-1660,-23,-29,-62,1
236416,2913,-7349,-1560,-22,-24,-62,1
236421,3015,-7339,-1485,-21,-18,-63,1
236426,3131,-7330,-1437,-20,-14,-64,1
236431,3202,-7329,-1390,-19,-14,-66,1
236436,3231,-7329,-1312,-18,-16,-67,1
236441,3242,-7324,-1232,-17,-16,-68,1
236446,3274,-7328,-1174,-15,-15,-69,1
236451,3306,-7352,-1150,-14,-14,-70,1
236456,3327,-7383,-1149,-12,-16,-72,1
236461,3299,-7410,-1167,-10,-16,-73,1
236466,3242,-7422,-1180,-9,-13,-75,1
236471,3158,-7425,-1192,-8,-5,-76,1
236476,3071,-7415,-1203,-6,6,-77,1
236481,3011,-7391,-1219,-4,19,-78,1
236486,2983,-7350,-1238,-3,32,-80,1
236491,2976,-7293,-1256,-1,44,-81,1
236496,2999,-7223,-1270,1,54,-82,1
236501,3054,-7137,-1289,2,62,-82,1
236506,3113,-7045,-1296,4,69,-83,1
236511,3163,-6951,-1297,5,76,-83,1
236516,3194,-6842,-1287,7,83,-83,1
236521,3211,-6720,-1264,8,90,-83,1
236526,3236,-6590,-1246,10,98,-83,1
236531,3250,-6450,-1225,12,106,-83,1
236536,3240,-6315,-1207,13,114,-84,1
236541,3210,-6178,-1174,15,122,-84,1
236546,3144,-5951,-1142,17,135,-84,1
236551,3040,-5683,-1090,19,158,-84,1
236556,2898,-5446,-1025,21,191,-84,1
236561,2740,-5260,-975,24,231,-84,1
236566,2890,-5188,-841,27,275,-83,1
236571,3317,-5192,-558,31,304,-81,1
236576,3931,-5227,-215,34,305,-79,1
236581,4449,-5253,89,38,292,-76,1
236586,4803,-5250,376,42,270,-74,1
236591,4920,-5231,599,46,245,-72,1
236596,4986,-5214,831,48,222,-69,1
236601,5042,-5226,1084,51,203,-68,1
236606,5127,-5278,1368,53,190,-67,1
236611,5122,-5338,1551,55,181,-67,1
236616,5012,-5379,1643,57,170,-66,1
236621,4849,-5409,1699,58,159,-65,1
236626,4792,-5459,1759,60,153,-65,1
236631,4788,-5517,1786,62,152,-65,1
236636,4808,-5580,1754,64,151,-66,1
236641,4816,-5648,1718,65,146,-67,1
236646,4857,-5717,1731,67,131,-67,1
236651,4929,-5778,1776,68,110,-66,1
236656,5029,-5824,1831,69,91,-66,1
236661,5089,-5856,1866,70,75,-67,1
236666,5107,-5883,1890,72,61,-68,1
236671,5120,-5898,1910,73,43,-69,1
236676,5126,-5889,1978,74,22,-69,1
236681,5171,-5858,2066,74,0,-70,1
236686,5201,-5803,2167,74,-19,-71,1
236691,5214,-5729,2252,75,-38,-72,1
236696,5194,-5633,2322,75,-58,-73,1
236701,5172,-5523,2384,75,-77,-75,1
236706,5134,-5405,2440,74,-93,-76,1
236711,5103,-5286,2486,73,-102,-78,1
236716,5063,-5168,2535,73,-107,-80,1
236721,5034,-5060,2577,72,-107,-82,1
236726,5020,-4955,2617,71,-106,-84,1
236731,5031,-4857,2647,71,-105,-87,1
236736,5053,-4753,2672,70,-104,-89,1
236741,5083,-4647,2697,69,-103,-91,1
236746,5110,-4543,2711,68,-102,-93,1
236751,5139,-4442,2708,67,-101,-95,1
236756,5175,-4341,2689,66,-100,-97,1
236761,5214,-4249,2646,64,-98,-99,1
236766,5264,-4159,2584,64,-96,-100,1
236771,5320,-4078,2527,63,-94,-102,1
236776,5381,-3996,2468,62,-93,-104,1
236781,5460,-3914,2400,61,-92,-106,1
236786,5553,-3828,2340,60,-93,-108,1
236791,5655,-3736,2262,59,-92,-110,1
236796,5753,-3649,2180,58,-90,-111,1
236801,5827,-3572,2097,56,-87,-113,1
236806,5900,-3502,2023,55,-83,-115,1
236811,5971,-3434,1973,54,-78,-116,1
236816,6056,-3357,1927,53,-73,-118,1
236821,6142,-3278,1879,52,-69,-120,1
236826,6221,-3199,1836,51,-67,-121,1
236831,6286,-3119,1805,50,-67,-122,1
236836,6341,-3035,1772,49,-68,-124,1
236841,6388,-2947,1732,48,-69,-125,1
236846,6434,-2853,1667,47,-70,-126,1
236851,6469,-2752,1591,46,-70,-127,1
236856,6485,-2637,1532,45,-70,-129,1
236861,6495,-2501,1468,44,-71,-130,1
236866,6488,-2340,1394,42,-72,-131,1
236871,6461,-2155,1332,41,-72,-132,1
236876,6425,-1946,1280,40,-72,-133,1
236881,6386,-1712,1238,39,-71,-134,1
236886,6354,-1457,1190,37,-72,-134,1
236891,6308,-1173,1148,36,-73,-135,1
236896,6247,-867,1108,35,-75,-136,1
236901,6175,-555,1057,34,-76,-137,1
236906,6094,-241,1006,32,-76,-137,1
236911,6020,68,948,31,-74,-137,1
236916,5949,351,885,30,-71,-138,1
236921,5889,604,823,29,-67,-138,1
236926,5848,822,757,28,-62,-138,1
236931,5826,1016,693,27,-56,-138,1
236936,5841,1193,641,26,-47,-138,1
236941,5913,1367,601,25,-39,-138,1
236946,6032,1542,555,25,-33,-138,1
236951,6183,1717,514,24,-30,-138,1
236956,6354,1881,496,24,-29,-138,1
236961,6534,2028,488,24,-31,-137,1
236966,6723,2155,479,24,-35,-137,1
236971,6896,2270,467,24,-42,-137,1
236976,7030,2377,454,23,-49,-136,1
236981,7120,2481,434,23,-55,-136,1
236986,7156,2582,398,22,-58,-135,1
236991,7159,2685,360,22,-58,-134,1
236996,7150,2799,311,21,-55,-134,1
237001,7135,2927,262,21,-51,-133,1
237006,7120,3055,206,20,-47,-132,1
237011,7103,3172,151,20,-45,-131,1
237016,7078,3275,99,20,-44,-130,1
237021,7033,3371,47,19,-44,-129,1
237026,6977,3469,-5,19,-44,-128,1
237031,6918,3571,-51,18,-42,-127,1
237036,6870,3669,-94,18,-40,-126,1
237041,6830,3770,-122,18,-39,-125,1
237046,6793,3877,-159,17,-40,-124,1
237051,6756,3981,-209,17,-42,-123,1
237056,6702,4069,-243,16,-44,-122,1
237061,6637,4143,-286,16,-47,-121,1
237066,6558,4210,-332,15,-48,-119,1
237071,6474,4282,-368,15,-48,-118,1
237076,6408,4362,-409,14,-45,-116,1
237081,6343,4449,-435,14,-41,-115,1
237086,6296,4531,-441,14,-37,-114,1
237091,6267,4609,-433,14,-34,-112,1
237096,6243,4698,-419,13,-34,-111,1
237101,6227,4814,-403,13,-33,-110,1
237106,6223,4957,-383,13,-30,-108,1
237111,6232,5115,-353,13,-26,-107,1
237116,6258,5277,-320,13,-25,-106,1
237121,6273,5438,-285,12,-25,-105,1
237126,6264,5596,-252,12,-28,-104,1
237131,6227,5740,-232,12,-31,-103,1
237136,6146,5861,-214,12,-33,-102,1
237141,6027,5963,-207,12,-34,-102,1
237146,5881,6050,-206,11,-33,-101,1
237151,5717,6123,-216,11,-30,-100,1
237156,5555,6190,-227,11,-26,-100,1
237161,5407,6259,-237,10,-22,-99,1
237166,5276,6337,-258,10,-17,-99,1
237171,5170,6431,-274,9,-12,-98,1
237176,5094,6537,-283,9,-7,-98,1
237181,5052,6656,-287,9,-3,-97,1
237186,5052,6776,-282,9,-1,-96,1
237191,5077,6895,-267,9,0,-96,1
237196,5109,7011,-237,8,-1,-96,1
237201,5135,7118,-213,8,-4,-95,1
237206,5140,7212,-189,8,-7,-95,1
237211,5115,7297,-186,7,-10,-95,1
237216,5057,7366,-196,7,-11,-95,1
237221,4970,7418,-218,6,-12,-95,1
237226,4856,7450,-246,6,-11,-95,1
237231,4734,7472,-277,5,-12,-94,1
237236,4597,7496,-322,5,-14,-94,1
237241,4457,7532,-365,4,-17,-94,1
237246,4323,7584,-405,3,-17,-93,1
237251,4193,7652,-427,2,-15,-93,1
237256,4099,7736,-448,2,-12,-93,1
237261,4046,7833,-466,1,-7,-93,1
237266,4034,7926,-467,1,-4,-93,1
237271,4059,8002,-472,1,-2,-93,1
237276,4095,8057,-475,0,-5,-93,1
237281,4132,8098,-470,0,-9,-93,1
237286,4172,8144,-467,-1,-12,-92,1
237291,4206,8195,-454,-2,-12,-92,1
237296,4240,8245,-443,-2,-12,-92,1
237301,4261,8289,-434,-3,-12,-92,1
237306,4262,8333,-437,-3,-14,-92,1
237310,4239,8380,-454,-4,-18,-92,1
237316,4194,8432,-482,-5,-21,-92,1
237321,4103,8474,-495,-5,-24,-91,1
237326,3989,8507,-512,-6,-25,-91,1
237331,3863,8544,-551,-7,-23,-91,1
237336,3749,8587,-579,-7,-20,-90,1
237341,3655,8624,-600,-8,-17,-90,1
237346,3584,8647,-627,-9,-13,-89,1
237351,3542,8658,-650,-10,-11,-88,1
237356,3523,8652,-668,-10,-10,-88,1
237361,3523,8632,-685,-11,-11,-87,1
237366,3528,8601,-695,-11,-13,-87,1
237371,3524,8567,-697,-12,-16,-86,1
237376,3506,8536,-693,-12,-19,-85,1
237381,3468,8512,-683,-13,-23,-84,1
237386,3423,8500,-662,-13,-25,-83,1
237390,3364,8510,-641,-14,-27,-82,1
237396,3305,8539,-633,-15,-28,-82,1
237400,3226,8574,-647,-15,-30,-81,1
237405,3142,8602,-657,-16,-32,-79,1
237410,3056,8617,-670,-16,-33,-78,1
237416,2963,8623,-694,-17,-33,-77,1
237420,2873,8630,-732,-17,-34,-76,1
237425,2772,8644,-774,-17,-34,-74,1
237431,2668,8668,-811,-18,-34,-73,1
237436,2573,8701,-848,-18,-31,-71,1
237441,2506,8732,-872,-18,-26,-69,1
237445,2481,8756,-877,-18,-21,-67,1
237450,2500,8774,-880,-18,-18,-66,1
237455,2549,8793,-874,-18,-16,-64,1
237461,2612,8817,-861,-18,-14,-62,1
237465,2687,8845,-840,-18,-13,-60,1
237470,2755,8880,-806,-18,-11,-58,1
237475,2816,8931,-779,-17,-10,-56,1
237480,2860,8992,-755,-17,-10,-54,1
237485,2885,9055,-732,-17,-11,-52,1
237490,2885,9111,-714,-17,-13,-50,1
237495,2857,9154,-702,-17,-15,-49,1
237500,2805,9167,-702,-17,-18,-47,1
237505,2721,9146,-714,-17,-21,-45,1
237510,2610,9089,-740,-17,-22,-43,1
237515,2476,9005,-771,-17,-21,-41,1
237520,2334,8906,-801,-17,-18,-40,1
237525,2192,8806,-829,-17,-13,-38,1
237530,2059,8724,-844,-18,-8,-37,1
237535,1943,8667,-845,-18,-2,-35,1
237540,1845,8625,-838,-18,2,-34,1
237545,1760,8586,-818,-18,5,-32,1
237550,1713,8521,-807,-19,7,-31,1
237555,1715,8419,-790,-19,6,-30,1
237560,1682,8323,-727,-19,1,-28,1
237565,1648,8248,-691,-20,-5,-27,1
237570,1612,8199,-654,-20,-8,-26,1
237575,1567,8189,-587,-20,-10,-25,1
237580,1512,8221,-530,-20,-12,-24,1
237585,1443,8282,-479,-20,-14,-22,1
237590,1359,8341,-416,-21,-15,-21,1
237595,1259,8386,-365,-21,-14,-20,1
237600,1141,8413,-333,-21,-11,-19,1
237605,1043,8423,-308,-21,-7,-18,1
237610,961,8415,-285,-22,-2,-17,1
237615,892,8394,-267,-22,1,-17,1
237620,845,8368,-219,-22,2,-16,1
237625,804,8320,-168,-22,1,-15,1
237630,751,8246,-216,-23,2,-14,1
237635,735,8159,-250,-23,6,-13,1
237640,719,8062,-246,-23,9,-13,1
237645,727,7953,-215,-23,7,-12,1
237650,745,7839,-169,-23,5,-11,1
237655,762,7725,-153,-24,4,-11,1
237660,780,7606,-143,-24,4,-10,1
237665,790,7479,-122,-24,5,-10,1
237670,820,7340,-63,-24,3,-9,1
237675,852,7200,-30,-24,-1,-9,1
237680,871,7079,8,-24,-4,-9,1
237685,864,6992,52,-24,-5,-8,1
237690,828,6942,74,-24,-3,-8,1
237695,779,6916,98,-25,1,-8,1
237700,724,6898,109,-25,7,-8,1
237705,674,6880,129,-25,14,-8,1
237710,636,6851,146,-25,22,-8,1
237715,608,6819,196,-25,29,-8,1
237720,606,6796,208,-25,35,-8,1
237725,638,6824,206,-25,39,-8,1
237730,679,7074,227,-25,39,-8,1
237735,655,8403,254,-24,30,-8,1
237740,1767,9543,1116,-27,-31,-7,1
237745,2927,10520,-1383,-15,-69,4,1
237750,2221,10206,-3022,-5,-24,0,1
237755,2015,8295,-2216,-13,15,-5,1
237760,1381,6110,-1910,-14,48,-4,1
237765,921,4343,-1053,-12,40,-1,1
237770,674,3327,-851,-10,20,3,1
237775,490,3296,-395,-10,8,4,1
237780,696,5165,94,-12,-6,3,1
237785,1742,6767,-74,-12,-23,7,1
237790,1741,8064,-1215,-7,-13,6,1
237795,1364,7764,-1670,-5,-11,1,1
237800,874,7085,-1469,-6,-7,1,1
237805,479,6730,-747,-5,-6,3,1
237810,242,6843,103,-6,-4,5,1
237815,239,7203,538,-7,5,4,1
237820,359,7578,376,-6,17,4,1
237825,429,7754,36,-5,24,4,1
237830,462,7789,-86,-4,24,3,1
237835,484,7784,20,-4,16,3,1
237840,461,7813,244,-5,4,3,1
237845,471,7902,492,-4,-7,3,1
237850,549,7959,667,-4,-15,3,1
237855,642,7973,764,-3,-15,3,1
237860,742,7981,812,-2,-12,2,1
237865,797,7971,809,-2,-12,3,1
237870,805,7989,809,-2,-14,3,1
237875,785,8043,850,-1,-17,2,1
237880,699,8076,896,-1,-21,3,1
237885,602,8098,951,0,-22,2,1
237890,560,8117,979,1,-20,2,1
237895,514,8119,986,1,-13,2,1
237900,524,8131,1017,2,-3,2,1
237905,588,8135,1008,2,8,1,1
237910,586,8116,939,2,15,2,1
237915,571,8134,889,3,15,1,1
237920,584,8177,876,3,12,1,1
237925,577,8187,845,3,10,1,1
237930,588,8183,819,4,9,1,1
237935,633,8174,803,4,7,1,1
237940,646,8198,785,4,6,1,1
237945,659,8192,740,4,1,1,1
237950,688,8163,635,4,-2,1,1
237955,714,8123,563,4,-3,1,1
237960,752,8127,518,4,-3,1,1
237965,762,8147,469,4,-1,1,1
237970,752,8154,420,4,-1,0,1
237975,768,8152,382,3,-3,0,1
237980,760,8149,324,3,-6,0,1
237985,742,8146,282,3,-8,0,1
237990,760,8171,230,3,-10,0,1
237995,752,8183,165,3,-10,0,1
238000,733,8177,126,3,-8,0,1
238005,737,8178,115,3,-6,0,1
238010,704,8178,98,2,-3,0,1
238015,688,8173,86,2,-2,-1,1
238020,721,8180,52,2,-3,-1,1
238025,718,8187,12,2,-4,-1,1
238030,718,8180,-4,1,-5,-1,1
238035,737,8175,-17,1,-6,-1,1
238040,727,8161,-23,1,-5,-1,1
238045,733,8146,-10,1,-4,-2,1
238050,752,8145,-7,1,-2,-2,1
238055,742,8138,-1,0,0,-2,1
238060,739,8134,12,0,0,-2,1
238065,737,8133,15,0,0,-2,1
238070,712,8136,30,0,-1,-2,1
238075,707,8140,39,0,-2,-2,1
238080,694,8142,50,0,-1,-2,1
238085,674,8142,74,0,-1,-2,1
238090,682,8144,95,0,0,-2,1
238095,680,8149,105,0,1,-2,1
238100,671,8148,126,0,0,-2,1
238105,682,8153,139,0,0,-2,1
238110,662,8159,144,0,0,-2,1
238115,640,8162,154,0,-1,-2,1
238120,639,8168,157,0,-2,-2,1
238125,614,8167,155,0,-1,-2,1
238130,598,8164,164,0,-1,-2,1
238135,604,8166,170,0,0,-2,1
238140,596,8166,173,0,1,-2,1
238145,601,8165,183,0,0,-2,1
238150,616,8164,182,0,0,-2,1
238155,614,8166,170,0,-1,-2,1
238160,609,8170,168,0,-3,-2,1
238165,602,8173,162,0,-2,-2,1
238170,591,8168,152,-1,-1,-2,1
238175,594,8162,141,-1,-1,-2,1
238180,595,8161,132,-1,1,-2,1
238185,594,8164,130,-1,1,-3,1
238190,606,8165,132,-1,1,-2,1
238195,610,8168,136,-1,2,-3,1
238200,618,8168,144,-1,1,-3,1
238205,640,8162,157,-1,1,-3,1
238210,646,8160,161,-1,1,-3,1
238215,649,8162,166,-1,0,-3,1
238220,661,8164,173,-1,-2,-3,1
238225,656,8164,176,-1,-2,-3,1
238230,652,8165,177,-1,-3,-3,1
238235,654,8162,177,-1,-3,-3,1
238240,646,8164,170,-1,-2,-3,1
238245,641,8164,170,-1,-3,-3,1
238250,640,8162,183,-1,-2,-3,1
238255,626,8163,187,-1,-2,-3,1
238260,622,8164,193,-1,-3,-3,1
238265,620,8163,204,-1,-3,-3,1
238270,605,8166,206,-1,-3,-3,1
238275,595,8166,212,-1,-3,-3,1
238280,576,8164,220,-1,-3,-3,1
238285,554,8165,220,-1,-2,-3,1
238290,547,8166,225,-1,-2,-3,1
238295,541,8169,226,-1,-1,-3,1
238300,540,8171,227,-1,-1,-3,1
238305,543,8168,233,-1,-1,-3,1
238310,542,8170,237,-1,-1,-3,1
238315,539,8172,239,-1,-1,-3,1
238320,542,8166,249,-1,-1,-3,1
238325,539,8166,251,-1,-1,-3,1
238330,539,8169,242,-1,-1,-3,1
238335,539,8170,244,-1,-1,-3,1
238340,533,8171,245,-1,-1,-3,1
238345,538,8170,237,-1,-1,-3,1
238350,539,8166,247,-1,-1,-3,1
238355,535,8167,246,-1,0,-3,1
238360,539,8166,241,-1,-1,-3,1
238365,542,8168,243,-1,-1,-3,1
238370,544,8171,243,-1,-1,-4,1
238375,550,8168,242,-1,-2,-3,1
238380,546,8165,249,-1,-3,-3,1
238385,539,8167,246,-1,-3,-3,1
238390,537,8164,241,-1,-4,-3,1
238395,532,8165,234,-1,-4,-3,1
238400,526,8169,217,-1,-4,-3,1
238405,524,8164,216,-1,-4,-3,1
238410,517,8164,222,-1,-3,-3,1
238415,516,8165,214,-1,-3,-3,1
238420,516,8163,219,-1,-3,-3,1
238425,514,8169,217,-1,-3,-3,1
238430,516,8171,202,-1,-3,-3,1
238435,510,8168,207,-1,-3,-3,1
238440,501,8169,207,-1,-3,-3,1
238445,497,8166,204,-1,-3,-3,1
238450,490,8163,213,-1,-3,-3,1
238455,485,8169,207,-1,-3,-3,1
238460,486,8165,201,-1,-3,-3,1
238465,480,8163,213,-1,-3,-3,1
238470,476,8164,213,-1,-3,-3,1
238475,474,8160,214,-1,-3,-3,1
238480,471,8160,221,-1,-3,-3,1
238485,469,8166,212,-1,-3,-3,1
238490,470,8170,209,-1,-3,-3,1
238495,467,8175,201,-1,-3,-3,1
238500,466,8178,193,0,-3,-3,1
238505,465,8170,200,0,-3,-3,1
238510,462,8174,207,-1,-2,-3,1
238515,457,8177,201,-1,-2,-3,1
238520,451,8175,199,-1,-2,-3,1
238524,450,8181,194,-1,-2,-3,1
238530,454,8179,180,-1,-2,-3,1
238534,456,8175,177,-1,-2,-3,1
238540,457,8175,178,-1,-1,-3,1
238545,461,8171,173,-1,-2,-3,1
238549,461,8169,179,-1,-2,-3,1
238554,462,8170,171,-1,-1,-3,1
238560,464,8167,164,-1,-1,-3,1
238565,465,8167,165,-1,-2,-3,1
238570,466,8167,154,-1,-2,-3,1
238574,466,8165,153,-1,-3,-3,1
238580,465,8168,156,-1,-3,-3,1
238585,466,8172,149,-1,-3,-3,1
238590,461,8170,152,-1,-3,-3,1
238595,456,8170,159,-1,-2,-3,1
238600,453,8169,153,-1,-2,-3,1
238605,452,8169,157,-1,-2,-3,1
238609,448,8171,152,-1,-2,-3,1
238614,448,8168,145,-1,-2,-3,1
238619,447,8166,142,-1,-2,-3,1
238624,448,8169,149,-1,-2,-3,1
238629,448,8168,155,-1,-2,-3,1
238634,450,8164,167,-1,-2,-3,1
238639,452,8164,166,-1,-1,-3,1
238644,451,8167,162,-1,-2,-3,1
238649,449,8169,171,-1,-2,-3,1
238654,447,8167,166,-1,-2,-3,1
238659,440,8168,168,-1,-2,-3,1
238664,435,8168,173,-1,-3,-3,1
238669,435,8173,169,-1,-2,-3,1
238674,432,8170,178,-1,-2,-3,1
238679,429,8170,187,-1,-2,-3,1
238684,428,8168,186,-1,-2,-3,1
238689,427,8168,189,-1,-2,-3,1
238694,425,8170,188,-1,-3,-3,1
238699,420,8174,183,-1,-2,-3,1
238704,419,8175,185,-1,-3,-3,1
238709,412,8176,185,-1,-2,-3,1
238714,404,8175,184,-1,-2,-3,1
238719,398,8173,188,-1,-1,-3,1
238724,398,8171,188,-1,-1,-3,1
238729,396,8174,189,-1,0,-3,1
238734,398,8171,185,-1,0,-3,1
238739,398,8174,182,-1,1,-3,1
238744,397,8178,178,-1,1,-3,1
238749,398,8179,182,-1,1,-3,1
238754,397,8176,176,-1,2,-3,1
238759,396,8173,175,-1,2,-3,1
238764,395,8172,177,-1,2,-3,1
238769,395,8181,173,-1,3,-3,1
238774,396,8182,177,-1,4,-3,1
238779,399,8179,188,-1,5,-3,1
238784,407,8179,194,-1,5,-3,1
238789,414,8179,200,-1,5,-3,1
238794,420,8179,206,-1,6,-3,1
238799,425,8185,209,-1,7,-3,1
238804,429,8186,215,-1,7,-3,1
238809,436,8183,220,-1,7,-3,1
238814,450,8182,224,0,6,-3,1
238819,467,8176,228,0,5,-3,1
238824,485,8175,234,0,4,-3,1
238829,501,8175,241,0,3,-3,1
238834,516,8174,251,0,1,-3,1
238839,521,8172,257,0,0,-3,1
238844,524,8171,264,0,-2,-3,1
238849,525,8172,265,0,-4,-3,1
238854,523,8173,257,0,-5,-3,1
238859,521,8173,258,0,-6,-3,1
238864,519,8173,257,0,-6,-4,1
238869,517,8178,257,0,-6,-4,1
238874,510,8178,256,1,-6,-4,1
238879,505,8174,262,1,-6,-4,1
238884,497,8178,269,1,-6,-4,1
238889,492,8178,275,1,-7,-4,1
238894,496,8186,288,1,-9,-4,1
238899,502,8197,306,1,-11,-4,1
238904,502,8203,339,1,-14,-4,1
238909,507,8211,386,1,-17,-4,1
238914,503,8214,435,2,-21,-4,1
238919,488,8183,468,2,-25,-4,1
238924,460,8145,485,2,-27,-4,1
238929,429,8132,472,3,-28,-4,1
238934,400,8133,422,3,-26,-4,1
238939,350,8147,322,3,-19,-4,1
238944,320,8156,222,3,-9,-4,1
238949,291,8142,142,3,5,-4,1
238954,286,8127,120,3,18,-4,1
238959,319,8137,133,3,25,-5,1
238964,377,8155,148,2,26,-5,1
238969,440,8171,125,2,20,-5,1
238974,514,8163,73,2,10,-5,1
238979,576,8160,17,2,-1,-5,1
238984,600,8165,-34,2,-10,-5,1
238989,592,8164,-64,1,-14,-5,1
238994,562,8165,-80,1,-15,-5,1
238999,521,8168,-102,1,-12,-5,1
239004,481,8171,-125,1,-9,-5,1
239009,458,8173,-143,1,-7,-5,1
239014,441,8168,-154,0,-7,-6,1
239019,421,8164,-152,0,-9,-5,1
239024,398,8165,-130,0,-11,-5,1
239029,372,8165,-106,0,-12,-5,1
239034,346,8158,-89,0,-12,-5,1
239039,324,8154,-80,0,-11,-5,1
239044,308,8153,-68,0,-8,-5,1
239049,295,8153,-56,0,-6,-5,1
239054,280,8151,-45,0,-4,-5,1
239059,269,8152,-31,0,-4,-5,1
239064,259,8150,-15,0,-5,-5,1
239069,248,8149,1,0,-5,-5,1
239074,241,8151,17,0,-6,-5,1
239079,239,8150,31,0,-6,-5,1
239084,235,8152,41,0,-5,-5,1
239089,231,8153,47,0,-5,-5,1
239094,224,8153,51,0,-4,-5,1
239099,211,8154,49,0,-4,-5,1
239104,195,8160,44,0,-3,-5,1
239109,175,8166,40,0,-2,-5,1
239114,154,8168,39,0,-1,-4,1
239119,140,8166,39,0,1,-4,1
239124,133,8163,43,0,2,-4,1
239129,133,8167,54,0,3,-4,1
239134,139,8166,59,0,4,-4,1
239139,149,8168,58,0,4,-4,1
239144,155,8174,60,0,3,-4,1
239149,159,8171,66,0,3,-4,1
239154,162,8169,71,0,3,-4,1
239159,167,8172,78,0,2,-4,1
239164,173,8172,73,0,2,-4,1
239169,175,8173,68,0,2,-4,1
239174,177,8168,66,0,2,-4,1
239179,183,8167,66,0,1,-4,1
239184,187,8169,68,0,1,-4,1
239189,190,8168,73,0,1,-4,1
239194,197,8166,75,0,1,-4,1
239199,203,8169,73,0,0,-4,1
239204,207,8173,79,0,0,-4,1
239209,207,8172,78,1,-1,-4,1
239214,204,8167,77,1,-3,-4,1
239219,205,8163,83,1,-4,-4,1
239224,207,8165,87,1,-5,-4,1
239229,199,8166,78,1,-5,-4,1
239234,194,8162,73,1,-5,-4,1
239239,188,8163,62,1,-5,-4,1
239244,182,8165,47,1,-4,-3,1
239249,176,8166,37,1,-3,-3,1
239254,172,8169,32,1,-3,-4,1
239259,170,8168,25,1,-3,-3,1
239264,173,8163,29,1,-2,-3,1
239269,176,8160,31,1,-2,-3,1
239274,179,8160,28,1,-2,-3,1
239279,183,8161,24,1,-2,-3,1
239284,182,8165,19,1,-2,-3,1
239289,179,8166,10,1,-3,-3,1
239294,175,8166,1,1,-3,-3,1
239299,172,8165,-5,1,-3,-3,1
239304,171,8163,-11,1,-3,-3,1
239309,171,8164,-13,1,-2,-3,1
239314,171,8168,-17,1,-1,-3,1
239319,174,8170,-22,0,-1,-3,1
239324,173,8169,-33,0,-1,-3,1
239329,174,8167,-37,0,-1,-3,1
239334,175,8167,-41,0,-1,-3,1
239339,170,8171,-50,0,-1,-3,1
239344,163,8169,-58,0,0,-3,1
239349,163,8166,-57,0,0,-3,1
239354,164,8164,-58,0,1,-3,1
239359,171,8161,-58,0,1,-3,1
239364,176,8158,-65,0,1,-3,1
239369,179,8158,-75,0,0,-3,1
239374,182,8159,-84,0,-1,-3,1
239379,184,8156,-90,0,-2,-3,1
239384,184,8155,-93,0,-2,-3,1
239389,181,8156,-93,0,-2,-3,1
239394,175,8154,-101,0,-2,-3,1
239399,166,8162,-112,0,-1,-3,1
239404,159,8161,-115,0,-1,-3,1
239409,153,8160,-119,0,-1,-3,1
239414,146,8159,-121,0,0,-3,1
239419,140,8161,-120,0,0,-3,1
239424,132,8162,-124,-1,0,-3,1
239429,127,8163,-128,-1,1,-3,1
239434,121,8162,-129,-1,1,-3,1
239439,117,8163,-126,-1,2,-3,1
239444,111,8164,-122,-1,2,-3,1
239449,109,8166,-111,-1,2,-3,1
239454,111,8167,-102,-1,2,-3,1
239459,113,8167,-90,-1,2,-3,1
239464,113,8171,-83,-1,1,-3,1
239469,113,8172,-76,-1,1,-3,1
239474,112,8176,-69,-1,1,-3,1
239479,115,8176,-60,-1,1,-3,1
239484,121,8175,-44,-1,2,-3,1
239489,132,8172,-22,0,3,-3,1
239494,148,8169,-4,0,3,-3,1
239499,163,8166,8,0,3,-3,1
239504,176,8166,16,0,3,-3,1
239509,186,8168,26,0,3,-3,1
239514,195,8167,43,0,2,-3,1
239519,198,8165,59,0,2,-3,1
239524,198,8170,70,0,1,-3,1
239529,199,8172,68,0,1,-3,1
239534,201,8171,65,1,1,-4,1
239539,200,8171,63,1,1,-4,1
239544,206,8173,62,1,0,-4,1
239549,210,8170,60,1,0,-4,1
239554,212,8168,58,1,0,-4,1
239559,208,8170,57,1,0,-4,1
239564,194,8171,58,1,-1,-4,1
239569,179,8170,57,1,-1,-4,1
239574,164,8166,51,1,-2,-4,1
239579,154,8166,35,1,-4,-4,1
239584,147,8167,4,1,-4,-4,1
239589,137,8169,-17,1,-5,-4,1
239594,121,8166,-38,1,-4,-4,1
239599,94,8161,-61,1,-3,-4,1
239604,57,8157,-98,1,-2,-4,1
239609,18,8159,-146,1,1,-4,1
239614,-14,8159,-203,1,4,-4,1
239619,-29,8168,-259,1,7,-4,1
239624,-29,8183,-303,1,10,-4,1
239629,-20,8199,-343,0,13,-3,1
239634,-11,8216,-370,0,14,-3,1
239639,-2,8238,-388,0,15,-4,1
239644,-2,8267,-389,0,16,-4,1
239649,3,8313,-356,0,16,-3,1
239654,27,8384,-323,0,16,-4,1
239659,86,8488,-330,0,16,-4,1
239664,187,8633,-382,0,13,-3,1
239669,296,8825,-432,0,7,-3,1
239674,410,9056,-448,0,-2,-3,1
239679,500,9300,-450,0,-14,-3,1
239684,561,9523,-408,1,-27,-2,1
239689,621,9702,-325,1,-41,-2,1
239694,696,9823,-224,1,-56,-1,1
239699,746,9893,-196,1,-69,0,1
239704,774,9931,-201,1,-79,1,1
239709,776,9973,-199,0,-83,2,1
239714,715,10033,-231,0,-81,4,1
239719,575,10099,-347,-1,-73,6,1
239724,484,10168,-405,-2,-59,7,1
239729,470,10243,-433,-2,-33,8,1
239734,426,10312,-487,-1,-6,8,1
239738,449,10368,-539,-1,7,8,1
239744,513,10407,-619,-2,5,10,1
239748,671,10439,-649,-3,-3,13,1
239753,701,10482,-695,-4,-3,17,1
239759,579,10512,-758,-4,3,19,1
239763,709,10498,-742,-4,10,20,1
239769,804,10445,-809,-5,21,23,1
239774,1005,10379,-762,-5,26,26,1
239779,1189,10312,-756,-5,27,29,1
239784,1394,10256,-719,-5,25,32,1
239788,1572,10206,-706,-5,22,35,1
239794,1730,10158,-692,-5,19,38,1
239799,1862,10109,-690,-4,16,41,1
239804,1947,10063,-706,-4,14,44,1
239808,2020,10023,-704,-4,13,47,1
239813,2071,9988,-715,-4,15,50,1
239818,2122,9964,-728,-4,17,53,1
239823,2167,9939,-746,-3,20,57,1
239828,2221,9917,-755,-3,23,60,1
239833,2270,9903,-762,-2,26,62,1
239838,2325,9902,-762,-2,26,65,1
239843,2368,9921,-769,-1,27,68,1
239848,2408,9965,-778,-1,27,71,1
239854,2438,10039,-785,0,27,74,1
239859,2449,10140,-803,0,27,77,1
239863,2445,10258,-814,0,28,80,1
239868,2428,10378,-840,1,29,83,1
239873,2402,10486,-865,1,32,85,1
239878,2371,10584,-880,1,36,88,1
239883,2362,10675,-895,1,43,90,1
239888,2383,10758,-912,1,49,93,1
239893,2445,10834,-905,1,54,95,1
239898,2534,10908,-887,1,58,98,1
239903,2653,10981,-862,0,59,100,1
239908,2787,11046,-826,0,59,103,1
239913,2932,11101,-784,-1,59,105,1
239918,3083,11142,-749,-2,58,107,1
239923,3228,11170,-713,-2,56,109,1
239928,3363,11176,-695,-3,54,111,1
239933,3479,11162,-684,-3,51,114,1
239938,3583,11129,-649,-4,48,116,1
239943,3670,11085,-615,-5,46,118,1
239948,3749,11046,-584,-5,44,120,1
239953,3828,11009,-544,-6,42,122,1
239958,3908,10972,-495,-6,39,124,1
239963,3986,10937,-441,-7,35,126,1
239968,4056,10902,-379,-7,32,128,1
239973,4111,10862,-325,-8,30,130,1
239978,4162,10810,-269,-8,30,132,1
239983,4218,10734,-207,-9,32,133,1
239988,4284,10635,-143,-9,34,135,1
239993,4361,10515,-72,-10,34,136,1
239998,4441,10376,-18,-10,34,138,1
240003,4525,10217,37,-11,32,139,1
240008,4605,10042,88,-11,30,140,1
240013,4675,9854,133,-12,29,141,1
240018,4739,9654,165,-12,27,142,1
240023,4805,9454,203,-13,24,143,1
240028,4867,9276,243,-13,21,144,1
240033,4929,9117,268,-13,18,145,1
240038,5039,8976,314,-13,15,146,1
240043,5044,8843,306,-13,13,148,1
240048,5046,8723,291,-13,9,150,1
240053,5088,8624,298,-13,9,152,1
240058,5152,8536,323,-14,15,154,1
240063,5270,8440,389,-14,21,155,1
240068,5382,8318,456,-14,23,155,1
240073,5467,8161,524,-13,17,156,1
240078,5494,7975,569,-13,7,157,1
240083,5483,7774,615,-13,-1,158,1
240088,5454,7577,653,-12,-3,159,1
240093,5437,7394,694,-12,3,160,1
240098,5451,7226,739,-12,11,161,1
240103,5485,7071,787,-12,18,161,1
240108,5531,6922,824,-12,20,161,1
240113,5575,6778,853,-12,19,162,1
240118,5601,6643,872,-12,16,162,1
240123,5611,6515,879,-12,14,163,1
240128,5604,6397,870,-12,13,163,1
240133,5602,6279,849,-12,12,163,1
240138,5595,6172,839,-12,12,164,1
240143,5587,6067,837,-12,11,164,1
240148,5572,5955,825,-12,10,164,1
240153,5548,5840,826,-12,8,164,1
240158,5507,5717,837,-13,9,164,1
240163,5467,5585,856,-13,11,165,1
240168,5437,5443,883,-14,15,165,1
240173,5425,5293,921,-14,19,165,1
240178,5431,5138,965,-15,22,165,1
240183,5455,4973,1007,-15,25,165,1
240188,5480,4807,1048,-16,27,165,1
240193,5514,4635,1102,-17,28,164,1
240198,5548,4461,1156,-18,28,164,1
240203,5580,4296,1209,-19,28,164,1
240208,5616,4153,1262,-20,28,164,1
240213,5652,4029,1301,-21,28,163,1
240218,5681,3921,1342,-23,26,163,1
240223,5710,3817,1388,-24,23,162,1
240228,5730,3723,1433,-25,18,162,1
240233,5748,3631,1476,-26,14,161,1
240238,5758,3535,1520,-27,11,161,1
240243,5776,3432,1554,-28,9,160,1
240248,5800,3307,1591,-29,6,160,1
240253,5829,3162,1639,-30,2,159,1
240258,5848,3004,1687,-31,0,158,1
240263,5861,2833,1727,-31,-1,158,1
240268,5863,2654,1755,-32,1,157,1
240273,5850,2474,1771,-33,3,157,1
240278,5827,2303,1797,-34,6,156,1
240283,5801,2151,1824,-35,10,155,1
240288,5754,2016,1858,-36,13,154,1
240293,5697,1893,1889,-37,18,153,1
240298,5644,1789,1917,-38,23,152,1
240303,5596,1700,1964,-40,28,151,1
240308,5571,1628,2023,-41,32,150,1
240313,5565,1562,2082,-42,35,149,1
240318,5574,1485,2141,-44,39,148,1
240323,5595,1387,2192,-45,41,147,1
240328,5618,1242,2232,-47,42,145,1
240333,5637,1046,2283,-48,43,144,1
240338,5640,839,2334,-49,47,142,1
240343,5646,629,2379,-50,51,141,1
240348,5673,425,2441,-52,55,139,1
240353,5717,237,2516,-53,57,137,1
240358,5788,43,2582,-54,57,135,1
240363,5876,-173,2647,-55,55,133,1
240368,5948,-405,2724,-57,51,132,1
240373,5993,-649,2774,-58,48,130,1
240378,5974,-911,2793,-59,49,128,1
240383,5824,-1194,2759,-60,55,126,1
240388,5676,-1370,2661,-61,66,125,1
240393,5556,-1406,2630,-63,79,122,1
240398,5435,-1391,2619,-65,90,120,1
240403,5361,-1425,2579,-67,95,117,1
240408,5313,-1526,2550,-69,90,115,1
240413,5236,-1668,2546,-70,75,113,1
240418,5133,-1827,2543,-72,60,111,1
240423,5021,-1971,2559,-73,52,109,1
240428,4923,-2083,2599,-74,51,107,1
240433,4854,-2187,2651,-74,52,105,1
240438,4821,-2297,2710,-76,50,103,1
240443,4804,-2419,2762,-77,45,101,1
240448,4789,-2560,2806,-77,38,99,1
240453,4752,-2720,2838,-78,34,97,1
240458,4713,-2882,2855,-79,32,95,1
240463,4673,-3044,2849,-79,33,93,1
240468,4632,-3201,2840,-79,36,91,1
240473,4579,-3346,2829,-79,36,89,1
240478,4517,-3479,2824,-80,36,87,1
240483,4446,-3599,2821,-80,36,85,1
