millis,ax,ay,az,gx,gy,gz,label
267388,-172,-8347,216,0,0,0,0
267393,-176,-8346,220,0,-1,0,1
267398,-179,-8345,222,0,-1,0,1
267403,-176,-8343,226,0,-1,0,1
267408,-174,-8343,229,0,-1,0,1
267413,-172,-8343,235,0,-1,0,1
267418,-168,-8344,241,0,-1,0,1
267423,-166,-8344,250,0,-1,0,1
267428,-166,-8345,261,0,-1,0,1
267433,-165,-8343,267,0,-1,0,1
267438,-167,-8343,276,0,-1,0,1
267443,-166,-8344,287,0,-1,0,1
267448,-161,-8345,296,0,-1,0,1
267452,-159,-8345,303,0,0,0,1
267458,-154,-8347,309,0,0,0,1
267463,-146,-8345,310,0,0,0,1
267467,-144,-8347,310,0,-1,0,1
267472,-141,-8347,309,0,-1,0,1
267478,-139,-8347,312,0,-1,0,1
267482,-141,-8349,308,0,0,0,1
267488,-144,-8350,310,0,0,0,1
267493,-148,-8349,314,0,0,0,1
267497,-151,-8350,314,0,0,0,1
267502,-154,-8351,316,0,0,0,1
267507,-157,-8351,317,0,0,0,1
267512,-159,-8352,320,0,0,0,1
267517,-160,-8354,325,0,0,0,1
267522,-165,-8353,326,0,0,0,1
267527,-174,-8354,328,-1,0,0,1
267532,-183,-8353,333,-1,0,0,1
267537,-191,-8352,333,-1,0,0,1
267542,-203,-8350,332,-1,0,0,1
267547,-210,-8350,335,-1,0,0,1
267552,-214,-8349,334,-1,0,0,1
267557,-216,-8347,333,-1,0,0,1
267562,-223,-8346,328,-1,0,0,1
267567,-231,-8345,324,-1,0,0,1
267572,-235,-8346,320,-1,0,0,1
267577,-240,-8349,322,-1,0,0,1
267582,-243,-8351,321,-1,0,0,1
267587,-246,-8352,325,-1,0,-1,1
267592,-247,-8352,325,-1,0,-1,1
267597,-243,-8353,324,-1,0,-1,1
267602,-239,-8354,320,-1,0,-1,1
267607,-236,-8354,320,-1,0,-1,1
267612,-228,-8352,322,-1,0,-1,1
267617,-221,-8350,325,-1,0,-1,1
267622,-218,-8348,322,-1,0,-1,1
267627,-212,-8345,316,-1,0,-1,1
267632,-204,-8343,311,-1,0,-1,1
267637,-199,-8344,301,-1,0,-1,1
267642,-193,-8344,292,-1,0,-1,1
267647,-189,-8343,282,-1,0,-1,1
267652,-184,-8343,274,-1,0,-1,1
267657,-180,-8341,264,-1,0,-1,1
267662,-173,-8343,254,-1,-1,-1,1
267667,-165,-8341,246,-1,-1,-1,1
267672,-161,-8340,244,-1,-1,-1,1
267677,-156,-8339,238,-1,-1,-1,1
267682,-153,-8339,235,-1,-1,-1,1
267687,-151,-8339,229,-1,-1,-1,1
267692,-146,-8338,224,-1,-1,-1,1
267697,-141,-8339,219,-1,-1,-1,1
267702,-138,-8340,216,-1,-1,-1,1
267707,-137,-8339,214,-1,-1,-1,1
267712,-136,-8338,219,-1,-1,-1,1
267717,-134,-8334,221,-1,-1,-1,1
267722,-130,-8333,222,-1,-1,-1,1
267727,-124,-8333,223,0,-1,-1,1
267732,-118,-8331,223,-1,-1,-1,1
267737,-110,-8331,223,0,-1,-1,1
267742,-100,-8333,221,0,-1,-1,1
267747,-93,-8333,221,0,-1,-1,1
267752,-86,-8334,224,0,-1,0,1
267757,-81,-8335,229,0,-1,-1,1
267762,-78,-8335,231,0,-1,0,1
267767,-76,-8332,233,0,-1,0,1
267772,-73,-8333,234,0,-1,0,1
267777,-70,-8334,238,0,-1,0,1
267782,-69,-8337,242,0,-1,0,1
267787,-71,-8343,246,0,-1,0,1
267792,-71,-8346,250,0,-1,0,1
267797,-75,-8346,254,0,-1,0,1
267802,-76,-8343,255,0,-1,0,1
267807,-78,-8343,257,0,-1,0,1
267812,-76,-8345,259,0,-1,0,1
267817,-79,-8344,263,0,-1,0,1
267822,-84,-8347,266,0,-1,0,1
267827,-88,-8347,268,0,-1,0,1
267832,-90,-8346,271,0,-1,0,1
267837,-92,-8344,274,0,-1,0,1
267842,-93,-8343,276,0,-1,0,1
267847,-93,-8344,281,0,-1,0,1
267852,-96,-8344,285,0,-1,0,1
267857,-100,-8344,286,0,-1,0,1
267862,-104,-8347,286,0,-1,0,1
267867,-105,-8346,291,0,-1,0,1
267872,-109,-8345,291,0,-1,0,1
267877,-113,-8347,287,0,-1,0,1
267882,-113,-8347,285,0,-1,0,1
267887,-112,-8346,276,0,-1,0,1
267892,-108,-8343,266,0,-1,0,1
267897,-104,-8343,258,0,-1,0,1
267902,-100,-8343,251,0,-1,0,1
267907,-98,-8342,249,0,-1,0,1
267912,-98,-8342,250,0,-1,0,1
267917,-98,-8345,256,0,-1,0,1
267922,-99,-8347,261,0,-1,0,1
267927,-100,-8349,265,0,-1,0,1
267932,-105,-8351,274,0,-1,0,1
267936,-110,-8350,276,0,-1,0,1
267942,-110,-8347,277,0,0,0,1
267946,-111,-8347,281,0,0,0,1
267952,-112,-8347,284,0,0,0,1
267956,-118,-8344,288,0,0,0,1
267961,-124,-8343,290,0,0,0,1
267966,-132,-8345,289,0,0,0,1
267971,-142,-8344,289,0,0,0,1
267976,-151,-8343,287,0,0,0,1
267982,-158,-8342,282,0,0,0,1
267986,-167,-8341,281,0,0,0,1
267991,-177,-8340,277,0,0,0,1
267996,-185,-8341,275,0,0,0,1
268001,-191,-8339,268,0,-1,0,1
268006,-196,-8338,264,0,-1,0,1
268011,-201,-8340,257,0,-1,0,1
268016,-208,-8338,255,0,-1,0,1
268021,-213,-8338,247,0,-1,0,1
268026,-217,-8338,242,0,-1,0,1
268031,-221,-8339,245,0,-1,0,1
268036,-224,-8341,244,0,-1,0,1
268041,-226,-8340,240,0,-1,0,1
268046,-228,-8339,241,0,-1,0,1
268051,-229,-8340,243,0,-1,0,1
268056,-225,-8337,242,0,-1,0,1
268061,-220,-8337,240,0,-1,0,1
268066,-215,-8336,242,0,-1,0,1
268071,-209,-8336,239,0,-1,0,1
268076,-202,-8335,239,0,-1,0,1
268081,-197,-8333,239,0,-1,0,1
268086,-187,-8335,231,0,-1,0,1
268091,-179,-8337,222,0,-1,0,1
268096,-175,-8334,213,0,-1,0,1
268101,-168,-8334,208,0,-1,0,1
268106,-165,-8335,199,0,-1,0,1
268111,-164,-8335,187,0,-1,0,1
268116,-155,-8333,178,0,-1,0,1
268121,-146,-8334,171,0,-1,0,1
268126,-139,-8338,164,0,-1,0,1
268131,-130,-8339,161,0,-1,0,1
268136,-121,-8338,156,0,-1,0,1
268141,-115,-8339,155,0,-1,0,1
268146,-110,-8338,152,0,-1,0,1
268151,-106,-8336,156,0,-1,0,1
268156,-102,-8336,159,0,-1,0,1
268161,-98,-8338,159,0,-1,0,1
268166,-91,-8337,158,0,-1,0,1
268171,-84,-8337,161,1,-1,0,1
268176,-80,-8336,164,1,-2,0,1
268181,-73,-8336,166,1,-2,0,1
268186,-68,-8334,173,1,-2,0,1
268191,-64,-8333,177,1,-2,0,1
268196,-58,-8335,181,1,-2,0,1
268201,-53,-8335,185,1,-2,0,1
268206,-50,-8336,192,1,-2,0,1
268211,-51,-8334,200,1,-3,0,1
268216,-57,-8333,208,1,-3,0,1
268221,-62,-8333,213,1,-3,0,1
268226,-73,-8332,223,1,-2,0,1
268231,-82,-8332,238,1,-2,0,1
268236,-91,-8333,245,1,-2,1,1
268241,-95,-8336,246,1,-2,1,1
268246,-99,-8335,246,1,-2,1,1
268251,-101,-8335,246,1,-1,1,1
268256,-99,-8337,244,1,-1,1,1
268261,-92,-8337,237,1,-1,1,1
268266,-84,-8337,227,1,-2,1,1
268271,-80,-8336,220,1,-2,1,1
268276,-79,-8334,215,1,-2,1,1
268281,-77,-8332,211,1,-2,1,1
268286,-77,-8334,207,1,-2,1,1
268291,-77,-8333,204,1,-2,1,1
268296,-76,-8334,199,1,-2,1,1
268301,-76,-8335,203,1,-2,1,1
268306,-78,-8339,200,1,-1,1,1
268311,-76,-8341,193,1,-1,1,1
268316,-76,-8342,193,1,-1,1,1
268321,-78,-8342,185,1,-1,1,1
268326,-79,-8343,185,1,-1,1,1
268331,-81,-8343,183,1,-1,1,1
268336,-87,-8340,184,1,-1,1,1
268341,-97,-8339,185,2,-1,1,1
268346,-107,-8339,187,2,-1,1,1
268351,-112,-8340,194,2,-1,1,1
268356,-122,-8339,202,2,-1,2,1
268361,-133,-8341,215,2,0,2,1
268366,-143,-8342,226,2,0,2,1
268371,-152,-8341,237,2,0,2,1
268376,-160,-8341,247,2,0,2,1
268381,-165,-8341,260,2,0,2,1
268386,-170,-8343,269,2,0,2,1
268391,-177,-8344,279,2,0,2,1
268396,-181,-8345,287,2,0,2,1
268401,-185,-8343,292,2,0,2,1
268406,-193,-8340,299,2,1,2,1
268411,-203,-8341,303,2,1,2,1
268416,-208,-8344,305,2,1,2,1
268421,-214,-8346,299,2,1,2,1
268426,-220,-8345,301,2,1,2,1
268431,-230,-8340,301,2,1,2,1
268436,-238,-8343,298,2,1,2,1
268441,-248,-8345,298,2,1,2,1
268446,-252,-8347,304,2,1,2,1
268450,-255,-8346,311,2,1,2,1
268456,-258,-8344,307,2,1,2,1
268460,-262,-8342,301,2,1,2,1
268466,-266,-8342,297,2,1,2,1
268470,-265,-8341,292,2,1,2,1
268476,-266,-8341,288,2,1,2,1
268480,-270,-8338,281,2,1,2,1
268486,-268,-8337,273,2,1,2,1
268490,-265,-8335,264,2,1,2,1
268495,-258,-8335,251,2,1,2,1
268500,-252,-8334,242,3,1,2,1
268505,-245,-8334,238,3,1,2,1
268510,-241,-8332,231,3,1,2,1
268515,-235,-8333,219,3,1,2,1
268520,-227,-8331,214,3,1,2,1
268525,-219,-8330,215,3,1,2,1
268530,-213,-8331,211,3,1,2,1
268535,-204,-8330,210,3,1,2,1
268540,-194,-8330,210,3,1,2,1
268545,-186,-8330,217,3,1,2,1
268550,-180,-8331,221,3,1,2,1
268555,-175,-8330,230,3,1,2,1
268560,-169,-8329,238,3,1,2,1
268565,-168,-8329,244,3,2,2,1
268570,-166,-8329,249,3,2,2,1
268575,-165,-8326,259,3,2,2,1
268580,-167,-8326,269,3,2,2,1
268585,-168,-8328,278,4,2,2,1
268590,-171,-8328,280,4,2,3,1
268595,-174,-8328,285,4,2,3,1
268600,-176,-8325,291,4,3,3,1
268605,-179,-8324,302,4,3,3,1
268610,-188,-8323,309,4,3,3,1
268615,-198,-8324,321,4,3,3,1
268620,-213,-8324,336,4,3,3,1
268625,-233,-8326,354,4,3,3,1
268630,-256,-8326,371,4,3,3,1
268635,-279,-8326,385,4,4,3,1
268640,-304,-8325,387,4,3,3,1
268645,-331,-8324,374,4,3,3,1
268650,-361,-8326,351,4,1,3,1
268655,-398,-8322,320,4,-1,2,1
268660,-444,-8323,291,4,-4,2,1
268665,-493,-8326,266,4,-8,2,1
268670,-551,-8323,261,4,-11,1,1
268675,-610,-8324,266,4,-14,1,1
268680,-654,-8324,302,4,-15,1,1
268685,-659,-8323,354,4,-15,1,1
268690,-629,-8321,413,4,-17,1,1
268695,-585,-8323,479,4,-19,1,1
268700,-533,-8325,528,5,-21,1,1
268705,-486,-8329,570,5,-21,1,1
268710,-462,-8332,599,5,-20,1,1
268715,-469,-8333,618,4,-19,1,1
268720,-507,-8336,639,4,-16,0,1
268725,-567,-8339,663,4,-12,1,1
268730,-636,-8340,690,4,-7,1,1
268735,-689,-8341,728,4,-2,1,1
268740,-717,-8345,768,4,1,1,1
268745,-717,-8345,812,4,2,1,1
268750,-702,-8345,843,4,2,1,1
268755,-677,-8348,866,4,2,1,1
268760,-652,-8350,872,4,2,1,1
268765,-637,-8349,867,4,2,1,1
268770,-636,-8349,847,4,2,0,1
268775,-648,-8349,821,4,2,0,1
268780,-662,-8350,794,4,3,1,1
268785,-676,-8350,763,4,4,1,1
268790,-688,-8347,736,4,6,1,1
268795,-684,-8345,712,4,8,1,1
268800,-654,-8340,689,4,11,1,1
268805,-621,-8338,675,4,12,1,1
268810,-576,-8338,665,4,13,1,1
268815,-531,-8336,645,4,13,1,1
268820,-495,-8335,616,4,12,1,1
268825,-475,-8335,578,4,12,1,1
268830,-479,-8333,540,4,11,1,1
268835,-490,-8333,509,4,12,1,1
268840,-504,-8332,481,4,12,1,1
268845,-520,-8330,469,4,12,1,1
268850,-525,-8326,458,4,10,1,1
268855,-523,-8328,455,4,9,1,1
268860,-510,-8327,455,4,8,1,1
268865,-486,-8327,455,5,7,1,1
268870,-460,-8326,461,5,6,1,1
268875,-431,-8323,463,5,5,1,1
268880,-412,-8320,468,5,4,0,1
268885,-400,-8320,475,5,2,0,1
268890,-397,-8323,487,5,2,0,1
268895,-397,-8325,507,5,3,0,1
268900,-398,-8326,535,5,3,1,1
268905,-404,-8329,563,5,4,1,1
268910,-408,-8331,592,5,6,1,1
268915,-417,-8332,616,5,8,1,1
268920,-425,-8330,637,5,10,1,1
268925,-437,-8328,664,5,14,1,1
268929,-448,-8328,680,5,18,1,1
268934,-451,-8329,689,5,22,1,1
268940,-442,-8326,689,5,24,2,1
268945,-431,-8324,683,5,26,2,1
268950,-413,-8324,675,5,28,2,1
268955,-383,-8325,671,5,29,2,1
268960,-346,-8326,669,5,29,2,1
268965,-312,-8326,676,5,28,2,1
268969,-283,-8325,689,5,28,2,1
268974,-261,-8327,709,5,28,2,1
268979,-242,-8332,744,5,28,2,1
268984,-226,-8337,786,5,29,3,1
268989,-213,-8335,829,5,28,3,1
268994,-206,-8335,880,5,27,3,1
268999,-205,-8335,930,5,26,3,1
269004,-203,-8337,975,5,25,3,1
269009,-209,-8336,1010,5,24,3,1
269014,-214,-8341,1035,5,23,3,1
269019,-221,-8343,1051,5,23,3,1
269024,-235,-8346,1060,5,23,3,1
269029,-256,-8349,1068,5,23,3,1
269034,-282,-8349,1068,4,24,3,1
269039,-314,-8347,1066,4,25,3,1
269044,-346,-8347,1063,4,26,3,1
269049,-372,-8350,1062,4,27,3,1
269054,-396,-8348,1064,4,28,4,1
269059,-409,-8345,1071,4,28,4,1
269064,-416,-8344,1079,4,28,4,1
269069,-414,-8341,1079,4,28,4,1
269074,-410,-8338,1074,4,29,4,1
269079,-406,-8337,1061,4,29,4,1
269084,-396,-8337,1038,4,29,4,1
269089,-390,-8337,1012,4,28,4,1
269094,-386,-8337,989,4,28,4,1
269099,-377,-8335,963,4,27,4,1
269104,-365,-8334,935,4,26,4,1
269109,-351,-8332,910,4,25,4,1
269114,-340,-8332,891,4,24,4,1
269119,-331,-8333,877,4,23,4,1
269124,-323,-8332,866,4,21,4,1
269129,-322,-8331,858,4,19,4,1
269134,-324,-8332,857,4,16,4,1
269139,-337,-8335,862,4,14,4,1
269144,-352,-8337,872,4,13,4,1
269149,-369,-8335,881,4,12,4,1
269154,-391,-8333,895,4,12,4,1
269159,-413,-8331,910,4,12,4,1
269164,-439,-8327,925,4,12,4,1
269169,-461,-8329,939,4,13,4,1
269174,-470,-8330,961,4,14,5,1
269179,-473,-8328,983,4,14,5,1
269184,-476,-8327,999,4,14,5,1
269189,-473,-8324,1004,4,14,5,1
269194,-474,-8320,1003,4,13,5,1
269199,-477,-8320,995,4,14,5,1
269204,-485,-8321,976,4,14,5,1
269209,-561,-8318,947,4,14,5,1
269214,-706,-8315,915,4,17,5,1
269219,-821,-8309,867,4,20,5,1
269224,-952,-8304,814,4,22,5,1
269229,-1055,-8301,755,4,21,5,1
269234,-1092,-8298,698,4,20,5,1
269239,-1085,-8298,656,4,18,5,1
269244,-1029,-8303,627,4,13,4,1
269249,-971,-8307,622,5,7,3,1
269254,-936,-8308,631,5,1,3,1
269259,-932,-8307,658,5,-3,2,1
269264,-972,-8306,697,5,-5,2,1
269269,-1038,-8303,729,5,-5,2,1
269274,-1107,-8300,767,5,-5,2,1
269279,-1157,-8301,803,5,-4,2,1
269284,-1166,-8299,837,5,-3,2,1
269289,-1138,-8300,879,5,-2,2,1
269294,-1079,-8301,919,5,-2,2,1
269299,-1002,-8306,968,5,-2,2,1
269304,-923,-8312,1020,5,-2,2,1
269309,-864,-8317,1068,5,-2,2,1
269314,-836,-8313,1111,5,-1,2,1
269319,-835,-8311,1152,5,-1,2,1
269324,-843,-8308,1187,4,0,2,1
269329,-856,-8309,1219,4,0,2,1
269334,-859,-8313,1253,4,1,2,1
269339,-849,-8315,1287,4,1,2,1
269344,-816,-8317,1319,4,2,2,1
269349,-774,-8319,1361,4,2,2,1
269354,-732,-8320,1397,4,2,2,1
269359,-705,-8318,1434,4,1,2,1
269364,-699,-8320,1464,3,1,2,1
269369,-711,-8320,1496,3,1,2,1
269374,-741,-8318,1529,3,2,2,1
269379,-779,-8316,1557,3,2,2,1
269384,-815,-8319,1582,3,3,2,1
269389,-839,-8322,1607,2,5,2,1
269394,-850,-8324,1627,2,6,2,1
269399,-854,-8323,1645,2,7,2,1
269404,-852,-8323,1665,2,8,2,1
269409,-846,-8325,1670,2,10,2,1
269414,-841,-8326,1667,2,11,2,1
269419,-838,-8324,1655,2,12,2,1
269424,-833,-8325,1637,2,12,2,1
269429,-826,-8324,1613,1,11,2,1
269434,-826,-8324,1593,1,9,2,1
269439,-825,-8325,1572,1,8,2,1
269443,-824,-8327,1554,1,7,2,1
269449,-820,-8325,1542,1,6,2,1
269454,-811,-8325,1526,1,6,2,1
269459,-802,-8325,1519,1,6,2,1
269464,-797,-8325,1517,0,6,2,1
269469,-794,-8323,1518,0,5,2,1
269473,-791,-8323,1520,0,5,2,1
269478,-790,-8321,1525,0,5,2,1
269483,-795,-8319,1526,0,5,2,1
269489,-801,-8317,1531,0,5,2,1
269493,-807,-8317,1531,0,6,2,1
269498,-808,-8315,1526,0,6,2,1
269503,-811,-8314,1524,0,7,2,1
269508,-812,-8318,1516,-1,7,2,1
269513,-811,-8316,1511,-1,8,2,1
269518,-812,-8314,1502,-1,8,2,1
269523,-814,-8316,1491,-1,8,2,1
269528,-815,-8313,1480,-1,8,2,1
269533,-819,-8311,1468,-1,8,2,1
269538,-832,-8310,1456,-1,9,2,1
269543,-847,-8310,1451,-1,10,2,1
269548,-868,-8311,1446,-1,10,2,1
269553,-889,-8313,1442,-1,10,2,1
269558,-913,-8313,1429,-1,10,2,1
269563,-943,-8311,1410,-1,9,2,1
269568,-982,-8307,1385,-1,8,2,1
269573,-1025,-8307,1356,-2,7,2,1
269578,-1060,-8307,1323,-2,7,2,1
269583,-1090,-8309,1290,-2,5,2,1
269588,-1114,-8308,1256,-2,2,2,1
269593,-1136,-8306,1214,-2,0,1,1
269598,-1154,-8306,1176,-2,-1,1,1
269603,-1173,-8302,1146,-2,-2,1,1
269608,-1192,-8301,1123,-2,-2,1,1
269613,-1210,-8299,1106,-2,-2,0,1
269618,-1219,-8298,1092,-2,-3,0,1
269623,-1224,-8302,1086,-1,-3,0,1
269628,-1220,-8305,1082,-1,-3,0,1
269633,-1205,-8305,1080,-1,-3,0,1
269638,-1183,-8302,1073,-1,-3,0,1
269643,-1158,-8298,1062,-1,-3,0,1
269648,-1136,-8298,1045,-1,-2,0,1
269653,-1113,-8296,1022,-1,-2,0,1
269658,-1092,-8292,997,-1,-1,0,1
269663,-1067,-8292,973,-1,0,0,1
269668,-1034,-8293,963,-1,1,0,1
269673,-994,-8293,964,-1,1,0,1
269678,-956,-8294,975,-1,1,0,1
269683,-923,-8293,999,-1,1,0,1
269688,-894,-8293,1025,-1,1,0,1
269693,-873,-8292,1060,-1,1,0,1
269698,-861,-8294,1092,-1,1,0,1
269703,-853,-8294,1119,-1,1,0,1
269708,-842,-8293,1137,-1,2,0,1
269713,-833,-8296,1146,-1,2,0,1
269718,-820,-8296,1153,-1,2,0,1
269723,-812,-8294,1152,-1,2,1,1
269728,-807,-8294,1144,-2,4,1,1
269733,-814,-8295,1139,-2,6,1,1
269738,-823,-8292,1134,-2,9,1,1
269743,-831,-8293,1126,-2,11,1,1
269748,-840,-8290,1118,-2,13,1,1
269753,-840,-8288,1107,-2,14,1,1
269758,-836,-8287,1094,-2,14,1,1
269763,-818,-8286,1076,-2,14,1,1
269768,-799,-8286,1060,-2,13,1,1
269773,-789,-8287,1043,-2,12,1,1
269778,-782,-8286,1022,-1,11,1,1
269783,-781,-8289,999,-1,10,1,1
269788,-797,-8288,977,-1,9,1,1
269793,-822,-8287,953,-1,8,1,1
269798,-854,-8285,930,-1,6,1,1
269803,-889,-8281,904,-1,5,1,1
269808,-920,-8279,867,-1,4,1,1
269813,-944,-8280,827,-1,2,1,1
269818,-958,-8281,786,-1,1,1,1
269823,-967,-8280,760,-1,-1,1,1
269828,-971,-8281,743,-1,-2,1,1
269833,-978,-8281,736,-1,-3,0,1
269838,-991,-8281,741,-1,-3,0,1
269843,-1004,-8282,745,-1,-3,0,1
269848,-1017,-8282,756,0,-3,0,1
269853,-1025,-8282,770,0,-3,0,1
269858,-1019,-8283,781,0,-3,0,1
269863,-1004,-8283,790,0,-3,0,1
269868,-974,-8280,804,0,-2,0,1
269873,-937,-8281,821,0,-2,0,1
269878,-899,-8282,841,0,-2,0,1
269883,-867,-8287,872,0,-2,0,1
269888,-852,-8292,896,0,-3,0,1
269893,-849,-8291,922,0,-3,0,1
269898,-863,-8289,948,0,-4,0,1
269903,-889,-8291,972,0,-4,1,1
269908,-913,-8290,993,0,-4,1,1
269913,-929,-8293,1017,0,-4,1,1
269918,-937,-8290,1037,0,-4,1,1
269923,-933,-8292,1064,0,-4,1,1
269928,-930,-8292,1082,0,-4,1,1
269933,-924,-8292,1096,0,-4,1,1
269938,-925,-8291,1104,0,-4,1,1
269942,-942,-8289,1104,0,-4,0,1
269947,-968,-8289,1101,0,-4,0,1
269953,-1004,-8290,1095,0,-3,0,1
269957,-1037,-8289,1084,-1,-3,0,1
269963,-1062,-8290,1074,-1,-3,0,1
269967,-1076,-8289,1065,-1,-2,0,1
269972,-1078,-8286,1061,-1,-2,0,1
269977,-1070,-8283,1060,-1,-2,0,1
269982,-1058,-8284,1057,-1,-2,0,1
269987,-1046,-8285,1059,-1,-3,0,1
269992,-1043,-8288,1064,-1,-3,0,1
269997,-1046,-8292,1063,-1,-3,0,1
270002,-1060,-8290,1062,-1,-3,0,1
270007,-1077,-8288,1060,-1,-3,0,1
270012,-1091,-8286,1056,-1,-3,0,1
270017,-1099,-8287,1050,-1,-3,0,1
270022,-1094,-8287,1047,-1,-3,0,1
270027,-1079,-8287,1057,-1,-4,0,1
270032,-1056,-8288,1075,-1,-4,0,1
270037,-1029,-8284,1091,-1,-5,0,1
270042,-1005,-8284,1106,-1,-5,0,1
270047,-983,-8286,1119,-1,-6,0,1
270052,-967,-8286,1124,-1,-6,0,1
270057,-943,-8288,1129,-1,-5,0,1
270062,-909,-8291,1137,-1,-4,0,1
270067,-860,-8289,1160,-1,-3,1,1
270072,-795,-8289,1186,-1,-3,1,1
270077,-722,-8291,1216,-1,-3,1,1
270082,-646,-8291,1235,-1,-4,1,1
270087,-579,-8289,1239,-1,-6,1,1
270092,-530,-8286,1218,-1,-9,1,1
270097,-510,-8283,1177,-1,-13,1,1
270102,-520,-8282,1113,-1,-16,1,1
270107,-549,-8281,1042,-1,-18,1,1
270112,-593,-8282,972,-1,-18,1,1
270117,-633,-8281,919,-1,-17,1,1
270122,-649,-8281,882,-1,-15,2,1
270127,-652,-8279,870,-1,-13,2,1
270132,-642,-8280,875,-1,-12,2,1
270137,-631,-8279,889,-1,-11,2,1
270142,-617,-8278,911,0,-10,2,1
270147,-619,-8277,925,0,-11,2,1
270152,-652,-8279,933,0,-10,2,1
270157,-692,-8279,937,0,-8,2,1
270162,-739,-8278,935,0,-7,2,1
270167,-783,-8280,936,0,-5,2,1
270172,-825,-8279,934,0,-4,3,1
270177,-850,-8279,936,0,-3,3,1
270182,-855,-8279,945,0,-1,3,1
270187,-843,-8279,966,0,0,3,1
270192,-827,-8278,994,0,0,3,1
270197,-823,-8275,1023,0,-1,3,1
270202,-831,-8273,1048,0,-1,3,1
270207,-850,-8276,1072,0,-2,3,1
270212,-886,-8277,1090,0,-4,3,1
270217,-929,-8277,1103,0,-5,3,1
270222,-960,-8273,1113,0,-7,3,1
270227,-991,-8269,1118,0,-9,3,1
270232,-1033,-8268,1122,0,-12,3,1
270237,-1073,-8268,1119,-1,-13,3,1
270242,-1111,-8269,1122,-1,-12,2,1
270247,-1146,-8272,1127,-1,-11,2,1
270252,-1176,-8269,1131,-1,-10,2,1
270257,-1205,-8269,1136,-1,-10,2,1
270262,-1235,-8268,1144,-1,-11,2,1
270267,-1259,-8271,1162,-1,-11,2,1
270272,-1282,-8270,1178,-1,-11,2,1
270277,-1301,-8270,1184,-1,-11,2,1
270282,-1313,-8273,1184,-1,-12,2,1
270287,-1313,-8274,1177,-1,-11,2,1
270292,-1297,-8272,1162,-1,-11,2,1
270297,-1259,-8270,1146,-1,-11,2,1
270302,-1222,-8271,1132,-1,-12,2,1
270307,-1185,-8271,1117,-1,-12,1,1
270312,-1148,-8271,1108,-1,-13,1,1
270317,-1121,-8270,1109,-1,-13,1,1
270322,-1104,-8270,1112,-1,-13,1,1
270327,-1084,-8269,1126,-1,-14,1,1
270332,-1072,-8267,1139,-1,-15,1,1
270337,-1065,-8269,1144,-1,-17,1,1
270342,-1058,-8269,1143,-1,-18,2,1
270347,-1046,-8271,1137,-1,-19,2,1
270352,-1022,-8271,1131,-1,-20,2,1
270357,-995,-8269,1118,-1,-20,2,1
270362,-965,-8267,1105,-1,-22,2,1
270367,-938,-8265,1092,-1,-23,2,1
270372,-912,-8264,1079,-1,-25,2,1
270377,-889,-8261,1076,-1,-28,2,1
270382,-865,-8258,1074,-1,-30,2,1
270387,-835,-8257,1072,-1,-33,2,1
270392,-803,-8256,1073,0,-35,2,1
270397,-757,-8255,1075,0,-38,2,1
270402,-740,-8257,1071,0,-40,2,1
270407,-735,-8256,1068,0,-41,2,1
270412,-734,-8260,1076,0,-40,2,1
270417,-728,-8253,1086,0,-41,2,1
270422,-731,-8249,1094,0,-43,2,1
270426,-739,-8248,1097,0,-45,2,1
270432,-756,-8247,1094,0,-46,2,1
270437,-778,-8244,1092,0,-47,2,1
270442,-801,-8244,1084,0,-47,2,1
270447,-820,-8241,1080,0,-47,2,1
270451,-842,-8240,1076,0,-48,2,1
270457,-861,-8241,1069,0,-50,2,1
270461,-879,-8242,1067,0,-51,3,1
270467,-899,-8243,1066,0,-51,3,1
270471,-957,-8242,1040,0,-51,2,1
270476,-930,-8247,1075,1,-53,2,1
270481,-908,-8241,1099,0,-52,3,1
270486,-882,-8248,1127,0,-53,3,1
270491,-810,-8247,1188,0,-55,3,1
270496,-754,-8244,1234,0,-55,3,1
270501,-685,-8244,1307,1,-56,3,1
270506,-636,-8240,1364,1,-58,3,1
270511,-612,-8241,1413,1,-62,3,1
270516,-611,-8239,1458,1,-67,3,1
270521,-622,-8235,1477,1,-71,3,1
270526,-633,-8234,1496,0,-75,3,1
270531,-642,-8232,1507,0,-78,3,1
270536,-646,-8230,1528,0,-81,3,1
270541,-649,-8235,1556,0,-84,3,1
270546,-647,-8234,1580,0,-86,3,1
270551,-648,-8236,1608,0,-87,3,1
270556,-660,-8236,1637,0,-87,3,1
270561,-680,-8234,1662,0,-87,3,1
270566,-715,-8234,1682,1,-85,4,1
270571,-753,-8231,1688,1,-83,4,1
270576,-806,-8229,1686,1,-80,4,1
270581,-850,-8227,1678,1,-77,4,1
270586,-900,-8226,1659,1,-74,4,1
270591,-940,-8227,1636,1,-72,4,1
270596,-968,-8224,1612,1,-71,4,1
270601,-979,-8222,1593,1,-71,4,1
270606,-968,-8219,1593,1,-72,4,1
270611,-935,-8214,1610,1,-74,4,1
270616,-893,-8211,1630,1,-78,4,1
270621,-858,-8214,1655,1,-82,4,1
270626,-825,-8215,1679,1,-85,4,1
270631,-787,-8216,1705,1,-86,4,1
270636,-749,-8217,1738,1,-85,4,1
270641,-709,-8222,1783,1,-83,5,1
270646,-670,-8225,1836,1,-81,5,1
270651,-634,-8223,1893,1,-80,5,1
270656,-607,-8220,1950,1,-79,5,1
270661,-584,-8216,1992,1,-77,5,1
270666,-572,-8215,2025,1,-75,6,1
270671,-548,-8210,2049,1,-74,6,1
270676,-498,-8194,2050,1,-77,6,1
270681,-498,-8196,2026,2,-81,6,1
270686,-501,-8204,2011,1,-87,6,1
270691,-536,-8192,2007,1,-90,6,1
270696,-576,-8182,2006,1,-92,6,1
270701,-615,-8176,2028,1,-90,6,1
270706,-633,-8172,2056,1,-84,7,1
270711,-620,-8173,2084,2,-78,7,1
270716,-596,-8174,2097,2,-73,7,1
270721,-574,-8188,2111,2,-70,7,1
270726,-546,-8187,2119,2,-70,7,1
270731,-539,-8181,2146,1,-72,7,1
270736,-535,-8174,2178,2,-78,7,1
270741,-534,-8161,2209,2,-84,7,1
270746,-541,-8150,2234,2,-90,7,1
270751,-568,-8150,2254,2,-95,7,1
270756,-599,-8155,2266,2,-98,7,1
270761,-636,-8160,2284,2,-99,7,1
270766,-666,-8171,2318,2,-100,7,1
270771,-686,-8172,2358,2,-102,7,1
270776,-684,-8168,2405,2,-107,7,1
270781,-654,-8165,2471,2,-114,7,1
270786,-589,-8158,2543,2,-126,6,1
270791,-500,-8145,2632,2,-143,6,1
270796,-418,-8139,2694,2,-161,5,1
270801,-353,-8136,2760,2,-177,5,1
270806,-282,-8129,2793,2,-190,5,1
270811,-205,-8136,2830,2,-202,5,1
270816,-132,-8130,2859,3,-212,4,1
270821,-53,-8122,2911,2,-222,4,1
270826,19,-8121,3002,2,-233,4,1
270831,77,-8125,3102,2,-245,4,1
270836,98,-8129,3218,3,-257,3,1
270841,84,-8124,3321,3,-266,3,1
270846,23,-8123,3399,3,-272,3,1
270851,-93,-8122,3450,4,-271,3,1
270856,-259,-8121,3458,4,-261,3,1
270861,-479,-8114,3421,4,-242,3,1
270866,-731,-8111,3345,5,-213,4,1
270871,-993,-8118,3249,5,-176,5,1
270876,-1224,-8129,3141,5,-136,6,1
270881,-1390,-8139,3068,5,-97,7,1
270886,-1490,-8157,3022,4,-64,7,1
270891,-1516,-8159,3000,4,-38,8,1
270896,-1471,-8154,3023,4,-20,9,1
270901,-1376,-8151,3065,3,-10,9,1
270906,-1257,-8148,3111,4,-7,8,1
270911,-1133,-8145,3138,4,-7,8,1
270916,-1023,-8138,3134,4,-11,8,1
270921,-923,-8136,3099,4,-15,7,1
270926,-833,-8140,3043,4,-21,7,1
270931,-743,-8139,2994,4,-27,7,1
270936,-646,-8135,2951,3,-32,7,1
270941,-560,-8131,2931,3,-35,7,1
270946,-484,-8132,2934,3,-36,7,1
270951,-438,-8129,2942,3,-35,7,1
270955,-436,-8125,2958,4,-32,7,1
270960,-465,-8129,2973,4,-29,7,1
270965,-516,-8125,2991,4,-25,7,1
270970,-585,-8124,3013,3,-22,7,1
270976,-663,-8127,3037,3,-20,7,1
270980,-746,-8123,3063,3,-18,7,1
270985,-829,-8120,3085,3,-16,7,1
270990,-912,-8117,3099,3,-13,7,1
270995,-995,-8113,3097,3,-10,6,1
271000,-1070,-8112,3082,3,-9,6,1
271005,-1136,-8112,3048,3,-8,6,1
271010,-1183,-8113,3002,3,-8,6,1
271015,-1205,-8113,2962,3,-10,6,1
271020,-1202,-8111,2928,3,-11,5,1
271025,-1179,-8106,2909,3,-13,5,1
271030,-1146,-8104,2894,3,-15,5,1
271035,-1109,-8105,2883,3,-17,4,1
271040,-1079,-8102,2878,3,-18,4,1
271045,-1057,-8101,2872,3,-20,4,1
271050,-1043,-8102,2863,3,-23,3,1
271055,-1034,-8094,2851,3,-27,3,1
271060,-1027,-8090,2837,4,-32,3,1
271065,-1015,-8082,2830,4,-37,3,1
271070,-991,-8075,2816,4,-43,2,1
271075,-952,-8074,2805,4,-47,2,1
271080,-886,-8074,2796,4,-52,2,1
271085,-803,-8074,2781,4,-56,1,1
271090,-707,-8072,2775,4,-61,1,1
271095,-607,-8072,2774,4,-66,1,1
271100,-512,-8074,2783,4,-71,1,1
271105,-431,-8070,2808,4,-76,0,1
271110,-372,-8065,2851,4,-80,0,1
271115,-347,-8066,2909,4,-85,0,1
271120,-350,-8066,2968,5,-88,0,1
271125,-383,-8069,3041,5,-91,0,1
271130,-439,-8082,3100,5,-92,-1,1
271135,-509,-8087,3147,4,-92,-1,1
271140,-574,-8088,3202,4,-91,-1,1
271145,-635,-8093,3245,4,-89,-1,1
271150,-697,-8096,3284,4,-86,-1,1
271155,-757,-8102,3317,4,-80,-1,1
271160,-809,-8109,3331,4,-70,-1,1
271165,-849,-8112,3329,4,-58,-1,1
271170,-877,-8117,3319,4,-43,-1,1
271175,-887,-8122,3304,4,-28,-1,1
271180,-880,-8123,3272,4,-13,0,1
271185,-849,-8119,3244,3,-1,0,1
271190,-791,-8113,3228,3,9,0,1
271195,-717,-8109,3223,3,15,0,1
271200,-643,-8103,3226,3,17,0,1
271205,-572,-8096,3226,3,18,0,1
271210,-522,-8094,3222,3,17,0,1
271215,-489,-8096,3224,3,17,0,1
271220,-462,-8094,3219,3,18,0,1
271225,-427,-8090,3224,3,17,0,1
271230,-384,-8088,3235,3,16,0,1
271235,-335,-8088,3242,3,13,0,1
271240,-280,-8083,3248,3,10,0,1
271245,-228,-8084,3245,3,7,0,1
271250,-175,-8083,3242,3,4,-1,1
271255,-130,-8082,3232,3,2,-1,1
271260,-80,-8079,3229,3,-1,-1,1
271265,-38,-8071,3224,3,-4,-1,1
271270,5,-8066,3216,3,-8,-1,1
271275,49,-8061,3210,3,-13,-1,1
271280,90,-8055,3196,3,-18,-1,1
271285,126,-8056,3179,3,-23,-1,1
271290,139,-8054,3159,3,-27,-1,1
271295,142,-8054,3151,3,-30,-1,1
271300,136,-8054,3147,3,-30,-1,1
271305,123,-8057,3163,3,-29,-1,1
271310,110,-8062,3182,3,-27,-1,1
271315,102,-8062,3203,3,-25,-1,1
271320,100,-8063,3231,3,-23,-1,1
271325,104,-8065,3253,3,-20,-1,1
271330,115,-8064,3268,3,-18,-1,1
271335,133,-8063,3281,3,-17,-1,1
271340,164,-8061,3289,3,-16,0,1
271345,195,-8058,3298,3,-15,0,1
271350,224,-8055,3293,3,-16,0,1
271355,251,-8052,3288,3,-17,0,1
271360,272,-8052,3279,3,-19,0,1
271365,283,-8050,3262,3,-20,0,1
271370,298,-8050,3246,3,-22,0,1
271375,304,-8045,3223,3,-22,0,1
271380,312,-8045,3204,3,-22,0,1
271385,322,-8045,3176,3,-20,0,1
271390,333,-8040,3151,3,-17,0,1
271395,350,-8037,3124,3,-14,1,1
271400,371,-8038,3095,3,-12,1,1
271405,394,-8036,3063,4,-11,1,1
271410,421,-8031,3039,4,-11,1,1
271415,449,-8026,3019,4,-12,1,1
271420,470,-8019,3002,4,-14,1,1
271425,486,-8009,2989,4,-17,1,1
271430,490,-8012,2986,4,-19,1,1
271435,479,-8008,2988,4,-21,1,1
271440,456,-8002,3000,4,-22,1,1
271445,428,-8001,3020,4,-22,1,1
271450,400,-8002,3060,4,-21,1,1
271455,370,-8002,3102,4,-21,2,1
271460,338,-8008,3142,4,-20,2,1
271465,306,-8007,3179,5,-18,2,1
271469,283,-8006,3212,5,-17,2,1
271475,260,-8008,3248,5,-17,2,1
271479,236,-8009,3277,4,-16,2,1
271484,214,-8009,3314,4,-17,2,1
271489,187,-8008,3352,4,-17,2,1
271494,167,-8004,3389,4,-18,2,1
271499,146,-8007,3422,4,-18,2,1
271504,125,-8012,3456,4,-17,1,1
271509,106,-8016,3484,4,-17,2,1
271514,90,-8012,3509,4,-15,2,1
271519,79,-8014,3535,4,-14,1,1
271524,69,-8017,3573,4,-13,1,1
271529,58,-8015,3614,4,-12,1,1
271534,47,-8016,3653,4,-12,1,1
271539,41,-8012,3689,4,-13,1,1
271544,35,-8009,3723,4,-15,1,1
271549,30,-8007,3745,3,-18,1,1
271554,31,-8003,3753,3,-22,1,1
271559,30,-8000,3755,3,-25,1,1
271564,31,-7999,3747,3,-28,0,1
271569,31,-7997,3737,3,-29,0,1
271574,28,-8000,3735,3,-30,0,1
271579,25,-8001,3746,3,-29,0,1
271584,18,-8001,3754,3,-27,0,1
271589,9,-8006,3769,3,-25,0,1
271594,2,-8008,3795,3,-22,0,1
271599,-10,-8008,3833,2,-19,0,1
271604,-25,-8011,3872,2,-17,0,1
271609,-45,-8010,3914,2,-14,0,1
271614,-64,-8009,3943,2,-12,0,1
271619,-79,-8007,3977,2,-10,0,1
271624,-98,-8009,4001,2,-8,0,1
271629,-118,-8016,4018,1,-7,0,1
271634,-139,-8020,4037,1,-6,0,1
271639,-167,-8023,4046,1,-4,0,1
271644,-187,-8021,4061,1,-1,0,1
271649,-200,-8017,4072,0,2,0,1
271654,-196,-8018,4086,0,5,0,1
271659,-182,-8013,4099,0,7,0,1
271664,-155,-8009,4104,0,9,0,1
271669,-129,-8008,4095,0,9,-1,1
271674,-105,-8006,4073,0,8,-1,1
271679,-86,-8003,4040,0,6,-1,1
271684,-79,-8004,4004,0,3,-1,1
271689,-80,-8002,3975,-1,-1,-1,1
271694,-94,-8001,3951,-1,-3,-1,1
271699,-107,-8000,3935,-1,-5,-2,1
271704,-124,-8001,3933,-1,-5,-2,1
271709,-139,-7997,3926,-1,-4,-2,1
271714,-150,-7993,3908,-1,-2,-2,1
271719,-157,-7995,3874,-1,0,-2,1
271724,-154,-7991,3833,-1,3,-2,1
271729,-147,-7986,3790,-1,5,-2,1
271734,-142,-7977,3746,-1,7,-2,1
271739,-141,-7960,3712,-2,11,-2,1
271744,-134,-7954,3711,-2,15,-2,1
271749,-126,-7944,3700,-1,18,-2,1
271754,-113,-7960,3714,-1,21,-2,1
271759,-97,-7953,3685,-1,23,-2,1
271764,-70,-7938,3677,-1,24,-2,1
271769,-41,-7919,3655,-1,24,-2,1
271774,-5,-7932,3660,-1,23,-2,1
271779,30,-7950,3649,-1,22,-2,1
271784,52,-7968,3638,-1,21,-2,1
271789,68,-7970,3608,-1,20,-2,1
271794,84,-7939,3547,-1,18,-2,1
271799,94,-7922,3540,-1,15,-2,1
271804,112,-7940,3538,-1,12,-2,1
271809,135,-7968,3544,-1,11,-2,1
271814,161,-7983,3528,-1,10,-2,1
271819,186,-7957,3482,-1,9,-2,1
271824,212,-7944,3461,-1,10,-2,1
271829,236,-7957,3439,-1,10,-2,1
271834,252,-7974,3436,-1,11,-2,1
271839,270,-7995,3426,-1,12,-2,1
271844,283,-7999,3393,-1,13,-2,1
271849,299,-7985,3355,-1,13,-2,1
271854,319,-7979,3333,-1,14,-2,1
271859,340,-8010,3342,-1,13,-2,1
271864,370,-8043,3333,-1,13,-2,1
271869,408,-8052,3312,-1,10,-2,1
271874,444,-8045,3289,-1,7,-2,1
271879,484,-8036,3258,-1,2,-2,1
271884,519,-8031,3258,-1,-2,-2,1
271889,541,-8027,3276,-1,-5,-2,1
271894,558,-8020,3305,-1,-5,-2,1
271899,562,-8013,3335,-1,-5,-2,1
271904,562,-8007,3354,-1,-3,-2,1
271909,563,-8002,3356,-1,-3,-1,1
271914,575,-7998,3340,-1,-2,-1,1
271919,597,-7995,3326,-1,-3,-1,1
271924,625,-7994,3303,-1,-5,-1,1
271929,653,-7991,3290,-1,-7,-1,1
271934,668,-7986,3290,-1,-9,-1,1
271938,675,-7982,3288,-1,-12,-1,1
271944,670,-7981,3296,0,-15,-1,1
271949,655,-7980,3304,0,-18,-1,1
271953,636,-7978,3306,0,-21,-1,1
271958,608,-7981,3310,0,-23,-1,1
271964,576,-7980,3318,0,-25,-1,1
271968,541,-7976,3320,0,-26,-1,1
271974,514,-7977,3327,0,-27,-1,1
271979,495,-7975,3333,0,-28,-1,1
271983,477,-7977,3331,0,-29,-1,1
271989,468,-7977,3334,0,-28,-1,1
271993,458,-7977,3338,0,-27,-1,1
271998,447,-7981,3349,0,-26,-1,1
272003,431,-7986,3377,0,-24,-1,1
272008,400,-7990,3400,0,-22,0,1
272013,365,-7992,3426,0,-19,0,1
272018,321,-7991,3455,0,-17,0,1
272023,280,-7990,3478,0,-14,0,1
272028,246,-7991,3496,0,-13,0,1
272033,220,-7995,3509,0,-12,0,1
272038,205,-7997,3508,0,-11,0,1
272043,190,-7995,3501,0,-10,0,1
272048,178,-7993,3495,0,-10,0,1
272053,164,-7990,3480,0,-10,-1,1
272058,143,-7991,3466,0,-9,-1,1
272063,125,-7990,3455,0,-9,-1,1
272068,106,-7988,3436,0,-8,-1,1
272073,95,-7986,3411,0,-7,-1,1
272078,93,-7986,3385,0,-6,-1,1
272083,102,-7986,3355,0,-5,-1,1
272088,117,-7987,3336,0,-4,-1,1
272093,130,-7986,3325,0,-2,-1,1
272098,137,-7983,3322,0,-2,-1,1
272103,142,-7982,3335,0,0,-1,1
272108,142,-7981,3361,0,1,-1,1
272113,145,-7982,3386,0,2,-1,1
272118,145,-7980,3409,0,3,-1,1
272123,153,-7978,3422,0,4,-1,1
272128,166,-7977,3418,0,4,-1,1
272133,177,-7976,3407,0,4,-1,1
272138,191,-7975,3395,0,5,-1,1
272143,194,-7975,3375,0,5,-1,1
272148,199,-7972,3358,0,5,-1,1
272153,218,-7971,3356,0,6,-1,1
272158,247,-7971,3350,1,7,-1,1
272163,281,-7971,3354,1,7,-1,1
272168,314,-7972,3359,1,7,-1,1
272173,342,-7973,3366,1,6,-1,1
272178,358,-7973,3380,1,5,-1,1
272183,360,-7979,3401,1,4,-1,1
272188,357,-7979,3429,0,3,-1,1
272193,347,-7979,3472,0,3,-1,1
272198,336,-7979,3512,1,3,-1,1
272203,327,-7978,3543,1,4,-1,1
272208,317,-7977,3567,1,5,-1,1
272213,307,-7978,3579,1,8,-1,1
272218,296,-7978,3581,0,12,0,1
272223,282,-7973,3579,0,17,0,1
272228,266,-7970,3586,0,24,0,1
272233,257,-7969,3592,0,30,0,1
272238,256,-7968,3605,0,35,0,1
272243,257,-7967,3612,0,38,0,1
272248,262,-7966,3613,0,39,0,1
272253,268,-7964,3616,0,41,0,1
272258,279,-7972,3609,0,42,1,1
272263,292,-7970,3596,0,42,1,1
272268,305,-7973,3592,0,42,1,1
272273,315,-7985,3577,0,40,0,1
272278,318,-7990,3563,0,37,0,1
272283,307,-7993,3554,0,33,0,1
272288,288,-7996,3549,0,30,0,1
272293,260,-7997,3544,0,26,0,1
272298,226,-7999,3539,0,23,0,1
272303,192,-7996,3535,0,19,0,1
272308,151,-7990,3534,0,17,0,1
272313,110,-7992,3539,0,15,0,1
272318,79,-7991,3531,0,14,0,1
272323,56,-7985,3515,0,12,0,1
272328,48,-7981,3500,0,11,-1,1
272333,55,-7979,3485,0,11,0,1
272338,80,-7978,3463,0,10,0,1
272343,113,-7974,3439,0,10,0,1
272348,152,-7974,3429,0,10,-1,1
272353,182,-7970,3415,0,9,-1,1
272358,199,-7968,3415,0,9,-1,1
272363,200,-7968,3413,0,8,-1,1
272368,187,-7967,3419,0,8,-1,1
272373,163,-7969,3437,0,7,-1,1
272378,127,-7971,3454,0,7,-1,1
272383,91,-7971,3469,0,7,-1,1
272388,57,-7967,3473,1,9,-1,1
272393,36,-7963,3469,1,10,0,1
272398,25,-7960,3457,1,12,0,1
272403,22,-7955,3444,1,14,0,1
272408,20,-7956,3436,1,16,0,1
272413,21,-7952,3419,1,17,0,1
272418,24,-7949,3409,1,17,0,1
272423,26,-7955,3397,1,17,0,1
272428,27,-7948,3384,1,17,0,1
272433,27,-7939,3378,1,16,0,1
272438,30,-7950,3396,1,14,0,1
272443,34,-7968,3411,1,12,-1,1
272448,42,-7970,3408,1,10,-1,1
272453,40,-7967,3407,1,8,-1,1
272458,35,-7962,3402,1,6,-1,1
272462,33,-7961,3419,1,5,-1,1
272467,34,-7971,3444,1,5,-1,1
272473,43,-7981,3471,1,5,-1,1
272478,58,-7981,3483,1,4,-1,1
272482,69,-7980,3501,1,3,-1,1
272487,70,-7981,3520,1,2,-1,1
272493,66,-7977,3534,1,2,-1,1
272497,58,-7975,3558,1,1,-1,1
272502,53,-7976,3571,1,1,-1,1
272508,54,-7976,3578,1,1,-1,1
272512,63,-7975,3576,1,0,-1,1
272517,77,-7972,3564,1,-1,-1,1
272522,92,-7971,3551,1,-2,-1,1
272527,104,-7968,3539,1,-3,-1,1
272532,109,-7967,3546,1,-4,-1,1
272537,111,-7965,3558,1,-4,-1,1
272542,109,-7964,3584,1,-3,-1,1
272547,108,-7963,3619,1,-3,-1,1
272552,110,-7961,3645,1,-3,-1,1
272557,117,-7961,3660,1,-3,-1,1
272562,129,-7960,3668,1,-4,-1,1
272567,142,-7958,3668,1,-4,-1,1
272572,157,-7957,3673,0,-5,-1,1
272577,167,-7959,3684,0,-5,-1,1
272582,165,-7965,3705,0,-5,0,1
272587,157,-7966,3725,0,-4,0,1
272592,144,-7964,3737,0,-3,0,1
272597,129,-7967,3748,0,-1,0,1
272602,107,-7968,3755,0,0,0,1
272607,88,-7972,3760,0,1,0,1
272612,72,-7974,3767,0,2,0,1
272617,63,-7972,3783,0,3,0,1
272622,62,-7971,3793,0,4,0,1
272627,65,-7969,3803,0,5,0,1
272632,71,-7966,3806,0,6,0,1
272637,79,-7955,3790,0,7,0,1
272642,86,-7949,3779,0,9,0,1
272647,95,-7940,3755,0,10,0,1
272652,102,-7946,3743,0,11,0,1
272657,106,-7959,3724,0,11,0,1
272662,99,-7971,3696,0,12,0,1
272667,88,-7970,3671,-1,12,0,1
272672,72,-7971,3654,-1,13,0,1
272677,59,-7971,3644,-1,14,1,1
272682,45,-7968,3641,-1,15,1,1
272687,32,-7966,3650,-1,16,1,1
272692,20,-7966,3653,-1,16,1,1
272697,15,-7963,3650,-1,17,1,1
272702,4,-7963,3651,-1,18,1,1
272707,-5,-7970,3646,-1,19,1,1
272712,-15,-7964,3638,-1,20,1,1
272717,-28,-7957,3638,-1,21,1,1
272722,-49,-7956,3641,-1,22,1,1
272727,-66,-7952,3639,-1,24,1,1
272732,-83,-7954,3646,-1,25,1,1
272737,-98,-7951,3647,-1,26,1,1
272742,-105,-7949,3641,-1,27,1,1
272747,-98,-7950,3640,-1,26,1,1
272752,-76,-7944,3617,-1,25,1,1
272757,-44,-7942,3589,-1,22,1,1
272762,-3,-7947,3546,-1,17,1,1
272767,33,-7947,3495,0,12,1,1
272772,64,-7953,3445,0,6,1,1
272777,83,-7965,3404,0,1,0,1
272782,83,-7975,3377,0,-4,0,1
272787,73,-7975,3350,0,-8,0,1
272792,44,-7968,3323,0,-10,0,1
272797,12,-7965,3316,0,-10,0,1
272802,-21,-7961,3316,0,-10,0,1
272807,-53,-7959,3326,0,-9,0,1
272812,-82,-7957,3328,0,-7,1,1
272817,-104,-7954,3334,0,-6,1,1
272822,-120,-7954,3339,0,-4,1,1
272827,-132,-7955,3343,0,-3,1,1
272832,-141,-7953,3349,0,-2,1,1
272837,-149,-7952,3354,0,-1,1,1
272842,-155,-7953,3360,0,-1,1,1
272847,-160,-7953,3369,0,-1,1,1
272852,-162,-7950,3376,0,-1,1,1
272857,-165,-7949,3380,0,-2,1,1
272862,-173,-7952,3377,0,-3,1,1
272867,-182,-7952,3379,0,-4,0,1
272872,-190,-7951,3380,0,-5,0,1
272877,-198,-7950,3383,0,-6,0,1
272882,-209,-7947,3387,1,-6,0,1
272887,-218,-7944,3385,1,-7,0,1
272892,-231,-7941,3390,1,-7,0,1
272897,-242,-7937,3387,1,-6,0,1
272902,-252,-7937,3383,1,-6,0,1
272907,-265,-7936,3382,1,-5,0,1
272912,-277,-7934,3383,1,-4,0,1
272917,-290,-7934,3386,1,-4,0,1
272922,-296,-7933,3392,1,-4,0,1
272927,-299,-7934,3396,1,-4,0,1
272932,-302,-7931,3398,1,-5,0,1
272937,-295,-7930,3403,1,-6,0,1
272942,-284,-7928,3410,1,-8,0,1
272947,-271,-7928,3413,1,-10,0,1
272952,-261,-7928,3421,1,-12,0,1
272957,-256,-7933,3434,1,-13,0,1
272962,-253,-7934,3446,1,-13,0,1
272967,-255,-7938,3464,1,-12,-1,1
272972,-265,-7936,3482,1,-11,-1,1
272976,-277,-7938,3504,1,-11,-1,1
272982,-287,-7940,3525,1,-10,-1,1
272986,-296,-7939,3542,1,-10,-1,1
272991,-302,-7940,3551,1,-9,-1,1
272997,-306,-7942,3558,1,-8,-1,1
273002,-300,-7945,3574,1,-6,-1,1
273006,-291,-7946,3593,1,-5,-1,1
273011,-297,-7946,3617,1,-5,-1,1
273016,-310,-7947,3645,1,-5,-1,1
273022,-315,-7942,3666,1,-7,-1,1
273026,-316,-7938,3688,1,-7,-1,1
273031,-332,-7940,3717,1,-7,-1,1
273036,-339,-7940,3728,1,-7,-1,1
273041,-319,-7944,3729,1,-6,-1,1
273046,-303,-7944,3715,1,-4,-1,1
273051,-286,-7938,3704,1,-3,-1,1
273056,-255,-7921,3685,1,-1,-1,1
273061,-207,-7926,3686,1,0,-1,1
273066,-179,-7916,3688,1,1,-1,1
273071,-133,-7902,3678,1,1,-1,1
273076,-84,-7905,3665,1,1,-1,1
273081,-64,-7901,3648,1,1,-1,1
273086,-43,-7910,3659,1,0,-1,1
273091,-40,-7919,3653,1,1,-1,1
273096,-47,-7905,3642,1,1,-1,1
273101,-49,-7899,3669,1,2,-1,1
273106,-61,-7908,3682,1,3,0,1
273111,-56,-7920,3714,1,4,0,1
273116,-47,-7917,3708,1,5,0,1
273121,-28,-7930,3725,1,5,0,1
273126,-8,-7929,3710,1,4,0,1
273131,17,-7927,3697,1,3,0,1
273136,45,-7937,3698,1,1,0,1
273141,46,-7952,3700,1,-1,0,1
273146,46,-7946,3698,1,-3,-1,1
273151,37,-7954,3706,1,-3,0,1
273156,10,-7969,3730,1,-3,0,1
273161,-20,-7962,3763,0,-3,0,1
273166,-36,-7953,3798,0,-3,0,1
273171,-39,-7946,3825,0,-3,0,1
273176,-31,-7943,3850,0,-4,0,1
273181,-7,-7941,3853,0,-4,0,1
273186,36,-7936,3827,0,-3,0,1
273191,87,-7934,3811,0,-3,0,1
273196,133,-7907,3787,0,-2,0,1
273201,171,-7902,3839,0,-3,0,1
273206,206,-7930,3915,0,-4,0,1
273211,226,-7951,3985,0,-6,0,1
273216,222,-7957,4092,-1,-9,0,1
273221,200,-7961,4146,-1,-13,0,1
273226,153,-7957,4171,-1,-15,0,1
273231,107,-7949,4192,-1,-17,0,1
273236,96,-7952,4240,-1,-18,0,1
273241,85,-7950,4233,-2,-17,1,1
273246,51,-7951,4125,-1,-16,1,1
273251,0,-7938,3994,0,-17,0,1
273256,-73,-7915,3936,0,-17,0,1
273261,-164,-7891,3881,0,-16,0,1
273266,-265,-7887,3850,1,-16,0,1
273271,-361,-7905,3856,1,-16,0,1
273276,-450,-7915,3877,2,-17,0,1
273281,-533,-7916,3966,3,-17,0,1
273286,-534,-7882,3905,3,-16,0,1
273291,-478,-7791,3639,2,-13,0,1
273296,-369,-7708,3502,0,-11,0,1
273301,-272,-7674,3487,0,-8,0,1
273306,-218,-7712,3615,0,-8,-1,1
273311,-188,-7756,3668,1,-12,-1,1
273316,-180,-7756,3682,1,-20,-1,1
273321,-212,-7715,3654,1,-26,-2,1
273326,-277,-7683,3711,1,-29,-2,1
273331,-337,-7681,3786,1,-29,-2,1
273336,-381,-7692,3857,2,-28,-2,1
273341,-407,-7685,3861,2,-28,-2,1
273346,-411,-7648,3831,3,-29,-2,1
273351,-388,-7602,3807,3,-30,-2,1
273356,-361,-7564,3807,3,-31,-2,1
273361,-330,-7536,3808,3,-31,-2,1
273366,-293,-7520,3797,4,-31,-2,1
273371,-252,-7504,3763,4,-31,-2,1
273376,-206,-7489,3719,4,-30,-1,1
273381,-167,-7477,3690,4,-28,-1,1
273386,-128,-7485,3701,4,-27,-1,1
273391,-97,-7506,3720,4,-26,-1,1
273396,-55,-7524,3755,5,-24,-1,1
273401,-14,-7524,3787,5,-23,0,1
273406,17,-7520,3858,5,-22,0,1
273411,37,-7531,3898,5,-21,0,1
273416,46,-7565,3922,5,-22,0,1
273421,49,-7609,3881,5,-24,0,1
273426,43,-7645,3848,5,-25,0,1
273431,32,-7674,3819,5,-27,0,1
273436,20,-7700,3840,5,-28,0,1
273441,16,-7717,3851,5,-30,0,1
273446,-9,-7740,3891,5,-31,0,1
273451,-33,-7787,3916,5,-32,0,1
273456,-56,-7841,3962,5,-31,0,1
273461,-58,-7878,4020,5,-29,0,1
273466,-43,-7892,4089,5,-26,0,1
273471,-2,-7891,4158,5,-25,0,1
273475,37,-7895,4213,4,-24,0,1
273481,74,-7903,4240,4,-24,0,1
273485,101,-7909,4251,4,-24,1,1
273491,130,-7904,4273,4,-23,1,1
273496,158,-7888,4305,3,-21,2,1
273500,200,-7863,4325,3,-20,2,1
273506,249,-7835,4322,3,-21,3,1
273511,299,-7806,4326,3,-24,3,1
273515,316,-7778,4347,3,-26,3,1
273520,311,-7757,4408,2,-26,4,1
273525,272,-7748,4467,2,-23,4,1
273530,225,-7756,4514,2,-19,5,1
273535,179,-7774,4520,2,-15,5,1
273540,165,-7780,4528,1,-10,6,1
273545,162,-7797,4568,1,-5,6,1
273550,149,-7847,4621,1,-3,6,1
273555,138,-7900,4642,1,-2,6,1
273560,146,-7913,4656,1,-2,6,1
273565,153,-7891,4684,1,-1,6,1
273570,147,-7854,4729,1,-1,5,1
273575,116,-7828,4730,1,-3,5,1
273580,85,-7798,4693,2,-6,5,1
273585,62,-7755,4642,2,-6,5,1
273590,38,-7707,4588,2,-4,5,1
273595,7,-7651,4544,2,-3,5,1
273600,-40,-7586,4532,2,-4,5,1
273605,-92,-7524,4532,2,-4,5,1
273610,-133,-7479,4517,2,-5,5,1
273615,-175,-7453,4485,3,-6,5,1
273620,-210,-7434,4427,3,-8,4,1
273625,-241,-7405,4390,3,-9,4,1
273630,-275,-7377,4391,4,-9,4,1
273635,-307,-7367,4403,4,-12,4,1
273640,-323,-7364,4395,5,-16,4,1
273645,-323,-7367,4354,6,-21,3,1
273650,-318,-7376,4283,6,-24,3,1
273655,-314,-7383,4232,7,-28,3,1
273660,-321,-7386,4211,7,-32,3,1
273665,-333,-7385,4219,8,-35,3,1
273670,-347,-7382,4235,9,-38,3,1
273675,-350,-7378,4266,10,-39,3,1
273680,-346,-7369,4314,10,-39,4,1
273685,-330,-7359,4375,11,-36,4,1
273690,-325,-7357,4434,11,-33,4,1
273695,-318,-7366,4486,12,-30,4,1
273700,-327,-7384,4522,12,-29,5,1
273705,-321,-7405,4560,13,-30,5,1
273710,-316,-7427,4603,13,-30,5,1
273715,-295,-7450,4656,14,-30,5,1
273720,-272,-7477,4701,14,-30,6,1
273725,-237,-7501,4734,14,-31,6,1
273730,-204,-7518,4749,15,-31,6,1
273735,-168,-7529,4757,15,-33,6,1
273740,-132,-7533,4763,15,-34,7,1
273745,-92,-7530,4771,16,-36,7,1
273750,-61,-7520,4785,16,-38,7,1
273755,-29,-7507,4794,16,-39,7,1
273760,-13,-7494,4800,17,-38,8,1
273765,-4,-7481,4809,17,-37,8,1
273770,-27,-7463,4790,17,-34,9,1
273775,-77,-7424,4768,17,-33,9,1
273780,-28,-7409,4825,17,-29,10,1
273785,-12,-7381,4864,17,-25,10,1
273790,-9,-7351,4866,17,-24,10,1
273795,-52,-7326,4827,17,-23,11,1
273800,-86,-7317,4798,17,-22,11,1
273805,-94,-7310,4774,16,-19,12,1
273810,-83,-7301,4755,17,-19,12,1
273815,-55,-7292,4717,17,-20,12,1
273820,-36,-7293,4677,16,-24,12,1
273825,-19,-7307,4634,16,-28,12,1
273830,-28,-7337,4599,16,-32,13,1
273835,-43,-7365,4575,16,-36,13,1
273840,-76,-7396,4554,16,-38,13,1
273845,-86,-7427,4550,16,-41,13,1
273850,-88,-7454,4571,16,-42,13,1
273855,-98,-7473,4600,16,-42,14,1
273860,-113,-7489,4632,16,-38,14,1
273865,-168,-7501,4644,16,-33,14,1
273870,-252,-7514,4642,15,-28,14,1
273875,-347,-7516,4622,15,-25,15,1
273880,-415,-7511,4597,15,-22,15,1
273885,-450,-7494,4571,15,-20,15,1
273890,-441,-7481,4551,15,-20,15,1
273895,-423,-7473,4532,15,-21,15,1
273900,-409,-7474,4517,15,-25,15,1
273905,-416,-7475,4495,15,-29,15,1
273910,-431,-7472,4465,15,-32,15,1
273915,-460,-7456,4447,15,-35,15,1
273920,-454,-7443,4423,15,-36,15,1
273925,-424,-7442,4403,15,-36,15,1
273930,-385,-7442,4401,16,-35,15,1
273935,-375,-7434,4403,16,-37,15,1
273940,-392,-7421,4403,16,-39,15,1
273945,-422,-7402,4388,16,-40,16,1
273950,-420,-7388,4372,16,-41,16,1
273955,-400,-7370,4367,16,-40,16,1
273960,-356,-7345,4373,16,-39,16,1
273965,-312,-7314,4385,16,-40,17,1
273970,-269,-7281,4401,16,-41,17,1
273974,-223,-7253,4420,16,-42,17,1
273980,-183,-7224,4427,16,-42,18,1
273985,-156,-7204,4450,16,-41,18,1
273989,-142,-7186,4466,16,-39,19,1
273995,-137,-7167,4483,16,-38,19,1
274000,-137,-7156,4485,16,-36,19,1
274004,-135,-7157,4488,16,-35,20,1
274009,-142,-7167,4499,15,-33,20,1
274014,-154,-7180,4525,15,-30,20,1
274020,-169,-7192,4540,15,-27,21,1
274024,-179,-7201,4539,15,-24,21,1
274029,-177,-7205,4517,15,-20,21,1
274034,-164,-7210,4495,15,-17,22,1
274040,-140,-7215,4484,15,-15,22,1
274044,-109,-7217,4484,15,-14,22,1
274049,-73,-7222,4476,15,-14,22,1
274054,-30,-7238,4463,15,-14,23,1
274059,18,-7265,4459,14,-14,23,1
274064,52,-7302,4465,14,-12,23,1
274069,60,-7351,4481,14,-10,24,1
274074,43,-7411,4498,14,-8,24,1
274079,15,-7483,4495,13,-7,24,1
274084,-11,-7564,4474,13,-7,24,1
274089,-29,-7651,4445,13,-7,24,1
274094,-45,-7735,4425,12,-8,24,1
274099,-56,-7806,4413,12,-9,23,1
274104,-66,-7858,4402,12,-11,23,1
274109,-64,-7891,4373,12,-13,23,1
274114,-47,-7923,4336,11,-14,23,1
274119,-12,-7952,4290,11,-14,23,1
274124,29,-7980,4254,11,-14,23,1
274129,71,-8010,4228,11,-16,22,1
274134,116,-8050,4207,11,-19,22,1
274139,155,-8102,4184,10,-22,22,1
274144,184,-8162,4161,10,-25,22,1
274149,198,-8233,4151,10,-27,22,1
274154,195,-8301,4158,10,-28,22,1
274159,185,-8362,4182,9,-28,22,1
274164,176,-8417,4207,9,-27,21,1
274169,172,-8457,4219,8,-26,21,1
274174,172,-8483,4217,8,-25,21,1
274179,181,-8485,4205,8,-25,21,1
274184,193,-8461,4192,7,-24,21,1
274189,215,-8413,4183,7,-24,21,1
274194,242,-8338,4173,6,-25,21,1
274199,277,-8242,4163,6,-25,21,1
274204,327,-8125,4145,5,-25,21,1
274209,381,-8000,4126,5,-25,21,1
274214,433,-7871,4112,4,-25,20,1
274219,481,-7739,4096,4,-25,20,1
274224,520,-7621,4077,3,-24,20,1
274229,551,-7528,4041,3,-24,20,1
274234,586,-7468,4000,2,-24,20,1
274239,627,-7429,3944,2,-23,20,1
274244,677,-7402,3893,1,-21,20,1
274249,720,-7387,3834,0,-20,20,1
274254,802,-7390,3772,0,-20,20,1
274259,853,-7414,3681,-1,-21,20,1
274264,929,-7458,3586,-1,-25,20,1
274269,958,-7524,3480,-2,-29,20,1
274274,684,-7615,3690,-3,-34,18,1
274279,745,-7686,3631,-6,-43,15,1
274284,665,-7746,3694,-7,-39,14,1
274289,573,-7786,3737,-8,-35,14,1
274294,191,-7813,3972,-9,-35,15,1
274299,118,-7835,4046,-9,-36,16,1
274304,111,-7854,4074,-10,-27,16,1
274309,356,-7860,3948,-12,-14,15,1
274314,452,-7847,3903,-13,0,15,1
274319,561,-7811,3835,-15,5,14,1
274324,520,-7763,3864,-16,3,14,1
274329,562,-7705,3830,-17,-2,14,1
274334,583,-7653,3835,-18,-4,14,1
274339,689,-7607,3759,-19,-5,14,1
274344,731,-7576,3740,-20,-4,13,1
274349,748,-7561,3704,-22,-5,13,1
274354,806,-8809,3413,-23,-8,12,1
274359,-158,-9021,741,-29,-47,14,1
274364,47,-8922,2975,1,-105,0,1
274369,1040,-8128,4890,-3,-44,1,1
274374,1821,-8231,6531,6,32,2,1
274379,2482,-8001,7258,10,23,-3,1
274384,2632,-7697,7715,14,-17,-6,1
274389,2561,-7329,7010,10,-51,-7,1
274394,2096,-7203,6613,8,-55,-6,1
274399,1730,-7203,5843,4,-32,-4,1
274404,1174,-7361,5423,4,2,-3,1
274409,1054,-7504,4899,4,19,-3,1
274414,849,-7573,4593,4,20,-3,1
274419,968,-7540,4176,2,2,-3,1
274424,1022,-7471,4134,1,-14,-3,1
274429,1253,-7443,4143,0,-22,-4,1
274434,1253,-7525,4169,0,-20,-4,1
274439,1158,-7652,4232,-1,-24,-4,1
274444,930,-7715,4512,0,-30,-3,1
274449,686,-7720,4888,1,-35,-2,1
274454,539,-7677,5153,2,-32,-1,1
274459,474,-7640,5343,2,-21,-1,1
274464,464,-7589,5390,2,-9,0,1
274469,534,-7558,5432,2,0,0,1
274474,625,-7560,5407,2,7,0,1
274479,693,-7561,5325,2,9,1,1
274484,831,-7545,5261,1,9,1,1
274488,940,-7536,5226,1,9,1,1
274494,1022,-7550,5166,0,5,1,1
274499,1109,-7567,5174,0,-1,1,1
274504,1150,-7577,5223,0,-6,2,1
274508,1157,-7565,5250,0,-11,2,1
274513,1161,-7536,5330,0,-12,2,1
274518,1137,-7496,5396,0,-12,2,1
274523,1122,-7456,5442,0,-12,3,1
274528,1111,-7419,5504,0,-11,3,1
274533,1102,-7382,5525,0,-10,3,1
274538,1104,-7345,5533,0,-9,3,1
274543,1099,-7318,5549,-1,-9,3,1
274548,1080,-7289,5535,-1,-11,3,1
274553,1058,-7269,5526,-1,-14,3,1
274558,1026,-7270,5529,-1,-17,3,1
274563,970,-7260,5490,-1,-22,3,1
274568,920,-7225,5462,-1,-29,3,1
274573,868,-7205,5468,-1,-35,3,1
274578,778,-7181,5434,-1,-39,3,1
274583,694,-7144,5418,-1,-42,3,1
274588,605,-7098,5413,0,-43,3,1
274593,518,-7051,5414,0,-41,3,1
274598,464,-7004,5414,0,-38,3,1
274603,424,-6963,5437,0,-34,3,1
274608,394,-6925,5461,0,-30,3,1
274613,404,-6901,5515,0,-26,3,1
274618,447,-6892,5587,0,-22,3,1
274623,507,-6895,5677,0,-17,3,1
274628,601,-6926,5791,0,-14,3,1
274633,696,-6976,5886,0,-12,3,1
274638,679,-7025,5925,-1,-11,3,1
274643,645,-7081,5963,0,-14,2,1
274648,537,-7129,5951,0,-16,2,1
274653,438,-7168,5914,0,-16,2,1
274658,408,-7206,5914,0,-13,1,1
274663,459,-7241,5943,-1,-5,1,1
274668,543,-7272,6027,-2,4,1,1
274673,642,-7282,6117,-3,9,0,1
274678,633,-7263,5702,-2,10,-1,1
274683,861,-7332,5767,2,6,-3,1
274688,845,-7342,5510,2,11,-4,1
274693,750,-7346,5520,2,5,-4,1
274698,586,-7314,5251,1,-2,-3,1
274703,649,-7313,5204,1,-4,-4,1
274708,752,-7333,5066,0,7,-4,1
274713,1040,-7358,4904,-1,20,-6,1
274718,1194,-7372,4723,-2,28,-7,1
274723,1328,-7378,4699,-2,25,-8,1
274728,1317,-7389,4751,-2,19,-8,1
274733,1373,-7415,4829,-2,13,-9,1
274738,1385,-7444,4804,-2,12,-10,1
274743,1456,-7477,4751,-2,13,-11,1
274748,1451,-7504,4680,-3,14,-12,1
274753,1457,-7520,4692,-3,15,-13,1
274758,1434,-7520,4728,-3,16,-13,1
274763,1459,-7508,4750,-3,17,-14,1
274768,1488,-7485,4715,-3,19,-15,1
274773,1532,-7461,4655,-3,18,-16,1
274778,1572,-7439,4607,-2,17,-16,1
274783,1602,-7422,4582,-2,16,-17,1
274788,1633,-7398,4579,-2,14,-18,1
274793,1632,-7372,4557,-2,12,-18,1
274798,1642,-7350,4546,-2,9,-19,1
274803,1642,-7338,4548,-2,7,-20,1
274808,1659,-7340,4547,-2,6,-20,1
274813,1663,-7349,4556,-2,6,-21,1
274818,1657,-7355,4578,-2,8,-21,1
274823,1629,-7359,4593,-2,9,-22,1
274828,1612,-7360,4614,-1,10,-22,1
274833,1597,-7365,4631,-1,10,-23,1
274838,1612,-7375,4649,-2,9,-23,1
274843,1634,-7384,4667,-2,8,-24,1
274848,1661,-7392,4672,-2,7,-24,1
274853,1668,-7393,4667,-2,5,-25,1
274858,1677,-7398,4668,-2,2,-25,1
274863,1670,-7404,4667,-2,-1,-26,1
274868,1662,-7412,4672,-2,-3,-26,1
274873,1654,-7419,4681,-2,-4,-27,1
274878,1647,-7432,4697,-2,-4,-27,1
274883,1639,-7451,4710,-2,-4,-28,1
274888,1627,-7472,4721,-2,-5,-28,1
274893,1610,-7487,4718,-3,-6,-28,1
274898,1593,-7497,4713,-3,-7,-29,1
274903,1572,-7512,4724,-3,-6,-29,1
274908,1548,-7534,4749,-4,-4,-29,1
274913,1517,-7558,4786,-4,-1,-30,1
274918,1479,-7577,4812,-5,1,-30,1
274923,1432,-7589,4827,-5,3,-30,1
274928,1393,-7588,4830,-5,5,-30,1
274933,1371,-7580,4831,-6,7,-31,1
274938,1366,-7562,4826,-6,10,-31,1
274943,1375,-7541,4829,-7,11,-31,1
274948,1379,-7518,4831,-7,12,-31,1
274953,1369,-7494,4824,-8,12,-31,1
274958,1347,-7470,4819,-8,11,-31,1
274963,1330,-7453,4808,-8,12,-31,1
274968,1322,-7446,4787,-9,12,-31,1
274972,1330,-7442,4768,-9,10,-31,1
274978,1336,-7433,4748,-9,7,-31,1
274983,1335,-7419,4744,-10,5,-31,1
274988,1317,-7402,4765,-10,3,-32,1
274992,1284,-7370,4792,-11,3,-32,1
274998,1244,-7330,4819,-11,4,-31,1
275002,1210,-7280,4840,-12,5,-31,1
275007,1175,-7231,4858,-12,7,-31,1
275012,1136,-7179,4863,-12,9,-31,1
275017,1095,-7121,4866,-13,12,-31,1
275022,1053,-7057,4850,-13,15,-31,1
275027,1019,-6990,4830,-13,18,-32,1
275032,992,-6924,4807,-13,20,-32,1
275037,980,-6858,4778,-13,21,-32,1
275042,969,-6794,4755,-13,22,-32,1
275048,968,-6730,4739,-13,22,-32,1
275052,967,-6669,4722,-13,22,-32,1
275057,959,-6612,4711,-13,23,-32,1
275062,942,-6553,4697,-13,24,-32,1
275067,911,-6492,4683,-13,26,-32,1
275072,874,-6430,4674,-13,28,-32,1
275077,836,-6367,4669,-13,30,-32,1
275082,805,-6306,4655,-13,32,-33,1
275087,777,-6254,4644,-13,34,-33,1
275092,756,-6210,4621,-12,35,-33,1
275097,739,-6170,4589,-12,36,-33,1
275102,728,-6186,4544,-12,34,-33,1
275107,725,-6381,4332,-12,32,-34,1
275112,709,-6549,4282,-12,31,-34,1
275117,686,-6474,4703,-10,27,-34,1
275122,597,-6338,5101,-8,16,-33,1
275127,512,-6301,5703,-4,-3,-32,1
275132,438,-6228,6084,-1,-21,-32,1
275137,545,-6246,6204,2,-32,-33,1
275142,661,-6286,5992,3,-32,-34,1
275147,663,-6393,6027,4,-26,-34,1
275152,687,-6559,5893,5,-17,-34,1
275157,654,-6760,5271,3,-8,-34,1
275162,660,-6800,4621,0,-6,-34,1
275167,620,-6839,4572,-1,-4,-33,1
275172,713,-6887,4723,-1,-1,-32,1
275177,847,-6974,4981,0,-2,-32,1
275182,1035,-7051,4831,0,-10,-32,1
275187,1080,-7160,4717,0,-20,-32,1
275192,1093,-7259,4525,-2,-26,-32,1
275197,1017,-7393,4645,-3,-21,-31,1
275202,1025,-7517,4641,-4,-11,-30,1
275207,1028,-7639,4782,-4,-1,-29,1
275212,1113,-7707,4676,-4,6,-29,1
275217,1159,-7790,4867,-4,9,-28,1
275222,1236,-7817,4835,-5,11,-27,1
275227,1311,-7832,5128,-5,12,-26,1
275232,1369,-7753,5227,-6,13,-25,1
275237,1427,-7728,5463,-6,11,-24,1
275242,1482,-7745,5491,-6,10,-23,1
275247,1552,-7712,5592,-6,12,-22,1
275252,1609,-7663,5754,-6,15,-20,1
275257,1663,-7641,5852,-6,19,-19,1
275262,1714,-7688,5936,-6,24,-17,1
275267,1746,-7785,5946,-6,28,-16,1
275272,1769,-7859,5911,-6,31,-15,1
275277,1922,-7810,6097,-6,33,-15,1
275282,2079,-7698,6456,-4,33,-14,1
275287,2225,-7685,6637,-3,29,-12,1
275292,2266,-7700,6575,-2,19,-12,1
275297,2232,-7680,6621,-2,4,-11,1
275302,2132,-7679,6606,-2,-9,-10,1
275307,2011,-7696,6456,-2,-16,-10,1
275312,1920,-7732,6242,-2,-16,-9,1
275317,1818,-7760,6066,-2,-11,-9,1
275322,1700,-7760,5982,-2,-4,-8,1
275327,1560,-7722,5949,-2,3,-7,1
275332,1429,-7675,5971,-2,6,-6,1
275337,1332,-7634,5927,-1,9,-5,1
275342,1258,-7599,5873,-1,13,-5,1
275347,1202,-7562,5808,-1,18,-4,1
275352,1144,-7521,5817,-1,23,-3,1
275357,1088,-7473,5838,0,27,-2,1
275362,1020,-7431,5898,1,28,-2,1
275367,941,-7389,5850,2,27,-1,1
275372,824,-7352,5802,2,26,0,1
275377,738,-7303,5748,3,26,1,1
275382,715,-7248,5771,4,26,2,1
275387,723,-7180,5795,5,25,3,1
275392,722,-7110,5852,6,20,3,1
275397,734,-7046,5835,8,14,4,1
275402,693,-6986,5804,9,10,4,1
275407,648,-6930,5780,10,7,5,1
275412,618,-6876,5772,12,3,6,1
275417,604,-6830,5799,13,0,7,1
275422,587,-6785,5833,14,-4,8,1
275427,582,-6746,5841,16,-8,9,1
275432,548,-6715,5825,17,-11,9,1
275437,520,-6695,5819,19,-14,10,1
275442,506,-6677,5801,20,-16,11,1
275447,507,-6666,5825,21,-19,12,1
275452,509,-6661,5829,23,-23,13,1
275457,508,-6667,5826,24,-27,14,1
275462,491,-6680,5789,25,-32,14,1
275467,469,-6699,5779,26,-37,15,1
275472,552,-6726,5727,27,-42,16,1
275477,705,-6768,5713,28,-44,16,1
275482,841,-6814,5664,29,-46,16,1
275486,904,-6876,5659,30,-51,16,1
275492,866,-6945,5677,31,-58,17,1
275497,819,-7020,5725,32,-64,18,1
275501,780,-7110,5760,32,-67,19,1
275507,797,-7209,5793,33,-67,19,1
275511,809,-7304,5783,33,-65,20,1
275517,814,-7392,5791,33,-62,20,1
275521,788,-7467,5818,34,-59,21,1
275526,807,-7526,5847,34,-57,22,1
275531,839,-7571,5864,34,-53,23,1
275536,899,-7608,5866,34,-50,24,1
275541,941,-7624,5831,34,-47,25,1
275546,962,-7627,5797,34,-45,25,1
275551,981,-7614,5767,34,-44,26,1
275556,1013,-7588,5738,33,-41,27,1
275561,1062,-7555,5705,33,-40,28,1
275566,1132,-7516,5664,33,-39,29,1
275571,1202,-7469,5613,33,-39,30,1
275576,1256,-7422,5564,32,-39,31,1
275581,1312,-7383,5509,32,-40,31,1
275586,1338,-7344,5456,32,-41,32,1
275591,1348,-7308,5410,32,-42,33,1
275596,1350,-7271,5349,31,-44,33,1
275601,1358,-7227,5283,31,-46,34,1
275606,1363,-7178,5232,31,-47,35,1
275611,1385,-7129,5179,30,-47,35,1
275616,1403,-7089,5131,30,-46,36,1
275621,1412,-7051,5098,29,-44,36,1
275626,1414,-7018,5057,28,-42,37,1
275631,1417,-6980,5022,28,-38,37,1
275636,1430,-6941,4997,27,-35,38,1
275641,1461,-6909,4969,26,-31,39,1
275646,1488,-6880,4946,25,-27,39,1
275651,1508,-6859,4925,24,-24,40,1
275656,1524,-6841,4890,23,-22,41,1
275661,1529,-6831,4861,22,-21,41,1
275666,1550,-6821,4847,21,-21,42,1
275671,1596,-6811,4838,20,-20,42,1
275676,1645,-6804,4833,19,-21,43,1
275681,1676,-6797,4824,18,-22,43,1
275686,1690,-6799,4793,17,-24,43,1
275691,1693,-6805,4762,16,-25,44,1
275696,1683,-6810,4742,14,-26,44,1
275701,1683,-6812,4730,13,-26,44,1
275706,1682,-6809,4716,12,-27,45,1
275711,1655,-6797,4688,11,-27,45,1
275716,1633,-6785,4636,10,-29,45,1
275721,1611,-6774,4589,9,-30,45,1
275726,1597,-6762,4567,8,-32,45,1
275731,1629,-6749,4552,7,-34,45,1
275736,1671,-6723,4565,6,-34,45,1
275741,1709,-6686,4572,5,-32,46,1
275746,1762,-6637,4555,4,-31,46,1
275751,1800,-6592,4530,3,-29,46,1
275756,1850,-6552,4497,2,-28,47,1
275761,1903,-6524,4456,1,-26,47,1
275766,1822,-6511,4536,0,-25,47,1
275771,1865,-6502,4525,-2,-24,46,1
275776,1882,-6497,4577,-3,-20,46,1
275781,1966,-6495,4586,-3,-16,45,1
275786,1849,-6496,4592,-4,-14,46,1
275791,1802,-6514,4544,-6,-19,46,1
275796,1760,-6547,4539,-7,-21,47,1
275801,1896,-6569,4504,-7,-19,46,1
275806,2005,-6576,4523,-8,-13,46,1
275811,2181,-6564,4531,-9,-12,46,1
275816,2271,-6546,4566,-10,-15,46,1
275821,2365,-6523,4586,-11,-18,45,1
275826,2376,-6500,4627,-11,-18,45,1
275831,2407,-6480,4633,-12,-13,45,1
275836,2396,-6468,4656,-13,-4,45,1
275841,2409,-6451,4649,-13,4,45,1
275846,2403,-6434,4647,-14,13,44,1
275851,2433,-6437,4646,-15,22,44,1
275856,2468,-6463,4659,-16,29,43,1
275861,2538,-6495,4664,-16,30,42,1
275866,2628,-6537,4679,-17,27,41,1
275871,2749,-6571,4678,-17,21,40,1
275876,2863,-6626,4676,-17,13,39,1
275881,2693,-8019,4029,-18,0,38,1
275886,1887,-8153,2543,-23,-58,38,1
275891,3657,-7697,4519,7,-53,16,1
275896,5474,-7004,6213,6,50,15,1
275901,7032,-6919,7666,10,12,12,1
275906,7873,-6792,8757,11,-104,8,1
275911,7136,-6630,8750,9,-139,5,1
275916,6757,-6680,8778,15,-120,-5,1
275921,5061,-6632,7659,16,-74,-6,1
275926,3701,-6758,6936,22,-71,-5,1
275931,2455,-6899,4999,17,-43,0,1
275936,2843,-7055,4385,13,5,0,1
275941,3879,-7024,4351,10,65,-1,1
275946,5177,-6903,5176,11,58,-6,1
275951,5466,-6768,5424,12,2,-10,1
275956,5082,-6822,5635,14,-63,-13,1
275961,4202,-6985,5211,14,-84,-13,1
275966,3723,-7171,4859,13,-69,-13,1
275971,3639,-7272,4475,10,-34,-13,1
275976,4000,-7315,4669,8,-4,-14,1
275981,4494,-7303,4855,7,10,-17,1
275986,4768,-7314,5121,6,2,-20,1
275991,4603,-7355,5120,6,-10,-22,1
275996,4271,-7430,4933,4,-17,-23,1
276001,3930,-7499,4675,2,-10,-23,1
276006,3812,-7518,4441,0,5,-24,1
276010,4038,-7480,4422,-2,18,-25,1
276016,4336,-7407,4560,-3,24,-28,1
276020,4517,-7321,4631,-5,20,-30,1
276025,4409,-7269,4672,-6,12,-32,1
276031,4181,-7239,4524,-8,9,-34,1
276035,3963,-7206,4333,-9,16,-35,1
276041,3859,-7141,4166,-12,26,-36,1
276045,3886,-7060,4148,-14,35,-37,1
276050,3955,-6966,4152,-15,41,-39,1
276055,4043,-6880,4160,-17,44,-40,1
276060,4035,-6814,4079,-18,44,-42,1
276065,3905,-6759,3982,-19,42,-44,1
276070,3769,-6722,3869,-21,41,-45,1
276075,3733,-6678,3738,-22,42,-46,1
276080,3745,-6620,3697,-24,45,-47,1
276085,3783,-6567,3724,-25,46,-49,1
276090,3764,-6519,3733,-26,43,-51,1
276095,3692,-6482,3724,-28,40,-52,1
276100,3606,-6452,3665,-29,40,-53,1
276105,3527,-6432,3571,-30,41,-54,1
276110,3449,-6422,3531,-31,43,-55,1
276115,3419,-6421,3553,-33,44,-56,1
276120,3407,-6436,3567,-34,46,-58,1
276125,3341,-6677,3577,-34,46,-59,1
276130,3299,-7607,2393,-37,52,-60,1
276135,2816,-7229,2183,-38,55,-60,1
276140,2306,-6726,4210,-18,4,-61,1
276145,2691,-6666,5949,-14,-58,-62,1
276150,2883,-6891,6871,-15,-50,-61,1
276155,3489,-7121,6406,-15,-5,-63,1
276160,3523,-7053,5291,-20,39,-62,1
276165,3255,-6913,5233,-19,42,-63,1
276170,2687,-6965,5096,-19,32,-63,1
276175,2318,-7108,5156,-19,19,-62,1
276180,2193,-7156,4770,-19,20,-62,1
276185,2519,-7145,4540,-21,21,-63,1
276190,2844,-7134,4235,-22,21,-63,1
276195,3060,-7171,4162,-24,12,-64,1
276200,3027,-7234,4140,-25,-1,-65,1
276205,2895,-7312,4325,-26,-14,-65,1
276210,2688,-7379,4348,-28,-20,-64,1
276215,2518,-7444,4412,-29,-19,-64,1
276220,2460,-7499,4359,-31,-9,-63,1
276225,2458,-7545,4334,-33,4,-62,1
276230,2459,-7574,4371,-35,15,-62,1
276235,2413,-7594,4475,-36,22,-62,1
276240,2320,-7599,4491,-37,24,-62,1
276245,2213,-7608,4491,-38,25,-61,1
276250,2148,-7623,4443,-39,29,-61,1
276255,2155,-7636,4575,-41,35,-61,1
276260,2166,-7615,4696,-43,40,-60,1
276265,2247,-7608,5017,-43,40,-60,1
276270,2162,-7542,5017,-45,37,-60,1
276275,1976,-7460,4678,-43,26,-61,1
276280,1819,-7445,4825,-39,21,-61,1
276285,1439,-7535,4859,-38,28,-60,1
276290,1064,-7539,4251,-41,29,-61,1
276295,921,-7437,4129,-42,27,-62,1
276300,1014,-7269,4139,-42,36,-59,1
276305,1140,-7160,4551,-40,45,-57,1
276310,1476,-7069,4506,-39,45,-55,1
276315,1677,-7013,4638,-38,40,-55,1
276320,1815,-6984,4492,-38,35,-55,1
276325,1677,-6994,4670,-38,31,-54,1
276330,1513,-7015,4690,-37,25,-53,1
276335,1228,-7113,4921,-36,21,-51,1
276340,1030,-7211,4773,-35,22,-49,1
276345,807,-7261,5061,-34,28,-47,1
276350,715,-7239,5195,-32,34,-45,1
276355,602,-7254,5439,-30,38,-43,1
276360,754,-7311,5456,-29,40,-42,1
276365,822,-7386,5494,-28,45,-40,1
276370,868,-7468,5414,-28,46,-38,1
276375,759,-7598,5507,-27,40,-36,1
276380,631,-7693,5486,-25,31,-33,1
276385,416,-7734,5578,-23,22,-31,1
276390,480,-7850,5775,-21,15,-30,1
276395,450,-7896,5971,-19,15,-26,1
276400,608,-7980,6262,-17,12,-24,1
276405,679,-8029,6618,-15,12,-21,1
276410,823,-8145,6820,-13,9,-19,1
276415,737,-8233,6978,-12,8,-16,1
276420,743,-8260,7157,-10,2,-14,1
276425,653,-8247,7351,-7,2,-11,1
276430,650,-8286,7355,-5,0,-9,1
276435,515,-8304,7173,-4,0,-6,1
276440,501,-8293,6976,-3,0,-4,1
276445,495,-8302,6918,-2,6,-2,1
276450,543,-8305,6846,-1,10,0,1
276455,577,-8294,6851,0,10,2,1
276460,655,-8268,6782,1,8,4,1
276465,790,-8242,6756,2,6,5,1
276470,924,-8152,6649,3,5,7,1
276475,1112,-8059,6711,5,3,7,1
276480,1106,-8009,6631,6,2,9,1
276485,903,-7966,6562,8,-7,11,1
276490,916,-7855,6450,9,-15,13,1
276495,1030,-7767,6468,10,-8,14,1
276500,1089,-7713,6420,11,-5,15,1
276505,930,-7660,6386,13,-9,17,1
276509,843,-7628,6318,14,-13,20,1
276515,879,-7592,6335,15,-9,22,1
276520,977,-7542,6309,17,-6,23,1
276524,997,-7470,6324,18,-6,25,1
276530,971,-7436,6269,20,-6,26,1
276534,728,-7480,6162,21,-7,29,1
276540,725,-7448,6058,22,-11,31,1
276544,798,-7412,6092,23,-3,33,1
276549,882,-7474,6081,25,-2,34,1
276554,914,-7428,6100,26,-10,36,1
276559,1184,-7356,6197,28,-8,36,1
276564,1214,-7317,6145,29,-6,37,1
276569,1177,-7268,6042,31,-17,39,1
276574,808,-7241,5824,31,-23,42,1
276579,633,-7261,5701,32,-27,44,1
276584,444,-7247,5574,33,-23,47,1
276589,496,-7228,5591,34,-20,49,1
276594,613,-7215,5608,35,-18,51,1
276599,718,-7195,5592,36,-19,52,1
276604,858,-7187,5546,37,-24,54,1
276609,975,-7218,5461,39,-27,55,1
276614,893,-7304,5268,39,-30,57,1
276619,871,-7407,5186,40,-35,59,1
276624,922,-7453,5151,41,-31,60,1
276629,1177,-7439,5302,43,-25,61,1
276634,1325,-7428,5372,44,-21,61,1
276639,1346,-7459,5307,45,-29,62,1
276644,1184,-7527,5117,45,-37,64,1
276649,1051,-7604,4896,45,-41,66,1
276654,973,-7663,4769,45,-37,67,1
276659,1005,-7693,4707,46,-35,68,1
276664,1528,-7690,4605,46,-40,69,1
276669,1770,-7677,4520,46,-43,68,1
276674,2216,-7666,4319,46,-49,67,1
276679,2378,-7654,4163,45,-48,66,1
276684,2580,-7650,4045,45,-54,66,1
276689,2573,-7647,4142,44,-59,67,1
276694,2286,-8895,4505,44,-69,68,1
276699,993,-9440,3533,43,-99,71,1
276704,3191,-8247,3483,54,-105,46,1
276709,5011,-6976,4818,55,17,42,1
276714,6316,-6440,5390,49,39,41,1
276719,6457,-6789,6361,52,-40,42,1
276724,6203,-7247,6646,45,-115,49,1
276729,4698,-7219,5387,44,-136,52,1
276734,3376,-7086,5474,55,-147,45,1
276739,1765,-6965,4657,55,-127,45,1
276744,1165,-6995,4162,53,-120,49,1
276749,1210,-7094,3575,49,-78,51,1
276754,1692,-7118,3501,46,-35,50,1
276759,2333,-7134,3704,46,-9,50,1
276764,2677,-7143,3771,44,-8,53,1
276769,2908,-7215,3924,43,-26,53,1
276774,3129,-7330,4028,42,-38,52,1
276779,3329,-7475,4215,43,-43,52,1
276784,3467,-7615,4383,42,-48,53,1
276789,3439,-7724,4482,40,-54,53,1
276794,3206,-7818,4592,38,-61,52,1
276799,3085,-7888,4535,36,-57,52,1
276804,2945,-7919,4572,34,-44,53,1
276809,2903,-7913,4627,33,-33,54,1
276814,2910,-7876,4751,32,-26,55,1
276819,2903,-7805,4695,30,-24,56,1
276824,2980,-7717,4726,29,-23,56,1
276829,3057,-7581,4648,28,-21,56,1
276834,3169,-7407,4562,27,-20,57,1
276839,3304,-7202,4467,25,-19,57,1
276844,3467,-6981,4417,24,-15,57,1
276849,3456,-6762,4373,23,-12,58,1
276854,3434,-6585,4397,23,-13,58,1
276859,3417,-6442,4379,22,-10,58,1
276864,3525,-6322,4330,21,-4,58,1
276869,3702,-6206,4275,21,2,57,1
276874,3750,-6088,4094,19,1,57,1
276879,3682,-5996,3969,18,-5,56,1
276884,3584,-5932,3865,16,-8,56,1
276889,3534,-5875,3783,15,-5,55,1
276894,3543,-5820,3804,14,-3,54,1
276899,3618,-5755,3889,13,-3,53,1
276904,3706,-5684,3928,12,-4,51,1
276909,3740,-5625,3959,11,-7,50,1
276914,3713,-5585,3980,10,-7,48,1
276919,3593,-5535,3991,9,-3,47,1
276924,3463,-5475,4035,8,6,45,1
276929,3414,-5480,4152,6,17,44,1
276934,3448,-5568,4269,5,23,42,1
276939,3521,-5680,4377,4,22,40,1
276944,3563,-5758,4437,2,21,38,1
276949,3560,-5803,4442,1,20,36,1
276954,3545,-5844,4466,0,20,34,1
276959,3525,-5889,4511,-2,19,32,1
276964,3528,-5920,4537,-3,17,30,1
276969,3585,-5936,4561,-4,13,28,1
276974,3665,-5946,4595,-4,8,26,1
276979,3716,-5950,4613,-5,2,24,1
276984,3764,-5956,4624,-6,-4,22,1
276989,3772,-5966,4622,-7,-8,20,1
276994,3737,-5983,4636,-8,-12,18,1
276999,3703,-5999,4645,-9,-14,16,1
277004,3675,-6013,4664,-10,-15,14,1
277009,3656,-5994,4701,-10,-15,13,1
277014,3664,-5995,4761,-11,-15,11,1
277018,3713,-6037,4799,-12,-14,10,1
277024,3785,-6058,4812,-12,-15,9,1
277028,3836,-6055,4802,-13,-15,7,1
277034,3371,-7167,3227,-15,-13,6,1
277038,3379,-6654,3769,-17,-23,5,1
277043,3756,-6404,5570,-1,-12,4,1
277049,4692,-6650,6982,1,-21,2,1
277054,5165,-6451,8324,10,-57,-3,1
277059,5242,-6248,8545,16,-68,-6,1
277063,4910,-6178,8131,18,-68,-7,1
277069,4686,-6387,7545,19,-33,-8,1
277073,4110,-6588,6893,13,5,-5,1
277078,3664,-6633,5823,6,19,-3,1
277083,3637,-6616,5405,5,30,-4,1
277088,4033,-6577,5125,4,36,-4,1
277093,4548,-6518,5125,3,19,-6,1
277098,4698,-6454,5132,2,-6,-8,1
277103,4563,-6442,5108,1,-30,-10,1
277108,4193,-6481,4987,-1,-37,-10,1
277113,3841,-6773,4209,-3,-30,-10,1
277118,3647,-6695,4492,-6,-15,-10,1
277123,3640,-6614,4894,-6,6,-9,1
277128,3648,-6737,4995,-5,8,-9,1
277133,3941,-6747,5851,0,7,-12,1
277138,4182,-6708,6595,0,11,-13,1
277143,4234,-6693,6862,0,-1,-15,1
277148,4065,-6643,7227,2,-13,-15,1
277153,3893,-6664,6929,2,-15,-16,1
277158,3650,-6681,6680,1,-10,-16,1
277163,3546,-6747,6147,-1,1,-17,1
277168,3542,-6839,5850,-3,11,-17,1
277173,3588,-6889,5737,-6,17,-18,1
277178,3584,-6911,5824,-7,13,-18,1
277183,3602,-6878,6074,-6,2,-20,1
277188,3596,-6839,6316,-5,-10,-21,1
277193,3557,-6782,6454,-4,-19,-22,1
277198,3510,-6741,6447,-4,-22,-23,1
277203,3450,-6717,6299,-4,-17,-23,1
277208,3343,-6708,6091,-5,-11,-24,1
277213,3246,-6715,5948,-7,-5,-25,1
277218,3159,-6728,5794,-8,0,-25,1
277223,3112,-6730,5732,-9,1,-26,1
277228,3118,-6729,5758,-9,0,-27,1
277233,3137,-6712,5739,-10,-5,-28,1
277238,3148,-6670,5765,-10,-11,-29,1
277243,3136,-6667,5808,-10,-15,-30,1
277248,3070,-6732,5765,-11,-16,-31,1
277253,2998,-6797,5698,-11,-13,-32,1
277258,2909,-6836,5668,-12,-10,-33,1
277263,2804,-6824,5552,-13,-8,-33,1
277268,2726,-6760,5499,-14,-5,-34,1
277273,2685,-6716,5444,-14,-1,-35,1
277278,2669,-6679,5411,-15,1,-35,1
277283,2670,-6656,5415,-14,-2,-36,1
277288,2664,-6649,5418,-15,-4,-37,1
277293,2655,-6653,5421,-15,-6,-37,1
277298,2626,-6681,5402,-16,-6,-38,1
277303,2585,-6719,5413,-16,-7,-38,1
277308,2530,-6746,5387,-17,-9,-39,1
277313,2490,-6753,5406,-17,-11,-39,1
277318,2366,-6813,5110,-17,-12,-40,1
277323,2283,-6808,5067,-18,-15,-40,1
277328,2268,-6816,5158,-17,-13,-41,1
277333,2228,-6864,5148,-18,-11,-40,1
277338,2217,-6906,5225,-18,-11,-41,1
277343,2201,-6924,5287,-19,-9,-41,1
277348,2150,-6950,5323,-19,-6,-41,1
277353,2098,-6977,5302,-19,-1,-40,1
277358,2029,-6994,5314,-20,3,-40,1
277363,1959,-7020,5232,-20,6,-40,1
277368,1854,-7058,5127,-20,8,-40,1
277373,1757,-7093,5080,-20,8,-40,1
277378,1664,-7112,5027,-21,7,-40,1
277383,1522,-7141,4885,-21,5,-40,1
277388,1572,-7153,5001,-21,3,-40,1
277393,1595,-7218,5056,-22,8,-38,1
277398,1654,-7235,5055,-22,7,-38,1
277403,1790,-7216,5338,-22,4,-38,1
277408,1717,-7230,5295,-21,-1,-37,1
277413,1712,-7212,5420,-21,-11,-38,1
277418,1478,-7259,5452,-21,-16,-37,1
277423,1287,-7284,5461,-22,-20,-37,1
277428,1031,-7307,5545,-22,-17,-36,1
277433,774,-7293,5552,-23,-10,-35,1
277438,834,-7348,5582,-22,1,-33,1
277443,609,-7342,5661,-21,15,-30,1
277448,890,-7306,5892,-20,23,-29,1
277453,956,-7341,5939,-19,39,-28,1
277458,1148,-7307,6121,-18,38,-29,1
277463,1080,-7318,6224,-17,36,-28,1
277468,1065,-7318,6036,-18,26,-27,1
277473,864,-7338,6024,-16,22,-25,1
277478,821,-7351,5856,-16,21,-23,1
277483,698,-7358,5828,-15,25,-21,1
277488,682,-7338,5835,-15,26,-19,1
277493,564,-7324,5971,-14,26,-17,1
277498,581,-7310,6167,-13,22,-15,1
277503,519,-7288,6376,-11,20,-14,1
277508,529,-7259,6547,-9,17,-12,1
277513,436,-7246,6653,-8,16,-10,1
277518,338,-7231,6677,-7,12,-9,1
277523,177,-7247,6661,-6,10,-7,1
277527,68,-7273,6610,-5,9,-5,1
277532,-79,-7309,6587,-4,8,-3,1
277537,-163,-7351,6551,-3,7,-1,1
277543,-234,-7398,6573,-2,6,1,1
277548,-269,-7446,6586,0,4,3,1
277552,-272,-7487,6637,1,2,5,1
277557,-248,-7521,6653,2,-2,7,1
277562,-218,-7554,6693,3,-5,9,1
277567,-193,-7585,6675,4,-8,11,1
277572,-192,-7610,6687,5,-9,13,1
277577,-196,-7631,6668,7,-11,15,1
277582,-188,-7639,6672,8,-13,17,1
277587,-204,-7643,6655,9,-14,19,1
277592,-166,-7666,6712,10,-16,22,1
277597,-202,-7653,6695,11,-18,24,1
277602,-218,-7625,6697,13,-19,26,1
277607,-262,-7586,6639,14,-19,28,1
277612,-265,-7533,6634,15,-20,30,1
277617,-308,-7477,6583,16,-19,32,1
277622,-329,-7415,6557,18,-21,35,1
277627,-334,-7357,6513,19,-22,37,1
277632,-327,-7291,6479,20,-24,39,1
277637,-308,-7218,6443,22,-25,41,1
277642,-302,-7155,6393,23,-27,43,1
277647,-285,-7098,6363,24,-29,45,1
277652,-272,-7015,6312,25,-31,47,1
277657,-321,-7070,6160,26,-32,48,1
277662,-341,-7052,6082,27,-38,51,1
277667,-187,-7012,6190,29,-36,52,1
277672,-187,-6985,6088,30,-31,54,1
277677,-34,-6918,6207,31,-37,55,1
277682,-47,-6896,6071,32,-37,56,1
277687,4,-6834,6049,33,-42,58,1
277692,-10,-6808,5910,34,-40,59,1
277697,-118,-6801,5697,34,-39,61,1
277702,-85,-6791,5670,35,-40,63,1
277707,-155,-6805,5484,35,-39,64,1
277712,-55,-6794,5495,36,-41,66,1
277717,21,-6789,5415,36,-42,67,1
277722,130,-6768,5407,37,-47,67,1
277727,233,-6726,5400,37,-52,68,1
277732,317,-6707,5355,38,-57,68,1
277737,371,-6700,5314,38,-62,69,1
277742,401,-6729,5190,38,-64,69,1
277747,463,-6791,5131,38,-64,70,1
277752,533,-6907,5071,37,-60,71,1
277757,1531,-6811,4992,36,-60,70,1
277762,1645,-6813,5307,37,-37,67,1
277767,1803,-6833,5226,36,-39,66,1
277772,1784,-6791,5276,35,-41,65,1
277777,1792,-6856,5065,33,-41,64,1
277782,1756,-6965,4983,32,-34,64,1
277787,1794,-7068,4949,31,-22,64,1
277792,1947,-7128,4998,30,-13,63,1
277797,2190,-7162,5091,29,-11,62,1
277802,2490,-7154,5145,28,-16,61,1
277807,2773,-7146,5091,28,-22,60,1
277812,3026,-7145,5126,27,-26,59,1
277817,3258,-7163,5019,25,-24,58,1
277822,3378,-7185,5092,24,-18,59,1
277827,3174,-7234,5327,22,-10,58,1
277832,3111,-7255,5368,19,-12,52,1
277837,2852,-7264,5707,18,-11,50,1
277842,2329,-7276,5992,18,-19,51,1
277847,2111,-7264,6098,18,-22,50,1
277852,2224,-7207,6034,17,-6,49,1
277857,2526,-7175,5655,15,19,47,1
277862,2825,-7127,5430,13,31,45,1
277867,2946,-7128,5286,11,32,43,1
277872,2845,-7134,5276,9,21,42,1
277877,2783,-7134,5396,9,12,41,1
277882,2800,-7106,5404,8,7,39,1
277887,3026,-7032,5491,8,4,37,1
277892,3298,-6959,5433,8,3,35,1
277897,3489,-6899,5434,7,-1,33,1
277902,3519,-6861,5425,7,-5,31,1
277907,3426,-6850,5431,6,-8,29,1
277912,3326,-6848,5443,5,-9,28,1
277917,3313,-6839,5419,5,-7,27,1
277922,3412,-6820,5367,5,-4,26,1
277927,3570,-6793,5366,4,-2,24,1
277932,3715,-6762,5360,3,-2,22,1
277937,3768,-6728,5373,3,-4,21,1
277942,3773,-6697,5417,3,-7,19,1
277947,3769,-6674,5414,3,-7,18,1
277952,3802,-6635,5408,2,-4,16,1
277957,3873,-6591,5405,2,2,15,1
277962,3952,-6553,5374,2,6,13,1
277967,4011,-6520,5370,1,10,12,1
277972,4046,-6486,5380,1,11,10,1
277977,4089,-6457,5362,1,10,9,1
277982,4134,-6414,5325,1,8,7,1
277987,4206,-6354,5302,1,6,6,1
277992,4265,-6309,5237,1,4,5,1
277997,4298,-6261,5226,1,3,3,1
278002,4281,-6211,5247,1,3,2,1
278007,4205,-6149,5265,1,5,1,1
278012,4196,-6137,5351,1,10,0,1
278017,4223,-6160,5445,1,12,-1,1
278022,4276,-6190,5515,1,10,-3,1
278027,4276,-6183,5556,1,9,-4,1
278032,4240,-6171,5570,1,8,-6,1
278037,4191,-6180,5566,0,9,-7,1
278042,4161,-6206,5585,0,10,-8,1
278047,4159,-6242,5640,0,9,-9,1
278052,4185,-6262,5699,0,6,-11,1
278056,4190,-6259,5753,-1,3,-12,1
278062,4195,-6270,5810,-1,0,-14,1
278067,4184,-6287,5870,-1,-2,-15,1
278071,4178,-6295,5930,-1,-4,-16,1
278077,4159,-6304,5955,-1,-7,-18,1
278081,4144,-6308,5968,-2,-10,-19,1
278086,4161,-6316,5982,-2,-11,-21,1
278091,4158,-6332,6029,-3,-12,-22,1
278096,4142,-6340,6082,-3,-13,-23,1
278101,4098,-6335,6170,-4,-15,-25,1
278106,4074,-6320,6239,-4,-15,-26,1
278111,4049,-6303,6301,-5,-15,-27,1
278116,4023,-6277,6385,-5,-15,-28,1
278121,4004,-6257,6409,-6,-15,-29,1
278126,3983,-6239,6368,-6,-16,-31,1
278131,3951,-6205,6365,-7,-16,-32,1
278136,3926,-6167,6361,-7,-16,-33,1
278141,3912,-6120,6355,-8,-16,-34,1
278146,3886,-6076,6369,-8,-16,-35,1
278151,3854,-6024,6323,-9,-16,-36,1
278156,3815,-5966,6338,-9,-16,-36,1
278161,3778,-5912,6307,-10,-16,-37,1
278166,3747,-5937,6420,-10,-16,-38,1
278171,3680,-5941,6209,-11,-16,-39,1
278176,3632,-5935,6236,-11,-15,-40,1
278181,3567,-5976,6063,-12,-15,-40,1
278186,3527,-6010,6056,-13,-16,-41,1
278191,3498,-6053,6025,-14,-17,-42,1
278196,3489,-6106,6006,-15,-19,-43,1
278201,3475,-6167,6050,-15,-21,-44,1
278206,3464,-6236,6031,-16,-23,-44,1
278211,3430,-6317,6075,-16,-25,-45,1
278216,3405,-6416,6021,-17,-26,-45,1
278221,3379,-6519,5985,-18,-27,-46,1
278226,3347,-6643,5942,-19,-26,-46,1
278231,3295,-6767,5910,-21,-25,-46,1
278236,3235,-6873,5957,-22,-22,-46,1
278241,3166,-6992,6002,-23,-19,-46,1
278246,3136,-7088,6057,-24,-15,-46,1
278251,3094,-7147,6125,-25,-12,-46,1
278256,3079,-7200,6130,-26,-10,-46,1
278261,3077,-7236,6127,-27,-7,-46,1
278266,3068,-7233,6068,-28,-4,-46,1
278271,3036,-7214,5999,-28,-3,-45,1
278276,2992,-7185,5958,-29,-3,-45,1
278281,2929,-7136,5887,-30,-4,-45,1
278286,2895,-7043,5871,-30,-5,-44,1
278291,2904,-7079,5971,-30,-6,-44,1
278296,2859,-7059,5865,-31,-9,-43,1
278301,2879,-6950,5974,-31,-7,-43,1
278306,2895,-6823,5926,-31,-3,-43,1
278311,2926,-6667,6034,-30,-1,-43,1
278316,2917,-6524,5987,-30,1,-43,1
278321,2861,-6399,5943,-30,2,-42,1
278326,2797,-6304,5868,-30,6,-42,1
278331,2679,-6239,5695,-30,12,-41,1
278336,2578,-6193,5553,-30,19,-41,1
278341,2509,-6181,5447,-30,26,-40,1
278346,2474,-6183,5353,-30,31,-40,1
278351,2482,-6194,5343,-30,33,-40,1
278356,2502,-6205,5293,-30,32,-40,1
278361,2535,-6208,5281,-29,28,-40,1
278366,2538,-6230,5250,-29,26,-40,1
278371,2503,-6269,5181,-28,24,-40,1
278376,2449,-6299,5144,-28,22,-40,1
278381,2327,-6389,5070,-28,23,-39,1
278386,2180,-6467,4944,-28,22,-39,1
278391,2071,-6551,4947,-28,22,-39,1
278396,1897,-6657,4877,-28,25,-38,1
278401,1787,-6730,4879,-28,27,-38,1
278406,1655,-6788,4925,-28,29,-38,1
278411,1492,-6836,4966,-28,29,-38,1
278416,1455,-7039,5123,-28,28,-39,1
278421,1673,-7131,4914,-28,29,-36,1
278426,1603,-7170,5018,-24,35,-33,1
278431,1784,-7198,4975,-23,34,-33,1
278436,1892,-7263,4978,-22,40,-33,1
278441,2113,-7308,4798,-22,42,-34,1
278446,2082,-7354,4689,-22,42,-34,1
278451,1972,-7393,4622,-22,32,-33,1
278456,1670,-7466,4638,-22,20,-32,1
278461,1480,-7528,4603,-21,9,-30,1
278466,1357,-7558,4637,-21,7,-29,1
278471,1361,-7563,4621,-20,7,-28,1
278476,1364,-7583,4766,-20,8,-27,1
278481,1374,-7627,4926,-19,7,-26,1
278486,1311,-7673,5172,-18,6,-24,1
278491,1245,-7707,5351,-17,5,-23,1
278496,1130,-7730,5485,-16,7,-21,1
278501,1030,-7751,5544,-15,11,-20,1
278506,905,-7783,5611,-15,17,-18,1
278511,798,-7819,5669,-14,24,-17,1
278516,695,-7846,5757,-13,30,-15,1
278521,641,-7859,5847,-12,31,-13,1
278526,612,-7850,5937,-11,28,-12,1
278531,624,-7818,6016,-10,23,-10,1
278536,622,-7773,6064,-9,18,-9,1
278541,615,-7731,6102,-8,11,-8,1
278546,573,-7688,6151,-7,5,-6,1
278551,534,-7632,6188,-5,-1,-5,1
278556,482,-7567,6222,-4,-6,-3,1
278560,445,-7493,6230,-3,-9,-2,1
278566,403,-7421,6243,-1,-12,0,1
278571,385,-7338,6236,0,-13,1,1
278576,366,-7259,6262,1,-13,2,1
278581,349,-7190,6297,2,-14,4,1
278586,345,-7123,6344,4,-15,5,1
278591,339,-7057,6319,5,-15,6,1
278596,358,-6988,6338,6,-14,8,1
278600,364,-6928,6331,8,-13,9,1
278605,387,-6866,6366,9,-15,11,1
278611,413,-6812,6366,11,-16,12,1
278615,430,-6759,6373,12,-17,13,1
278620,472,-6716,6355,14,-17,15,1
278625,475,-6683,6342,15,-19,16,1
278630,499,-6652,6328,17,-21,18,1
278635,481,-6633,6316,18,-22,19,1
278640,489,-6620,6325,19,-23,21,1
278645,472,-6615,6303,21,-23,22,1
278650,484,-6606,6315,22,-23,24,1
278655,485,-6602,6341,23,-21,25,1
278660,497,-6618,6362,25,-21,27,1
278665,530,-6620,6390,26,-21,29,1
278670,565,-6635,6383,28,-20,30,1
278675,562,-6656,6381,29,-19,32,1
278680,566,-6674,6364,30,-19,33,1
278685,529,-6706,6333,31,-18,35,1
278690,551,-6724,6312,32,-19,37,1
278695,570,-6755,6297,33,-18,39,1
278700,600,-6768,6257,33,-18,40,1
278705,658,-6806,6268,34,-20,42,1
278710,506,-6840,6009,35,-22,44,1
278715,750,-6803,6217,36,-30,45,1
278720,854,-6829,6218,37,-22,46,1
278725,1028,-6817,6328,39,-26,47,1
278730,1148,-6805,6364,40,-31,48,1
278735,1118,-6801,6238,40,-35,49,1
278740,1171,-6800,6215,41,-40,51,1
278745,1064,-6832,6014,41,-38,53,1
278750,1119,-6821,6026,41,-41,54,1
278755,1090,-6822,5943,41,-36,56,1
278760,1189,-6782,5959,42,-34,57,1
278765,1295,-6747,5963,43,-31,59,1
278770,1429,-6711,5914,43,-30,60,1
278775,1591,-6673,5966,43,-30,62,1
278780,1714,-6663,5905,44,-30,63,1
278785,1839,-6636,5956,44,-31,65,1
278790,1936,-6645,5979,43,-30,66,1
278795,1961,-6572,6003,43,-31,68,1
278800,1685,-6580,5712,43,-30,69,1
278805,2406,-6537,5855,43,-32,70,1
278810,2845,-6398,6119,43,-13,68,1
278815,2533,-6446,5740,43,-8,69,1
278820,2799,-6449,5930,42,-24,70,1
278825,2863,-6609,5654,40,-20,71,1
278830,3097,-6676,5551,39,-22,71,1
278835,3201,-6720,5575,38,-22,71,1
278840,3275,-6727,5470,36,-27,71,1
278845,3343,-6753,5601,36,-32,71,1
278850,3437,-6786,5623,35,-31,71,1
278855,3524,-6792,5702,35,-29,71,1
278860,3612,-6801,5725,34,-26,70,1
278865,3581,-6824,5690,33,-25,70,1
278870,3557,-6846,5621,32,-22,70,1
278875,3503,-6915,5455,30,-15,70,1
278880,3541,-6934,5298,28,-8,70,1
278885,3635,-7023,5135,27,2,71,1
278890,3540,-7150,5125,26,8,72,1
278895,3500,-7300,5184,23,8,72,1
278900,3446,-7458,5189,21,8,72,1
278905,3421,-7570,5420,20,8,72,1
278910,3500,-7665,5459,19,9,71,1
278915,3683,-7729,5475,19,11,71,1
278920,3938,-7802,5378,18,18,71,1
278925,3888,-7890,5316,16,22,71,1
278930,4004,-7988,5110,13,16,66,1
278935,3830,-8107,5005,11,17,64,1
278940,3297,-8204,5157,10,2,65,1
278945,2882,-8347,5094,9,-11,64,1
278950,2755,-8412,5037,8,-6,64,1
278955,3039,-8414,4880,7,12,62,1
278960,3417,-8346,4726,5,23,61,1
278965,3753,-8264,4739,3,23,58,1
278970,3807,-8209,4670,2,16,56,1
278975,3738,-8137,4786,1,7,55,1
278980,3653,-8056,4804,1,5,54,1
278985,3632,-7942,4770,1,8,52,1
278990,3751,-7799,4700,0,15,50,1
278995,3918,-7668,4585,-1,23,49,1
279000,4006,-7567,4537,-2,28,47,1
279005,4004,-7485,4523,-3,29,44,1
279010,3926,-7417,4575,-3,28,42,1
279015,3837,-7362,4597,-3,28,40,1
279020,3805,-7308,4611,-3,27,38,1
279025,3842,-7247,4554,-3,29,35,1
279030,3872,-7221,4469,-4,32,33,1
279035,3916,-7238,4448,-5,35,30,1
279040,3925,-7306,4504,-5,32,27,1
279045,3861,-7370,4560,-5,25,24,1
279050,3748,-7401,4607,-5,18,21,1
279055,3621,-7420,4640,-5,14,18,1
279060,3517,-7441,4655,-5,13,15,1
279065,3430,-7461,4691,-5,14,12,1
279070,3357,-7483,4724,-5,14,10,1
279075,3279,-7489,4770,-5,12,7,1
279079,3190,-7489,4831,-5,9,4,1
279085,3112,-7485,4873,-5,6,1,1
279089,3054,-7466,4933,-5,3,-1,1
279095,3015,-7432,5064,-5,1,-4,1
279099,3000,-7397,5005,-6,0,-7,1
279104,3022,-7295,5149,-6,0,-9,1
279109,3008,-7217,5263,-5,-1,-11,1
279114,3022,-7146,5270,-5,-4,-14,1
279119,2979,-7050,5350,-5,-3,-16,1
279124,2981,-6964,5304,-5,-2,-18,1
279129,2961,-6861,5308,-5,1,-20,1
279134,2962,-6764,5288,-5,4,-22,1
279139,2963,-6669,5306,-5,6,-24,1
279144,2968,-6575,5325,-5,8,-26,1
279149,2982,-6476,5304,-5,9,-28,1
279154,2977,-6387,5309,-4,10,-30,1
279159,2974,-6323,5299,-4,10,-32,1
279164,2973,-6270,5286,-4,12,-34,1
279169,2956,-6231,5244,-3,14,-36,1
279174,2913,-6203,5228,-3,16,-38,1
279179,2859,-6190,5184,-3,18,-40,1
279184,2830,-6200,5115,-3,22,-42,1
279189,2814,-6226,5095,-3,25,-44,1
279194,2814,-6258,5103,-3,27,-46,1
279199,2812,-6305,5108,-3,28,-47,1
279204,2819,-6333,5112,-3,29,-50,1
279209,2808,-6375,5116,-3,29,-52,1
279214,2778,-6420,5095,-3,30,-53,1
279219,2752,-6461,5061,-3,30,-55,1
279224,2725,-6516,4998,-3,31,-57,1
279229,2742,-6571,4921,-4,33,-59,1
279234,2651,-6621,4875,-4,35,-61,1
279239,2587,-6676,4856,-4,33,-62,1
279244,2523,-6746,4798,-4,33,-64,1
279249,2525,-6779,4772,-5,33,-66,1
279254,2534,-6838,4802,-5,32,-68,1
279259,2575,-6756,4590,-6,29,-70,1
279264,2500,-6752,4893,-5,25,-71,1
279269,2429,-6903,4493,-7,23,-73,1
279274,2361,-6954,4249,-8,25,-74,1
279279,2320,-7006,4184,-9,30,-75,1
279284,2264,-7087,4054,-11,30,-77,1
279289,2209,-7146,4206,-11,26,-78,1
279294,2191,-7239,4187,-12,22,-79,1
279299,2143,-7309,4326,-12,18,-80,1
279304,2145,-7370,4345,-13,16,-81,1
279309,2148,-7423,4329,-13,15,-82,1
279314,2148,-7468,4318,-14,16,-83,1
279319,2181,-7532,4345,-15,15,-84,1
279324,2182,-7608,4326,-16,3,-84,1
279329,2183,-7699,4280,-17,-10,-85,1
279334,2168,-7732,4237,-19,-18,-85,1
279339,2078,-7819,4116,-20,-19,-85,1
279344,1988,-7843,4259,-22,-8,-85,1
279349,1917,-7813,4440,-23,4,-85,1
279354,1854,-7796,4512,-24,5,-85,1
279359,1875,-7728,4668,-24,0,-85,1
279364,1917,-7653,4563,-24,-5,-84,1
279369,1955,-7604,4497,-26,-7,-84,1
279374,1929,-7600,4382,-27,-1,-84,1
279379,1849,-7583,4298,-29,4,-83,1
279384,1708,-7545,4313,-30,7,-83,1
279389,1519,-7456,4205,-30,13,-82,1
279394,1333,-7367,4303,-30,24,-82,1
279399,1090,-7229,4156,-30,42,-81,1
279404,858,-7164,4073,-30,66,-80,1
279409,715,-7299,4045,-30,82,-80,1
279414,749,-7335,4127,-32,91,-79,1
279419,965,-7369,4722,-31,97,-77,1
279424,1169,-7448,4876,-30,102,-77,1
279429,1342,-7398,5395,-27,98,-79,1
279434,1316,-7348,5336,-26,88,-79,1
279439,1152,-7307,5290,-25,74,-79,1
279444,895,-7255,5153,-26,68,-78,1
279449,717,-7259,4849,-28,69,-78,1
279454,768,-7284,4779,-29,75,-76,1
279459,816,-7337,4837,-29,84,-73,1
279464,1009,-7351,4994,-28,87,-73,1
279469,1180,-7338,5248,-27,84,-73,1
279474,1284,-7296,5327,-26,73,-73,1
279479,1338,-7218,5461,-26,58,-72,1
279484,1238,-7191,5478,-26,41,-71,1
279489,946,-7224,5337,-28,24,-70,1
279494,1143,-7263,5698,-27,5,-69,1
279499,1314,-7329,6000,-25,10,-66,1
279504,1709,-7326,6114,-24,19,-68,1
279509,1697,-7277,6282,-23,22,-67,1
279514,1507,-7258,6186,-23,8,-66,1
279519,1211,-7274,6305,-24,-5,-63,1
279524,1013,-7380,6229,-26,-8,-61,1
279529,973,-7490,6256,-27,-2,-59,1
279534,984,-7556,6397,-27,4,-58,1
279539,938,-7589,6557,-27,6,-57,1
279544,790,-7583,6732,-27,3,-56,1
279549,619,-7566,6822,-26,2,-54,1
279554,455,-7578,6850,-27,5,-52,1
279559,356,-7591,6933,-27,9,-50,1
279564,263,-7599,7046,-27,14,-48,1
279569,225,-7620,7185,-27,19,-46,1
279574,224,-7636,7214,-27,23,-45,1
279579,219,-7615,7295,-27,25,-44,1
279583,151,-7599,7395,-26,23,-42,1
279589,71,-7579,7476,-26,17,-41,1
279594,5,-7638,7619,-25,11,-39,1
279598,-76,-7616,7751,-25,5,-38,1
279603,-139,-7569,7871,-24,0,-36,1
279608,-237,-7507,7794,-23,-1,-34,1
279614,-255,-7434,7886,-23,-2,-32,1
279618,-359,-7385,7862,-22,1,-30,1
279623,-427,-7328,7975,-22,0,-28,1
279628,-491,-7290,8061,-21,1,-26,1
279633,-503,-7235,8121,-19,1,-24,1
279638,-531,-7164,8192,-18,-1,-22,1
279643,-546,-7114,8189,-17,-5,-21,1
279648,-570,-7063,8223,-15,-11,-19,1
279653,-595,-7039,8241,-14,-17,-17,1
279658,-616,-7027,8241,-13,-25,-15,1
279663,-607,-6998,8252,-12,-31,-14,1
279668,-615,-6974,8202,-11,-36,-12,1
279673,-573,-6949,8195,-9,-40,-10,1
279678,-535,-6934,8134,-8,-41,-8,1
279683,-486,-6921,8105,-7,-42,-7,1
279688,-437,-6911,8055,-6,-43,-5,1
279693,-348,-6882,8003,-4,-43,-3,1
279698,-234,-6852,7949,-3,-43,-1,1
279703,-80,-6822,7908,-1,-44,1,1
279708,39,-6785,7876,0,-44,3,1
279713,165,-6743,7861,2,-45,5,1
279718,260,-6697,7857,3,-44,7,1
279723,372,-6648,7850,5,-42,9,1
279728,466,-6606,7840,7,-39,11,1
279733,563,-6569,7784,8,-35,13,1
279738,643,-6533,7733,10,-32,15,1
279743,734,-6512,7645,12,-28,17,1
279748,733,-6504,7516,14,-27,19,1
279753,835,-6494,7422,15,-26,21,1
279758,895,-6497,7319,17,-24,23,1
279763,951,-6499,7200,19,-24,25,1
279768,901,-6517,7050,20,-23,27,1
279773,988,-6521,6957,22,-24,29,1
279778,1035,-6561,6873,24,-20,31,1
279783,1080,-6612,6758,25,-21,33,1
279788,1147,-6682,6710,27,-20,34,1
279793,1146,-6768,6529,28,-20,36,1
279798,1249,-6862,6504,30,-21,38,1
279803,1266,-6974,6339,30,-20,40,1
279808,1269,-7064,6302,31,-23,42,1
279813,1309,-7156,6225,32,-24,44,1
279818,1293,-7255,6163,34,-27,46,1
279823,1333,-7349,6122,34,-30,48,1
279828,1273,-7464,6033,35,-30,50,1
279833,1260,-7565,5966,35,-29,52,1
279838,1256,-7644,5951,36,-24,54,1
279843,1280,-7718,5925,36,-18,56,1
279848,1309,-7761,5923,37,-13,58,1
279853,1464,-7757,5904,37,-10,60,1
279858,1731,-7743,5975,37,-5,60,1
279863,1886,-7788,5750,37,2,61,1
279868,1829,-7860,5481,35,1,63,1
279873,1710,-8002,5137,33,-7,64,1
279878,1972,-8074,5419,32,-10,65,1
279883,2186,-8132,5610,32,-5,66,1
279888,2347,-8099,5887,33,-9,65,1
279893,2448,-8006,6072,34,-16,65,1
279898,2354,-7901,5986,34,-22,66,1
279903,2349,-7781,5873,34,-27,67,1
279908,2213,-7733,5631,33,-23,68,1
279913,2154,-7696,5471,32,-25,69,1
279918,2052,-7665,5378,31,-21,70,1
279923,1976,-7609,5300,31,-20,71,1
279928,2126,-7639,5011,31,-19,71,1
279933,1974,-7550,4867,30,-21,71,1
279938,2127,-7398,4874,30,-23,71,1
279943,2030,-7313,4711,29,-16,72,1
279948,2157,-7177,4739,29,-19,72,1
279953,1925,-7173,4536,29,-16,72,1
279958,1974,-7129,4486,29,-26,72,1
279963,2039,-7048,4667,30,-21,72,1
279968,1975,-7001,4464,30,-15,72,1
279973,1956,-6943,4535,30,-18,72,1
279978,1797,-6946,4243,29,-15,72,1
279983,1742,-6938,4292,29,-16,73,1
279988,1685,-6979,4126,28,-11,74,1
279993,1573,-7030,4026,28,-9,74,1
279998,1561,-7086,4037,27,-9,74,1
280003,1492,-7176,3947,27,-6,75,1
280008,1486,-7212,3980,26,-6,75,1
280013,1451,-7272,3877,26,-4,75,1
280018,1479,-7310,3884,25,-6,75,1
280023,1477,-7350,3860,25,-6,75,1
280028,1491,-7409,3818,24,-8,75,1
280033,1458,-7466,3694,23,-10,75,1
280038,1449,-7538,3673,23,-12,76,1
280043,1414,-7619,3603,21,-11,76,1
280048,1417,-7704,3633,20,-10,76,1
280053,1401,-7825,3593,19,-9,76,1
280058,1392,-7918,3462,18,-9,77,1
280063,1508,-7994,3434,18,-6,76,1
280068,1679,-8033,3561,18,2,77,1
280073,1920,-8075,3588,16,10,77,1
280078,1953,-8151,3731,14,14,78,1
280083,1787,-8198,4029,12,8,75,1
280088,1949,-8200,3870,9,5,71,1
280093,1783,-8200,4026,8,6,70,1
280098,1321,-8223,4314,8,-5,71,1
280103,1000,-8237,4534,8,-15,72,1
280108,1062,-8163,4591,8,-12,72,1
280113,1498,-8049,4610,8,3,71,1
280117,2080,-7923,4449,5,19,70,1
280123,2455,-7800,4345,2,27,70,1
280127,2556,-7807,4221,0,21,68,1
280132,2350,-7765,4292,-1,6,66,1
280137,2129,-7697,4560,-1,-3,64,1
280143,1963,-7636,4638,-1,1,63,1
280147,1963,-7470,4744,-1,12,62,1
280152,2172,-7342,4744,-2,38,60,1
280157,2425,-7269,4938,-2,57,58,1
280162,2640,-7286,5079,-3,70,56,1
280167,2678,-7329,5162,-4,72,54,1
280172,2616,-7365,5240,-5,68,52,1
280177,2611,-7371,5251,-5,69,50,1
280182,2706,-7337,5264,-6,74,48,1
280187,2956,-7303,5254,-6,79,46,1
280192,3205,-7262,5300,-7,80,43,1
280197,3405,-7225,5361,-8,77,41,1
280202,3525,-7213,5420,-8,71,38,1
280207,3571,-7191,5519,-7,65,35,1
280212,3597,-7160,5640,-7,61,33,1
280217,3576,-7118,5700,-7,60,31,1
280222,3587,-7084,5630,-7,60,29,1
280227,3639,-7061,5544,-7,63,26,1
280232,3708,-7035,5488,-7,65,23,1
280237,3783,-7025,5444,-7,64,20,1
280242,3840,-7012,5433,-6,60,18,1
280247,3900,-6996,5493,-6,52,15,1
280252,3956,-6979,5589,-5,42,12,1
280257,4010,-6976,5693,-4,32,9,1
280262,4066,-6961,5790,-3,22,6,1
280267,4111,-6929,5875,-2,14,4,1
280272,4123,-6908,5906,-1,9,1,1
280277,4103,-6883,5938,0,6,-1,1
280282,4054,-6855,5943,0,5,-3,1
280287,4014,-6840,5970,1,4,-5,1
280292,3956,-6822,6016,1,2,-7,1
280297,3923,-6808,6095,2,2,-10,1
280302,3907,-6792,6198,3,4,-12,1
280307,3880,-6809,6271,3,5,-14,1
280312,3846,-6809,6287,4,6,-16,1
280317,3721,-6785,6473,5,6,-18,1
280322,3657,-6796,6550,5,5,-20,1
280327,3602,-6804,6587,6,5,-22,1
280332,3556,-6800,6611,6,7,-24,1
280337,3533,-6811,6580,7,10,-26,1
280342,3473,-6813,6542,7,13,-29,1
280347,3380,-6807,6593,7,16,-31,1
280352,3279,-6813,6620,7,18,-33,1
280357,3212,-6818,6621,8,18,-35,1
280362,3170,-6798,6642,8,19,-37,1
280367,3139,-6777,6657,9,18,-39,1
280372,3103,-6765,6614,9,17,-42,1
280377,3052,-6737,6587,10,15,-44,1
280382,3006,-6734,6500,10,14,-46,1
280387,2969,-6730,6368,10,13,-48,1
280392,2910,-6710,6342,10,13,-50,1
280397,2888,-6711,6250,10,13,-52,1
280402,2868,-6687,6190,10,12,-55,1
280407,2830,-6660,6218,11,12,-56,1
280412,2796,-6650,6167,11,11,-58,1
280417,2734,-6646,6144,11,10,-60,1
280422,2669,-6638,6111,11,9,-62,1
280427,2605,-6638,6079,11,9,-63,1
280432,2601,-6625,5946,11,9,-65,1
280437,2605,-6599,5874,11,8,-67,1
280442,2603,-6584,5812,10,7,-68,1
280447,2842,-6680,5157,10,8,-70,1
280452,2523,-6554,5808,10,7,-71,1
280457,2428,-6450,5667,10,-1,-71,1
280462,2439,-6558,5657,10,-5,-73,1
280467,2644,-6718,4820,8,4,-74,1
280472,2707,-6762,4717,5,21,-76,1
280477,2453,-6706,4833,4,25,-76,1
280482,2405,-6791,4704,2,19,-77,1
280487,2117,-6844,5081,3,14,-77,1
280492,2097,-6873,5259,3,12,-77,1
280497,2075,-6868,5383,3,10,-78,1
280502,2139,-6841,5447,3,5,-78,1
280507,2235,-6835,5358,2,7,-79,1
280512,2246,-6854,5340,1,11,-80,1
280517,2207,-6895,5201,0,15,-81,1
280522,2059,-6908,5307,0,17,-81,1
280527,1922,-6866,5316,-1,16,-81,1
280532,1936,-6790,4974,-2,15,-81,1
280537,1830,-6742,5115,-3,14,-81,1
280542,1900,-6804,4753,-4,16,-81,1
280547,1954,-6855,4700,-6,20,-82,1
280552,1940,-6897,4779,-7,22,-82,1
280557,1885,-6928,4761,-8,20,-82,1
280562,1807,-6917,5037,-7,13,-82,1
280567,1772,-6909,5040,-7,7,-82,1
280572,1734,-6888,5155,-7,1,-82,1
280577,1726,-6893,5079,-8,-4,-82,1
280582,1709,-6938,4991,-9,-6,-82,1
280587,1663,-6995,4848,-10,-5,-82,1
280592,1616,-7066,4761,-12,-3,-82,1
280597,1536,-7146,4765,-13,-1,-81,1
280602,1468,-7273,4778,-14,0,-81,1
280607,1403,-7340,4479,-15,0,-80,1
280612,1289,-7347,4605,-13,-4,-80,1
280617,1267,-7401,4873,-12,-9,-81,1
280622,1238,-7465,4902,-14,-14,-80,1
280627,1205,-7539,4907,-15,-17,-79,1
280631,1213,-7591,5061,-16,-17,-79,1
280637,1200,-7671,5043,-18,-14,-78,1
280642,1242,-7741,5052,-20,-11,-77,1
280647,1363,-7816,5323,-22,-6,-75,1
280651,1464,-7866,5375,-22,-3,-74,1
280656,1587,-7870,5607,-22,-7,-74,1
280662,1557,-7893,5490,-23,-12,-73,1
280666,1550,-7882,5566,-23,-19,-73,1
280671,1360,-7914,5440,-25,-20,-71,1
280676,1276,-7950,5343,-26,-22,-71,1
280681,1146,-8076,5376,-27,-17,-69,1
280686,1068,-8126,5261,-28,-14,-68,1
280691,1192,-8093,5732,-27,-9,-67,1
280696,1246,-8114,5713,-27,-3,-66,1
280701,1349,-8044,5904,-27,-4,-65,1
280706,1291,-8044,5939,-27,-4,-64,1
280711,1165,-8018,5777,-28,-7,-64,1
280716,1129,-7991,5779,-28,-7,-62,1
280721,901,-8031,5581,-29,1,-60,1
280726,940,-8024,5560,-30,4,-59,1
280731,846,-8053,5488,-30,13,-57,1
280736,861,-8061,5480,-31,14,-56,1
280741,953,-8076,5511,-31,15,-55,1
280746,1055,-8078,5376,-31,15,-53,1
280751,1263,-8061,5381,-30,15,-52,1
280756,1275,-8082,5294,-30,12,-51,1
280761,1327,-8084,5311,-29,3,-50,1
280766,1195,-8119,5302,-29,-3,-48,1
280771,1107,-8130,5347,-29,-11,-47,1
280776,990,-8325,5360,-29,-12,-45,1
280781,917,-8159,5392,-32,-13,-45,1
280786,978,-8095,5595,-28,-11,-43,1
280791,769,-8113,5209,-28,-5,-41,1
280796,911,-8044,5534,-28,0,-40,1
280801,757,-8104,5327,-28,13,-38,1
280806,762,-8112,5509,-28,15,-36,1
280811,670,-8152,5590,-27,18,-34,1
280816,630,-8176,5580,-27,17,-32,1
280821,710,-8171,5735,-25,17,-31,1
280826,702,-8157,5645,-25,17,-29,1
280831,747,-8106,5797,-23,11,-28,1
280836,701,-8088,5736,-22,7,-26,1
280841,636,-8036,5746,-21,1,-24,1
280846,568,-7985,5699,-20,-2,-23,1
280851,525,-7929,5661,-19,-7,-21,1
280856,484,-7899,5699,-18,-13,-19,1
280861,413,-7895,5654,-17,-15,-17,1
280866,373,-7830,5786,-15,-17,-16,1
280871,254,-7765,5792,-14,-20,-14,1
280876,168,-7691,5861,-13,-24,-13,1
280881,94,-7625,5910,-11,-23,-11,1
280886,26,-7583,5933,-10,-21,-9,1
280891,53,-7535,6041,-9,-18,-7,1
280896,38,-7489,6082,-7,-14,-5,1
280901,106,-7439,6187,-6,-14,-3,1
280906,172,-7407,6183,-4,-13,-2,1
280911,273,-7379,6190,-2,-13,0,1
280916,388,-7365,6160,-1,-14,1,1
280921,477,-7352,6134,0,-16,3,1
280926,563,-7342,6148,1,-17,4,1
280931,613,-7344,6141,2,-18,6,1
280936,659,-7331,6174,3,-18,7,1
280941,826,-7374,6291,5,-17,9,1
280946,675,-7399,6220,6,-16,11,1
280951,802,-7362,6298,7,-19,12,1
280956,782,-7370,6269,8,-12,14,1
280961,880,-7352,6303,9,-13,15,1
280966,922,-7349,6346,11,-10,17,1
280971,932,-7343,6332,12,-12,19,1
280976,1088,-7257,6415,13,-14,20,1
280981,1466,-7149,6626,15,-11,20,1
280986,1302,-7205,6372,16,-8,22,1
280991,1355,-7204,6289,17,-23,24,1
280996,1211,-7248,6174,17,-17,27,1
281001,1015,-7293,6036,17,-16,29,1
281006,1049,-7313,6125,18,-14,31,1
281011,987,-7328,6141,19,-7,32,1
281016,1159,-7305,6337,21,-8,33,1
281021,1205,-7312,6344,22,-4,34,1
281026,1278,-7294,6413,24,-10,36,1
281031,1277,-7286,6342,25,-10,37,1
281036,1218,-7275,6193,25,-13,39,1
281041,1157,-7255,6112,26,-15,41,1
281046,1033,-7244,5941,26,-15,43,1
281051,991,-7244,5940,27,-15,44,1
281056,849,-7248,5809,27,-13,46,1
281061,975,-7196,5952,29,-16,48,1
281066,997,-7178,5919,30,-11,49,1
281071,1064,-7129,5958,31,-16,50,1
281076,1134,-7092,5942,32,-16,51,1
281081,1095,-7070,5829,32,-17,52,1
281086,1123,-7025,5824,33,-22,54,1
281091,1047,-7015,5640,33,-21,56,1
281096,1036,-6982,5599,34,-27,57,1
281101,1020,-6974,5538,34,-27,59,1
281106,1052,-6962,5499,35,-29,60,1
281111,1067,-6937,5507,36,-32,61,1
281116,1081,-6908,5475,36,-34,63,1
281121,1123,-6877,5478,37,-36,64,1
281126,1155,-6850,5457,37,-37,65,1
281130,1240,-6806,5490,38,-39,67,1
281135,1304,-6785,5456,38,-40,68,1
281141,1291,-6740,5373,39,-43,69,1
281146,1349,-6707,5359,39,-45,71,1
281150,1208,-6773,5059,39,-44,72,1
281156,1413,-6747,5244,40,-49,74,1
281161,1600,-6726,5398,41,-41,74,1
281166,1723,-6678,5428,42,-43,74,1
281170,1865,-6590,5574,44,-50,75,1
281175,1802,-6551,5358,44,-52,76,1
281180,1812,-6539,5293,44,-58,78,1
281185,1724,-6594,5075,43,-54,79,1
281190,1615,-6678,4920,43,-52,81,1
281195,1555,-6746,4844,42,-48,82,1
281200,1550,-6795,4893,42,-42,84,1
281205,1619,-6857,4958,42,-36,84,1
281210,1641,-6899,4976,41,-33,85,1
281215,1647,-6923,4988,41,-34,86,1
281220,1627,-7058,4984,40,-35,87,1
281225,1489,-7142,4703,38,-39,88,1
281230,1804,-7184,5206,39,-42,87,1
281235,1803,-7282,5258,38,-32,87,1
281240,1902,-7275,5450,38,-40,87,1
281245,1848,-7257,5455,38,-42,87,1
281250,1745,-7268,5270,37,-44,87,1
281255,1681,-7305,5212,36,-42,87,1
281260,1598,-7350,5031,34,-35,88,1
281265,1614,-7423,4961,33,-30,88,1
281270,1679,-7501,4836,32,-24,89,1
281275,1824,-7534,4669,30,-19,90,1
281280,2006,-7547,4600,30,-12,91,1
281285,2080,-7531,4909,28,-2,91,1
281290,1998,-7511,4969,23,0,89,1
281295,1994,-7504,4995,20,-6,85,1
281300,2049,-7508,5292,20,-7,84,1
281305,1613,-7500,5548,19,-11,85,1
281310,1389,-7446,5811,20,-20,85,1
281315,1343,-7404,5789,19,-12,85,1
281320,1631,-7334,5632,18,4,84,1
281325,1998,-7272,5509,16,25,83,1
281330,2243,-7223,5402,13,37,82,1
281335,2274,-7195,5377,11,36,81,1
281340,2162,-7147,5398,10,26,79,1
281345,2019,-7100,5445,10,17,77,1
281350,2019,-7061,5373,9,15,76,1
281355,2198,-7014,5392,8,19,75,1
281360,2508,-6962,5343,7,20,73,1
281365,2737,-6913,5324,6,14,71,1
281370,2884,-6882,5364,5,2,68,1
281375,2883,-6866,5450,4,-11,66,1
281380,2822,-6786,5513,4,-21,64,1
281385,2783,-6696,5722,4,-22,62,1
281390,2910,-6804,5609,3,-17,60,1
281395,2936,-6793,5593,1,-11,58,1
281400,2978,-6731,5641,1,-7,55,1
281405,2919,-6717,5644,0,-6,53,1
281410,2855,-6742,5682,0,-7,51,1
281415,2823,-6745,5660,-1,-5,49,1
281420,2885,-6749,5724,-1,-3,46,1
281425,3009,-6737,5673,-2,0,44,1
281430,3166,-6683,5724,-2,0,41,1
281435,3285,-6660,5749,-2,-3,38,1
281440,3336,-6644,5740,-2,-8,36,1
281445,3680,-8035,5853,-2,-16,33,1
281450,1209,-7896,6235,-1,-104,37,1
281455,3376,-6847,5690,-4,-78,-6,1
281460,5233,-5715,5092,-6,52,6,1
281465,6825,-5999,5675,-6,62,-2,1
281470,8190,-5860,5700,-3,12,3,1
281475,8101,-5690,6110,-3,-47,-11,1
281480,6973,-5880,6213,-3,-83,-21,1
281485,4321,-5940,6424,0,-117,-18,1
281490,2230,-5972,6551,2,-137,-12,1
281495,1870,-6041,6126,3,-111,-7,1
281500,3211,-5930,5853,3,-55,-6,1
281505,4268,-5755,5541,2,-11,-6,1
281510,5075,-5542,5444,0,3,-10,1
281515,5602,-5416,5179,-2,17,-15,1
281520,5628,-5527,5133,-3,27,-17,1
281525,4528,-5668,5537,-1,21,-15,1
281530,3622,-5834,5872,1,2,-13,1
281535,3228,-5949,6083,3,-12,-11,1
281540,3670,-6033,6049,5,-10,-11,1
281545,4450,-6094,5698,5,1,-13,1
281550,4959,-6151,5437,4,5,-16,1
281555,4889,-6305,5244,2,0,-19,1
281560,4295,-6555,5272,1,-6,-20,1
281565,3555,-6824,5420,1,-15,-20,1
281570,3117,-7066,5569,1,-20,-20,1
281575,3149,-7317,5656,1,-18,-21,1
281580,3468,-7543,5664,0,-16,-24,1
281585,3678,-7720,5737,-1,-19,-27,1
281590,3607,-7935,5740,-3,-25,-30,1
281595,3245,-8171,5850,-5,-34,-33,1
281600,2734,-8399,6031,-7,-41,-34,1
281605,2396,-8609,6176,-8,-43,-35,1
281610,2358,-8756,6273,-9,-40,-37,1
281615,2462,-8810,6342,-11,-37,-39,1
281620,2551,-9000,6340,-13,-35,-41,1
281625,2478,-8812,6399,-16,-35,-43,1
281630,2170,-8643,6720,-16,-43,-44,1
281634,2147,-8598,6572,-18,-45,-46,1
281639,2098,-8537,6035,-20,-41,-47,1
281645,2215,-8335,5889,-22,-38,-48,1
281649,2206,-8116,5813,-23,-33,-49,1
281654,2234,-7890,5652,-24,-36,-50,1
281659,2101,-7628,5810,-25,-44,-50,1
281664,2082,-7408,5739,-25,-50,-51,1
281669,2058,-7159,5839,-24,-51,-51,1
281674,2097,-6923,5753,-24,-52,-52,1
281679,2100,-6680,5605,-24,-52,-52,1
281684,2062,-6465,5440,-24,-50,-52,1
281689,1962,-6313,5181,-25,-47,-52,1
281694,1883,-6209,5109,-26,-42,-52,1
281699,1819,-6131,4989,-26,-35,-52,1
281704,1819,-6037,4984,-26,-30,-51,1
281709,1867,-5999,4915,-26,-28,-51,1
281714,1946,-5962,4849,-26,-29,-51,1
281719,2042,-5925,4890,-25,-34,-51,1
281724,2122,-5928,4787,-25,-40,-51,1
281729,2193,-5898,4776,-25,-51,-50,1
281734,2268,-5908,4798,-25,-69,-50,1
281739,2349,-5984,4829,-26,-86,-50,1
281744,2444,-6200,4980,-26,-97,-49,1
281749,2538,-6362,5153,-27,-104,-48,1
281754,2677,-6513,5231,-26,-112,-48,1
281759,2753,-6599,5239,-27,-122,-46,1
281764,2829,-6707,5233,-28,-132,-46,1
281769,2819,-6844,5218,-30,-139,-44,1
281774,2780,-6992,5309,-31,-136,-43,1
281779,2691,-7161,5415,-32,-131,-42,1
281784,2539,-7298,5469,-32,-121,-40,1
281789,2428,-7400,5392,-33,-98,-38,1
281794,2364,-7520,5304,-34,-72,-36,1
281799,2327,-7683,5260,-35,-39,-34,1
281804,2250,-7891,5355,-37,-8,-33,1
281809,2124,-8107,5496,-38,16,-32,1
281814,1941,-8358,5611,-39,40,-30,1
281819,1783,-8593,5591,-39,70,-29,1
281824,1701,-8810,5593,-40,100,-28,1
281829,1703,-8971,5584,-43,130,-27,1
281834,1680,-9064,5539,-44,158,-26,1
281839,1701,-9149,5581,-45,180,-25,1
281844,1624,-9174,5471,-46,199,-25,1
281849,1495,-9118,5163,-44,217,-25,1
281854,1273,-8944,5074,-43,241,-26,1
281859,1093,-8735,4962,-43,274,-26,1
281864,945,-8539,4953,-44,304,-26,1
281869,914,-8369,5029,-44,328,-25,1
281874,852,-8436,5048,-44,353,-26,1
281879,764,-8432,4954,-43,374,-26,1
281884,691,-8268,5286,-37,394,-29,1
281889,623,-8019,5779,-35,414,-30,1
281894,501,-7858,6036,-36,431,-31,1
281899,362,-7733,6181,-35,437,-32,1
281904,293,-7562,6713,-31,435,-35,1
281909,331,-7465,6843,-30,426,-36,1
281914,431,-7410,6804,-27,402,-38,1
281919,676,-7311,7002,-24,356,-41,1
281924,981,-7253,7022,-24,301,-42,1
281929,1364,-7241,7043,-25,250,-43,1
281934,1672,-7220,7024,-24,208,-44,1
281939,1841,-7170,7096,-23,170,-45,1
281944,1784,-7083,7013,-22,132,-45,1
281949,1675,-6969,6865,-21,99,-44,1
281954,1526,-6846,6576,-20,85,-43,1
281959,1406,-6741,6314,-20,91,-42,1
281964,1220,-6652,6060,-21,109,-41,1
281969,1065,-6622,5929,-20,126,-40,1
281974,870,-6630,5775,-20,137,-38,1
281979,785,-6615,5813,-19,141,-37,1
281984,693,-6614,5781,-18,143,-36,1
281989,639,-6618,5766,-17,142,-36,1
281994,518,-6621,5717,-16,136,-36,1
281999,428,-6620,5594,-16,125,-36,1
282004,307,-6608,5509,-16,116,-35,1
282009,261,-6633,5412,-16,110,-35,1
282014,181,-6659,5447,-15,109,-35,1
282019,120,-6687,5465,-15,109,-34,1
282024,43,-6699,5489,-14,105,-34,1
282029,-35,-6672,5518,-14,99,-33,1
282034,-162,-6740,5565,-14,91,-33,1
282039,-161,-6789,5431,-15,86,-33,1
282044,-220,-6787,5555,-14,85,-32,1
282049,-185,-6784,5590,-14,83,-31,1
282054,-229,-6761,5657,-13,80,-31,1
282059,-258,-6716,5687,-12,73,-31,1
282064,-352,-6699,5597,-12,64,-30,1
282069,-356,-6681,5562,-12,57,-29,1
282074,-427,-6711,5479,-12,58,-29,1
282079,-411,-6743,5458,-12,61,-29,1
282084,-526,-6792,5441,-12,65,-28,1
282089,-555,-6846,5434,-12,64,-28,1
282094,-684,-6875,5457,-13,63,-27,1
282099,-683,-6936,5462,-13,59,-27,1
282104,-784,-7010,5496,-13,59,-26,1
282109,-778,-7102,5530,-13,59,-26,1
282114,-844,-7182,5518,-13,58,-26,1
282119,-812,-7241,5596,-14,50,-26,1
282124,-831,-7323,5592,-14,45,-26,1
282129,-766,-7383,5646,-15,43,-25,1
282134,-761,-7437,5667,-15,48,-25,1
282139,-684,-7518,5642,-16,53,-24,1
282144,-674,-7567,5632,-16,57,-24,1
282149,-503,-7437,5649,-17,56,-23,1
282154,-527,-7267,5928,-16,58,-23,1
282158,-292,-7285,5823,-16,61,-24,1
282164,-232,-7232,5805,-16,71,-25,1
282168,-217,-7280,5696,-17,70,-25,1
282173,-340,-7340,5566,-17,66,-25,1
282179,-397,-7391,5532,-17,65,-24,1
282183,-457,-7495,5359,-17,74,-24,1
282189,-522,-7525,5425,-17,88,-24,1
282193,-585,-7609,5263,-17,101,-23,1
282198,-626,-7608,5307,-17,110,-23,1
282203,-656,-7642,5233,-18,116,-23,1
282208,-612,-7655,5132,-18,123,-23,1
282213,-648,-7661,5192,-19,128,-23,1
282218,-615,-7765,5221,-20,125,-24,1
282223,-713,-7835,5395,-20,122,-24,1
282228,-817,-7906,5445,-21,118,-24,1
282233,-962,-7942,5553,-21,117,-24,1
282238,-1084,-7973,5515,-21,119,-23,1
282243,-1110,-7961,5403,-20,126,-22,1
282248,-1123,-7904,5262,-21,140,-21,1
282253,-1015,-7871,5077,-22,158,-21,1
282258,-970,-7832,5024,-22,176,-20,1
282263,-815,-7853,4944,-23,185,-20,1
282268,-744,-7852,5023,-23,186,-19,1
282273,-576,-7834,5013,-22,175,-19,1
282278,-419,-7750,4896,-22,158,-18,1
282283,-283,-7649,4786,-22,138,-19,1
282288,-210,-7610,4592,-22,120,-19,1
282293,-223,-7585,4511,-23,105,-19,1
282298,-313,-7600,4396,-23,93,-19,1
282303,-455,-7602,4368,-23,83,-19,1
282308,-592,-7622,4225,-22,78,-18,1
282313,-712,-7585,4117,-22,77,-18,1
282318,-826,-7577,3987,-22,80,-18,1
282323,-869,-7568,3868,-23,84,-18,1
282328,-974,-7563,3859,-23,88,-17,1
282333,-978,-7632,3815,-24,88,-17,1
282338,-1056,-7655,3891,-24,87,-17,1
282343,-1084,-7697,3849,-24,83,-17,1
282348,-1211,-7726,3680,-23,90,-16,1
282353,-1207,-7667,3435,-22,106,-16,1
282358,-1195,-7591,3165,-23,110,-16,1
282363,-1065,-7568,3019,-24,109,-16,1
282368,-1000,-7593,3140,-25,101,-17,1
282373,-895,-7710,3325,-24,83,-18,1
282378,-922,-7804,3527,-24,60,-18,1
282383,-923,-7846,3553,-23,38,-19,1
282388,-1006,-7807,3497,-24,28,-19,1
282393,-1038,-7774,3334,-25,28,-19,1
282398,-1108,-7749,3265,-26,34,-19,1
282403,-1137,-7805,3264,-26,38,-20,1
282408,-1107,-7741,3265,-26,34,-19,1
282413,-1033,-7692,3306,-25,25,-19,1
282418,-931,-7660,3255,-24,13,-19,1
282423,-798,-7630,3121,-24,3,-19,1
282428,-672,-7493,2963,-24,-3,-19,1
282433,-504,-7381,2750,-24,-9,-20,1
282438,-426,-7271,2723,-24,-20,-20,1
282443,-336,-7243,2763,-24,-40,-19,1
282448,-292,-7212,2914,-23,-65,-19,1
282453,-187,-7160,2998,-22,-90,-18,1
282458,-91,-7079,3064,-21,-111,-17,1
282463,-11,-7001,3073,-21,-127,-17,1
282468,36,-6951,3148,-22,-141,-17,1
282473,22,-6978,3343,-22,-154,-16,1
282478,7,-7017,3557,-22,-167,-15,1
282483,-4,-7011,3766,-21,-183,-14,1
282488,71,-6982,3848,-20,-198,-13,1
282493,153,-6901,3892,-20,-210,-12,1
282498,258,-6852,3920,-20,-221,-11,1
282503,315,-6814,4061,-21,-231,-10,1
282508,355,-6826,4236,-20,-242,-9,1
282513,385,-6848,4451,-19,-252,-7,1
282518,395,-6876,4582,-18,-258,-6,1
282523,410,-6858,4597,-17,-259,-5,1
282528,375,-6828,4621,-17,-254,-4,1
282533,326,-6830,4609,-18,-248,-3,1
282538,188,-6875,4721,-17,-243,-2,1
282543,51,-6981,4754,-16,-238,-1,1
282548,-161,-6939,4758,-14,-231,0,1
282553,-382,-6901,4561,-13,-218,0,1
282558,-655,-6804,4374,-12,-199,0,1
282563,-1015,-6753,4224,-11,-171,1,1
282568,-1503,-6744,4252,-11,-124,1,1
282573,-2080,-6817,4503,-12,-53,2,1
282578,-2519,-6967,4729,-11,8,2,1
282583,-2878,-6933,4847,-8,47,2,1
282588,-2996,-6739,4591,-6,78,3,1
282593,-2885,-6514,4314,-6,111,3,1
282598,-2562,-6389,4196,-6,140,2,1
282603,-2163,-6336,4225,-4,151,2,1
282608,-1742,-6292,4295,-1,144,2,1
282613,-1358,-6539,4187,2,126,2,1
282618,-1123,-6439,4060,5,109,2,1
282623,-1019,-6305,3654,7,91,2,1
282628,-1054,-6154,3458,9,75,2,1
282633,-1066,-6059,3282,10,67,2,1
282638,-1132,-5971,3317,13,66,2,1
282643,-1132,-5926,3308,17,66,2,1
282648,-1210,-5788,3197,20,67,2,1
282652,-1198,-5608,3030,23,65,2,1
282658,-1218,-5506,2832,25,63,2,1
282663,-1142,-5386,2782,27,59,3,1
282668,-1086,-5324,2678,29,56,3,1
282673,-1016,-5232,2740,32,52,3,1
282678,-1009,-5176,2679,35,47,3,1
282683,-1050,-5026,2752,38,41,3,1
282688,-1117,-4929,2672,40,36,3,1
282692,-1183,-4770,2764,43,33,3,1
282697,-1209,-4691,2759,45,32,4,1
282702,-1171,-4580,2774,48,30,4,1
282708,-1065,-4504,2803,51,25,4,1
282712,-888,-4470,2800,54,14,4,1
282717,-691,-4394,2812,57,-2,4,1
282722,-421,-4411,2634,60,-22,4,1
282727,-141,-4507,2469,62,-46,4,1
282732,155,-4702,2271,63,-72,3,1
282737,441,-5020,2159,64,-96,1,1
282742,697,-5481,2058,64,-122,0,1
282747,898,-6114,1996,64,-150,-2,1
282752,1059,-6858,1938,63,-176,-4,1
282757,1137,-7629,2018,62,-199,-7,1
282762,1149,-8339,2162,61,-213,-9,1
282767,1097,-8922,2412,59,-220,-11,1
282772,1002,-9341,2652,57,-223,-13,1
282777,864,-9629,2872,55,-223,-15,1
282782,703,-9828,2997,53,-216,-16,1
282787,540,-9950,3089,50,-200,-18,1
282792,367,-10013,3098,48,-178,-19,1
282797,185,-10027,3082,46,-149,-19,1
282802,-9,-9990,2984,43,-116,-19,1
282807,-162,-9939,2808,42,-84,-19,1
282812,-239,-9907,2554,40,-57,-19,1
282817,-213,-9909,2291,39,-39,-19,1
282822,-115,-9932,2061,37,-32,-20,1
282827,-4,-9972,1930,36,-36,-21,1
282832,62,-10039,1870,35,-46,-22,1
282837,73,-10144,1876,34,-60,-23,1
282842,28,-10285,1916,32,-72,-24,1
282847,-33,-10444,1980,30,-78,-25,1
282852,-85,-10608,2076,28,-77,-26,1
282857,-113,-10766,2204,26,-72,-27,1
282862,-123,-10895,2336,23,-65,-27,1
282867,-121,-10976,2471,21,-59,-28,1
282872,-134,-10999,2586,18,-52,-28,1
282877,-155,-10954,2668,16,-44,-28,1
282882,-161,-10849,2740,13,-36,-28,1
282887,-158,-10677,2800,11,-28,-28,1
282892,-133,-10455,2844,8,-21,-28,1
282897,-86,-10198,2869,6,-15,-28,1
282902,-33,-9924,2875,4,-11,-28,1
282907,27,-9646,2867,2,-10,-27,1
282912,92,-9362,2880,0,-12,-27,1
282917,154,-9077,2910,-2,-14,-27,1
282922,225,-8797,2966,-4,-17,-27,1
282927,295,-8536,3041,-6,-20,-26,1
282932,366,-8311,3123,-8,-22,-26,1
282937,443,-8124,3215,-10,-22,-25,1
282942,524,-7961,3348,-13,-21,-24,1
282947,610,-7823,3499,-15,-19,-23,1
282952,702,-7704,3662,-18,-16,-22,1
282957,801,-7599,3802,-20,-11,-21,1
282962,901,-7516,3900,-23,-5,-19,1
282967,989,-7457,3964,-25,1,-18,1
282972,1045,-7420,4003,-28,7,-16,1
282977,1067,-7394,4026,-30,13,-15,1
282982,1051,-7777,4028,-32,19,-14,1
282987,222,-9007,1113,-40,26,-11,1
282992,1012,-10060,3293,-29,10,-15,1
282997,945,-9823,5163,-14,38,-15,1
283002,829,-9667,6380,6,22,-19,1
283007,666,-8731,7292,12,-7,-22,1
283012,431,-7762,6533,8,-51,-24,1
283017,296,-7026,5465,1,-115,-24,1
283022,651,-6626,4905,-1,-160,-22,1
283027,434,-6444,4267,-6,-157,-15,1
283032,1191,-6511,3845,-9,-123,-16,1
283037,1345,-6828,3655,-10,-46,-15,1
283042,1738,-7325,3694,-10,-8,-16,1
283047,1603,-7682,3960,-9,-7,-15,1
283052,1921,-7858,4412,-9,-26,-15,1
283057,2009,-7960,4705,-9,-32,-16,1
283062,2196,-8069,4864,-10,-44,-17,1
283067,2381,-8091,4927,-12,-51,-17,1
283072,2565,-8051,5027,-14,-53,-17,1
283077,2635,-8064,5114,-15,-48,-17,1
283082,2681,-8046,5195,-16,-38,-16,1
283087,2685,-7985,5304,-16,-21,-16,1
283092,2649,-7859,5327,-17,-3,-15,1
283097,2616,-7743,5413,-17,10,-15,1
283102,2623,-7666,5424,-17,16,-14,1
283107,2638,-7599,5361,-17,19,-14,1
283112,2669,-7543,5290,-17,17,-13,1
283117,2740,-7501,5155,-17,12,-13,1
283122,2826,-7454,5059,-18,8,-13,1
283127,2922,-7403,4959,-18,5,-13,1
283132,3015,-7358,4911,-19,2,-14,1
283137,3070,-7315,4917,-19,1,-14,1
283142,3116,-7281,4904,-19,-1,-14,1
283147,3144,-7266,4918,-19,-4,-14,1
283152,3144,-7270,4924,-19,-7,-13,1
283157,3129,-7277,4882,-19,-8,-13,1
283161,3100,-7290,4825,-19,-8,-13,1
283166,3064,-7300,4777,-19,-8,-13,1
283172,3032,-7297,4686,-19,-7,-13,1
283176,2988,-7294,4598,-19,-6,-13,1
283182,2947,-7294,4518,-19,-6,-13,1
283187,2916,-7288,4409,-20,-6,-12,1
283191,2882,-7296,4317,-20,-6,-12,1
283196,2851,-7305,4219,-20,-7,-12,1
283201,2850,-7313,4119,-20,-9,-12,1
283206,2839,-7316,4013,-19,-10,-12,1
283211,2851,-7307,3915,-19,-11,-12,1
283216,2902,-7283,3850,-19,-11,-11,1
283221,2953,-7249,3801,-19,-9,-11,1
283226,3036,-7198,3756,-19,-6,-10,1
283231,3171,-7138,3760,-19,0,-10,1
283236,3318,-7074,3792,-19,10,-9,1
283241,3511,-7001,3859,-19,21,-8,1
283246,3728,-6926,3965,-19,34,-8,1
283251,3966,-6863,4070,-19,47,-7,1
283256,4255,-6821,4162,-19,59,-7,1
283261,4507,-6828,4207,-19,68,-7,1
283266,4702,-6871,4231,-19,71,-6,1
283271,4826,-6941,4247,-19,71,-6,1
283276,4881,-7036,4261,-19,71,-5,1
283281,4899,-7116,4259,-19,72,-4,1
283286,4898,-7176,4288,-19,75,-3,1
283291,4892,-7227,4278,-19,78,-3,1
283296,4889,-7247,4228,-19,79,-2,1
283301,4897,-7249,4207,-19,79,-1,1
283306,4911,-7253,4149,-19,78,-1,1
283311,4935,-7262,4093,-19,76,0,1
283316,4971,-7294,4047,-19,75,0,1
283321,4990,-7334,3996,-19,76,1,1
283326,5003,-7365,3979,-19,79,1,1
283331,5000,-7392,3986,-20,86,2,1
283336,4950,-7405,3975,-20,95,3,1
283341,4878,-7402,4006,-20,105,3,1
283346,4776,-7391,4034,-20,116,4,1
283351,4653,-7370,4051,-20,125,5,1
283356,4512,-7339,4069,-20,133,5,1
283361,4391,-7318,4098,-20,139,6,1
283366,4270,-7299,4133,-20,141,6,1
283371,4163,-7283,4175,-20,141,6,1
283376,4065,-7274,4221,-20,139,6,1
283381,3979,-7267,4268,-20,135,6,1
283386,3896,-7266,4295,-20,128,6,1
283391,3781,-7276,4293,-20,121,5,1
283396,3629,-7291,4304,-20,116,5,1
283401,3458,-7311,4294,-20,113,5,1
283406,3268,-7337,4293,-20,111,5,1
283411,3067,-7357,4291,-21,110,5,1
283416,2879,-7373,4293,-21,110,5,1
283421,2693,-7394,4291,-21,109,4,1
283426,2511,-7409,4285,-21,109,4,1
283431,2352,-7425,4281,-21,108,4,1
283436,2199,-7438,4259,-21,106,4,1
283441,2055,-7442,4221,-21,103,3,1
283446,1918,-7448,4162,-20,100,3,1
283451,1768,-7460,4093,-20,97,2,1
283456,1620,-7472,4011,-20,94,2,1
283461,1471,-7491,3916,-20,91,1,1
283466,1315,-7513,3816,-20,88,0,1
283471,1164,-7505,3692,-20,84,0,1
283476,1020,-7486,3591,-19,78,-1,1
283481,876,-7479,3493,-19,73,-1,1
283486,739,-7487,3392,-18,68,-2,1
283491,608,-7510,3306,-18,63,-3,1
283496,477,-7539,3254,-18,58,-3,1
283501,371,-7560,3224,-18,52,-4,1
283506,286,-7590,3213,-18,48,-5,1
283511,205,-7612,3214,-18,44,-6,1
283516,137,-7637,3204,-18,39,-7,1
283521,61,-7668,3208,-18,35,-7,1
283526,-46,-7694,3252,-18,29,-8,1
283531,-167,-7698,3301,-17,22,-8,1
283536,-309,-7690,3358,-17,14,-9,1
283541,-439,-7683,3391,-16,7,-9,1
283546,-545,-7684,3368,-16,3,-10,1
283551,-623,-7682,3328,-16,2,-11,1
283556,-669,-7679,3264,-16,1,-11,1
283561,-687,-7675,3181,-16,0,-12,1
283566,-706,-7674,3131,-15,-2,-13,1
283571,-735,-7670,3078,-15,-5,-14,1
283576,-773,-7663,3010,-15,-8,-14,1
283581,-821,-7651,2942,-14,-13,-15,1
283586,-857,-7633,2848,-14,-19,-16,1
283591,-872,-7619,2738,-13,-26,-17,1
283596,-873,-7612,2650,-13,-34,-18,1
283601,-842,-7618,2582,-12,-43,-18,1
283606,-791,-7630,2545,-12,-49,-19,1
283611,-729,-7638,2566,-12,-54,-20,1
283616,-663,-7638,2610,-12,-58,-20,1
283621,-607,-7643,2665,-12,-61,-21,1
283626,-556,-7646,2746,-11,-65,-22,1
283631,-502,-7643,2815,-11,-71,-22,1
283636,-434,-7641,2885,-11,-77,-23,1
283641,-325,-7648,2966,-11,-86,-24,1
283646,-165,-7645,3055,-12,-99,-24,1
283650,-10,-7632,3120,-12,-114,-25,1
283656,142,-7620,3200,-12,-128,-25,1
283660,281,-7617,3224,-12,-138,-26,1
283666,399,-7608,3236,-12,-146,-27,1
283671,496,-7594,3223,-12,-151,-27,1
283675,589,-7583,3191,-13,-154,-27,1
283680,663,-7580,3165,-13,-153,-27,1
283685,733,-7581,3148,-14,-150,-27,1
283690,819,-7586,3145,-14,-143,-26,1
283695,909,-7595,3160,-14,-133,-26,1
283700,1016,-7594,3166,-15,-123,-25,1
283705,1144,-7593,3160,-15,-116,-25,1
283710,1270,-7597,3164,-15,-112,-25,1
283715,1403,-7597,3145,-16,-110,-25,1
283720,1549,-7586,3122,-16,-112,-25,1
283725,1704,-7574,3100,-16,-114,-24,1
283730,1846,-7566,3067,-17,-118,-24,1
283735,1992,-7561,3074,-17,-121,-24,1
283740,2127,-7569,3086,-17,-124,-24,1
283745,2246,-7583,3107,-18,-127,-24,1
283750,2352,-7579,3143,-18,-129,-24,1
283755,2446,-7556,3185,-19,-131,-24,1
283760,2542,-7537,3229,-19,-134,-23,1
283765,2620,-7528,3279,-20,-135,-23,1
283770,2703,-7532,3319,-20,-134,-23,1
283775,2759,-7541,3352,-21,-132,-22,1
283780,2809,-7541,3367,-21,-127,-22,1
283785,2826,-7529,3363,-22,-121,-21,1
283790,2851,-7514,3334,-23,-115,-21,1
283795,2853,-7508,3283,-23,-108,-20,1
283800,2859,-7512,3205,-23,-103,-20,1
283805,2846,-7510,3085,-24,-98,-19,1
283810,2839,-7485,2936,-24,-95,-19,1
283815,2841,-7460,2756,-24,-91,-19,1
283820,2849,-7461,2565,-24,-86,-18,1
283825,2859,-7479,2383,-24,-79,-18,1
283830,2877,-7491,2224,-25,-73,-17,1
283835,2937,-7519,2110,-25,-65,-16,1
283840,2988,-7556,2021,-26,-56,-16,1
283845,3081,-7557,1967,-26,-46,-15,1
283850,3204,-7531,1951,-26,-36,-14,1
283855,3352,-7503,1946,-26,-27,-14,1
283860,3523,-7481,1951,-26,-21,-13,1
283865,3673,-7463,1948,-26,-18,-13,1
283870,3794,-7449,1937,-26,-17,-13,1
283875,3870,-7433,1924,-26,-20,-13,1
283880,3901,-7419,1910,-27,-25,-13,1
283885,3898,-7404,1889,-27,-31,-13,1
283890,3861,-7388,1876,-27,-38,-13,1
283895,3805,-7370,1862,-28,-45,-13,1
283900,3735,-7355,1842,-28,-50,-13,1
283905,3657,-7345,1789,-28,-55,-13,1
283910,3586,-7335,1686,-27,-60,-13,1
283915,3517,-7332,1525,-27,-64,-13,1
283920,3412,-7322,1360,-26,-69,-13,1
283925,3300,-7318,1155,-26,-73,-12,1
283930,3215,-7363,911,-25,-74,-12,1
283935,3144,-7425,631,-25,-68,-12,1
283940,3128,-7448,341,-25,-59,-12,1
283945,3132,-7439,95,-26,-47,-12,1
283950,3134,-7426,-59,-27,-36,-12,1
283955,3134,-7422,-125,-27,-25,-11,1
283960,3116,-7429,-108,-27,-14,-11,1
283965,3094,-7440,-42,-26,-5,-11,1
283970,3065,-7453,26,-26,0,-11,1
283975,3039,-7463,57,-25,-1,-11,1
283980,3018,-7485,46,-25,-8,-11,1
283985,3001,-7521,-21,-25,-19,-12,1
283990,2989,-7581,-145,-24,-32,-12,1
283995,2948,-7667,-292,-24,-44,-12,1
284000,2884,-7767,-467,-23,-55,-12,1
284005,2852,-7872,-663,-22,-64,-12,1
284010,2797,-7977,-844,-21,-69,-12,1
284015,2745,-8079,-1008,-20,-73,-12,1
284020,2661,-8174,-1140,-19,-75,-11,1
284025,2582,-8264,-1242,-18,-77,-11,1
284030,2479,-8350,-1297,-17,-77,-10,1
284035,2401,-8425,-1318,-16,-76,-9,1
284040,2298,-8498,-1298,-15,-75,-8,1
284045,2227,-8570,-1278,-14,-74,-7,1
284050,2228,-8624,-1275,-13,-71,-6,1
284055,2261,-8676,-1311,-12,-66,-5,1
284060,2240,-8755,-1315,-12,-63,-5,1
284065,2299,-8817,-1358,-11,-64,-4,1
284070,2467,-8847,-1430,-10,-61,-3,1
284075,2630,-8860,-1475,-10,-55,-3,1
284080,2772,-8834,-1458,-10,-54,-3,1
284085,2785,-8818,-1415,-9,-55,-2,1
284090,2711,-8848,-1339,-8,-58,-1,1
284095,2802,-8837,-1436,-8,-54,0,1
284100,2996,-8770,-1546,-8,-41,-1,1
284105,3073,-8678,-1543,-8,-36,0,1
284110,3057,-8576,-1446,-7,-46,1,1
284115,2918,-8498,-1303,-6,-57,2,1
284120,2891,-8472,-1211,-5,-59,3,1
284125,2829,-8496,-1127,-5,-51,4,1
284130,2991,-8492,-1135,-6,-41,4,1
284135,3379,-8411,-1220,-7,-29,4,1
284140,2935,-8175,-1100,-7,-24,3,1
284145,3519,-7982,-884,-7,-56,3,1
284149,5356,-7807,-1144,-8,-14,-5,1
284154,5740,-7764,-860,-8,55,-13,1
284160,6211,-7539,-984,-8,13,-18,1
284164,5646,-7293,-928,-8,-55,-16,1
284169,5081,-7105,-906,-8,-124,-13,1
284175,4476,-7024,-576,-8,-143,-9,1
284179,4129,-6983,-294,-8,-118,-7,1
284184,3722,-6969,-34,-7,-70,-6,1
284190,3477,-6930,-8,-7,-33,-4,1
284194,3099,-6993,52,-7,-14,-1,1
284199,2762,-7085,75,-6,-17,2,1
284204,3323,-7150,-113,-7,-10,3,1
284209,3850,-7267,-246,-8,23,1,1
284214,4528,-7296,-404,-9,32,-2,1
284219,5011,-7214,-627,-10,21,-4,1
284224,5153,-7090,-756,-10,-8,-5,1
284229,5000,-6988,-776,-10,-40,-5,1
284234,4677,-6949,-691,-10,-60,-4,1
284239,4346,-6958,-576,-9,-59,-2,1
284244,4081,-7020,-474,-9,-40,-2,1
284249,3854,-7069,-396,-9,-19,-1,1
284254,3762,-7081,-419,-10,-6,-1,1
284259,3749,-7100,-417,-10,-2,0,1
284264,3762,-7115,-454,-10,-6,0,1
284269,3810,-7158,-482,-10,-15,1,1
284274,3936,-7222,-588,-10,-20,1,1
284279,4060,-7266,-699,-10,-20,0,1
284284,4129,-7280,-814,-11,-21,-1,1
284289,4141,-7272,-858,-11,-24,-1,1
284294,4011,-7237,-893,-11,-30,-1,1
284299,3846,-7225,-881,-10,-37,0,1
284304,3660,-7234,-868,-10,-38,1,1
284309,3466,-7281,-823,-10,-33,1,1
284314,3391,-7321,-842,-10,-29,2,1
284319,3403,-7303,-893,-10,-21,2,1
284324,2808,-7402,-665,-10,-17,2,1
284329,3240,-7425,-762,-9,-33,3,1
284334,3714,-7394,-1138,-11,-10,0,1
284339,3803,-7418,-1004,-11,3,-2,1
284344,4042,-7262,-1309,-11,-18,-3,1
284349,3536,-7219,-977,-10,-42,-1,1
284354,3424,-7182,-1138,-9,-72,1,1
284359,3289,-7222,-1198,-10,-58,1,1
284364,3375,-7260,-1458,-12,-28,1,1
284369,3293,-7251,-1434,-13,-7,1,1
284374,3272,-7195,-1391,-13,-12,3,1
284379,2970,-7179,-1001,-11,-24,5,1
284384,2943,-7191,-891,-9,-36,7,1
284389,2833,-7257,-640,-8,-30,9,1
284394,2707,-7699,-571,-8,-21,10,1
284399,2651,-8038,-464,-8,-20,12,1
284404,3151,-8119,-1055,-10,-4,11,1
284409,3304,-8304,-959,-12,16,10,1
284414,3717,-8174,-1336,-13,6,9,1
284419,3721,-8111,-1160,-12,-8,9,1
284424,3653,-8001,-1326,-12,-29,10,1
284429,3627,-7977,-1264,-11,-36,11,1
284434,3429,-7978,-1296,-11,-30,12,1
284439,3503,-7943,-1315,-11,-23,12,1
284444,3347,-7959,-1267,-11,-12,13,1
284449,3395,-7889,-1240,-11,-11,13,1
284454,3254,-7918,-1217,-11,-9,14,1
284459,3330,-7940,-1147,-11,-11,14,1
284464,3300,-7968,-1159,-11,-9,15,1
284469,3399,-8027,-1071,-11,-11,15,1
284474,3425,-8063,-1114,-11,-10,16,1
284479,3425,-8088,-1041,-11,-13,16,1
284484,3413,-8107,-1107,-11,-15,17,1
284489,3439,-8121,-1075,-11,-15,18,1
284494,3411,-8126,-1126,-11,-11,19,1
284499,3440,-8180,-1072,-11,-7,20,1
284504,3483,-8192,-1180,-11,-2,21,1
284509,3477,-8208,-1220,-10,0,21,1
284514,3463,-8210,-1261,-10,-1,22,1
284519,3477,-8202,-1345,-10,0,23,1
284524,3468,-8213,-1421,-10,1,23,1
284529,3493,-8212,-1464,-9,0,24,1
284534,3478,-8204,-1520,-9,1,24,1
284539,3466,-8196,-1579,-8,-1,25,1
284544,3437,-8217,-1545,-8,-4,26,1
284549,3406,-8206,-1602,-7,-6,26,1
284554,3396,-8235,-1628,-7,-9,27,1
284559,3377,-8263,-1657,-6,-9,27,1
284564,3341,-8278,-1684,-6,-9,27,1
284569,3284,-8317,-1680,-5,-10,28,1
284574,3259,-8336,-1668,-4,-12,29,1
284579,3171,-8364,-1677,-4,-13,29,1
284584,3119,-8402,-1648,-3,-16,30,1
284589,3059,-8433,-1647,-2,-17,30,1
284594,2982,-8428,-1637,-2,-18,31,1
284599,2886,-8417,-1596,-1,-19,31,1
284604,2799,-8398,-1575,0,-19,31,1
284609,2675,-8410,-1590,1,-17,32,1
284614,2636,-8409,-1637,1,-15,32,1
284619,2560,-8431,-1658,2,-12,33,1
284624,2487,-8430,-1671,2,-11,33,1
284629,2465,-8426,-1691,3,-12,33,1
284634,2412,-8436,-1677,4,-12,33,1
284639,2336,-8439,-1642,5,-14,34,1
284643,2280,-8443,-1610,6,-15,34,1
284648,2244,-8452,-1567,6,-15,34,1
284653,2173,-8448,-1499,7,-15,34,1
284659,2151,-8429,-1451,8,-17,34,1
284663,2134,-8379,-1447,9,-19,34,1
284669,2143,-8521,-1589,9,-21,35,1
284673,2040,-8591,-1387,11,-25,35,1
284679,2261,-8457,-1760,10,-24,35,1
284684,2137,-8461,-1671,11,-18,35,1
284689,2223,-8380,-1771,13,-24,34,1
284694,2103,-8343,-1722,13,-28,35,1
284698,1988,-8276,-1846,15,-37,35,1
284703,1909,-8222,-1926,16,-43,33,1
284708,1779,-8186,-1962,17,-47,33,1
284713,1717,-8141,-2083,18,-50,33,1
284718,1633,-8125,-2034,19,-51,32,1
284723,1598,-8044,-2074,20,-48,32,1
284728,1563,-8046,-1981,21,-42,32,1
284733,1548,-8029,-1997,22,-34,32,1
284738,1492,-8039,-1961,23,-26,32,1
284743,1451,-8037,-1965,23,-21,32,1
284748,1424,-8045,-1918,24,-15,33,1
284753,1376,-8039,-1806,25,-10,33,1
284758,1406,-8035,-1743,26,-5,33,1
284763,1369,-8059,-1561,27,2,33,1
284768,1362,-8023,-1502,27,10,34,1
284773,1330,-8025,-1350,28,19,34,1
284778,1344,-8041,-1413,28,28,35,1
284783,1265,-8008,-1316,29,36,35,1
284788,1200,-7954,-1341,30,41,35,1
284793,1153,-7975,-1335,31,47,35,1
284798,1134,-7976,-1475,32,53,35,1
284803,1109,-7974,-1536,33,60,35,1
284808,1086,-7949,-1600,33,67,35,1
284813,1044,-7918,-1642,34,73,35,1
284818,1011,-7871,-1618,35,78,35,1
284823,972,-7843,-1626,36,83,35,1
284828,949,-7820,-1629,36,86,35,1
284833,937,-7780,-1655,37,89,35,1
284838,918,-7757,-1647,38,92,35,1
284843,824,-7718,-1687,38,93,35,1
284848,695,-7687,-1754,38,91,35,1
284853,623,-7696,-1780,39,89,35,1
284858,565,-7691,-1734,39,86,34,1
284863,544,-7589,-1696,40,82,34,1
284868,563,-8086,-1740,41,76,33,1
284873,598,-7965,-1503,43,69,34,1
284878,810,-7693,-2041,41,65,31,1
284883,799,-7480,-1681,43,60,30,1
284888,751,-7463,-1659,43,49,30,1
284893,670,-7466,-1028,47,34,31,1
284898,436,-7391,-1162,47,22,29,1
284903,453,-7692,-1077,47,15,27,1
284908,161,-7492,-1160,47,19,28,1
284913,349,-7288,-1126,46,19,25,1
284918,216,-7104,-910,47,24,26,1
284923,356,-7215,-495,49,17,25,1
284928,240,-7313,-439,51,12,25,1
284933,286,-7338,-440,51,2,23,1
284938,146,-7332,-566,50,1,23,1
284943,218,-7281,-571,50,-1,22,1
284948,147,-7259,-422,52,1,21,1
284953,248,-7241,-445,53,-3,20,1
284958,144,-7319,-398,54,-5,20,1
284963,180,-7203,-466,54,-11,19,1
284968,70,-7162,-334,55,-13,18,1
284973,125,-7153,-268,55,-16,17,1
284978,59,-7143,-158,56,-16,17,1
284983,61,-7138,-100,56,-17,16,1
284988,-70,-7037,-24,57,-18,15,1
284993,-84,-7061,10,57,-19,14,1
284998,-193,-7025,136,57,-18,14,1
285003,-171,-7080,179,58,-17,13,1
285008,-252,-6997,274,58,-16,12,1
285013,-261,-7034,402,58,-19,11,1
285018,-288,-6954,324,58,-21,10,1
285023,-287,-6924,543,58,-24,9,1
285028,-279,-7089,461,58,-26,9,1
285033,-243,-7131,627,59,-29,8,1
285038,-211,-7094,487,58,-31,7,1
285043,-180,-7102,661,58,-37,6,1
285048,-139,-7012,615,58,-41,6,1
285053,-84,-7029,779,58,-45,5,1
285058,-33,-7097,690,58,-46,4,1
285063,-19,-7024,927,58,-49,4,1
285068,31,-7124,825,58,-52,3,1
285073,62,-7150,1028,58,-56,2,1
285078,142,-7082,974,57,-60,2,1
285083,165,-7087,1171,58,-65,1,1
285088,202,-7063,1036,57,-70,0,1
285093,182,-7020,1195,58,-75,-1,1
285098,199,-7142,1035,57,-80,-1,1
285103,158,-7135,1292,58,-84,-2,1
285108,214,-6984,1150,57,-88,-3,1
285113,223,-6882,1417,57,-92,-4,1
285118,283,-7073,1392,57,-98,-5,1
