millis,ax,ay,az,gx,gy,gz,label
154275,206,-8281,691,-1,-4,-2,0
154280,214,-8281,694,-1,-4,-2,1
154285,222,-8277,697,-1,-3,-2,1
154290,233,-8273,700,-1,-3,-2,1
154295,241,-8273,700,-1,-3,-2,1
154300,248,-8276,700,-1,-3,-2,1
154305,254,-8276,701,-1,-3,-2,1
154310,257,-8276,702,-1,-3,-2,1
154315,259,-8277,701,-1,-3,-2,1
154320,257,-8280,702,-1,-3,-2,1
154325,254,-8279,705,-1,-2,-2,1
154330,251,-8278,707,-1,-2,-2,1
154335,249,-8279,712,-1,-2,-2,1
154340,249,-8280,715,-1,-2,-2,1
154345,250,-8283,715,-1,-2,-2,1
154350,250,-8283,713,-1,-2,-2,1
154355,255,-8284,712,-1,-2,-2,1
154360,255,-8283,714,-1,-3,-2,1
154365,256,-8282,712,-1,-3,-2,1
154370,258,-8281,717,-1,-2,-2,1
154375,259,-8281,724,-1,-2,-2,1
154380,262,-8281,733,-1,-2,-2,1
154385,263,-8280,731,-1,-2,-2,1
154390,259,-8281,734,-1,-2,-2,1
154395,256,-8280,728,-1,-2,-2,1
154400,255,-8279,718,-1,-2,-2,1
154405,252,-8279,713,-1,-2,-2,1
154410,249,-8280,711,-1,-2,-2,1
154415,249,-8280,705,-1,-3,-2,1
154420,249,-8278,695,-1,-3,-2,1
154425,248,-8276,696,-1,-3,-2,1
154430,244,-8275,692,-1,-3,-2,1
154435,241,-8273,691,-1,-3,-2,1
154440,238,-8275,692,-1,-3,-2,1
154445,233,-8275,697,-1,-3,-2,1
154450,231,-8274,703,-1,-3,-2,1
154455,229,-8273,708,-1,-3,-2,1
154460,225,-8271,716,-1,-3,-2,1
154465,220,-8271,719,-1,-2,-2,1
154470,214,-8273,726,-1,-2,-2,1
154475,212,-8273,729,-1,-2,-2,1
154480,212,-8275,730,-1,-2,-2,1
154485,216,-8275,727,-1,-2,-2,1
154490,222,-8275,720,-1,-2,-2,1
154495,223,-8273,712,-1,-2,-2,1
154500,223,-8271,707,-1,-2,-2,1
154505,223,-8271,704,-1,-3,-2,1
154510,223,-8271,703,-1,-3,-2,1
154515,224,-8272,702,-1,-3,-2,1
154520,225,-8273,700,-1,-3,-2,1
154525,230,-8270,692,-1,-3,-2,1
154530,240,-8270,693,-1,-3,-2,1
154535,247,-8273,691,-1,-3,-2,1
154540,253,-8274,682,-1,-3,-2,1
154545,252,-8274,675,-1,-3,-2,1
154550,245,-8275,676,-1,-3,-2,1
154555,239,-8276,682,-1,-3,-2,1
154560,233,-8276,691,-1,-3,-2,1
154565,228,-8273,701,-1,-2,-2,1
154570,227,-8270,701,-1,-2,-2,1
154575,233,-8270,703,-1,-2,-2,1
154580,239,-8270,707,-1,-2,-2,1
154585,240,-8270,711,-1,-2,-2,1
154590,242,-8270,716,-1,-2,-2,1
154595,240,-8272,720,-1,-2,-2,1
154600,238,-8270,729,-1,-2,-2,1
154605,235,-8272,730,-1,-2,-2,1
154610,232,-8274,731,-1,-2,-2,1
154615,231,-8274,727,-1,-2,-1,1
154620,235,-8275,722,-1,-2,-1,1
154625,239,-8276,716,-1,-2,-2,1
154630,239,-8276,713,-1,-2,-2,1
154635,236,-8275,714,-1,-2,-1,1
154640,232,-8273,722,-1,-2,-2,1
154645,229,-8272,734,-1,-2,-2,1
154650,226,-8277,741,-1,-2,-1,1
154655,221,-8277,748,-1,-2,-2,1
154660,219,-8276,757,-1,-2,-1,1
154665,219,-8275,754,-1,-2,-1,1
154670,217,-8276,748,-1,-2,-2,1
154675,214,-8276,742,-1,-2,-2,1
154680,210,-8275,736,-1,-2,-2,1
154685,208,-8276,728,-1,-2,-2,1
154690,209,-8273,725,-1,-2,-1,1
154695,209,-8275,718,-1,-2,-2,1
154700,210,-8274,716,-1,-2,-1,1
154705,209,-8275,714,-1,-2,-1,1
154710,210,-8277,704,-1,-2,-2,1
154715,211,-8276,703,-1,-2,-2,1
154720,214,-8276,699,-1,-2,-2,1
154725,218,-8279,696,-1,-2,-2,1
154730,222,-8279,698,-1,-2,-1,1
154735,222,-8279,702,-1,-2,-1,1
154740,225,-8279,706,-1,-2,-1,1
154745,227,-8280,706,-1,-2,-2,1
154750,229,-8282,709,-1,-2,-2,1
154755,233,-8283,717,-1,-2,-1,1
154760,235,-8284,714,-1,-2,-2,1
154765,234,-8285,713,-1,-2,-2,1
154770,231,-8284,709,-1,-2,-2,1
154775,228,-8281,702,-1,-2,-2,1
154780,226,-8281,691,-1,-2,-1,1
154785,227,-8281,692,-1,-2,-2,1
154790,225,-8280,694,-1,-2,-1,1
154795,226,-8278,700,-1,-2,-1,1
154800,226,-8279,707,-1,-2,-1,1
154805,225,-8278,710,-1,-3,-1,1
154810,224,-8277,716,-1,-3,-2,1
154815,224,-8281,713,-1,-3,-1,1
154820,225,-8283,711,-1,-2,-2,1
154825,225,-8283,711,-1,-2,-1,1
154830,229,-8284,709,-1,-2,-1,1
154835,231,-8281,710,-1,-2,-1,1
154840,237,-8279,710,-1,-2,-1,1
154845,238,-8279,713,-1,-2,-1,1
154850,237,-8279,713,-1,-2,-2,1
154855,230,-8280,710,-1,-2,-1,1
154860,224,-8281,712,-1,-1,-2,1
154865,222,-8278,710,-1,-1,-2,1
154870,223,-8279,709,-1,-2,-2,1
154875,221,-8279,699,-1,-2,-1,1
154880,217,-8281,693,-1,-2,-1,1
154885,215,-8278,690,-1,-2,-1,1
154890,215,-8278,690,-1,-2,-1,1
154895,213,-8278,692,-1,-2,-1,1
154900,213,-8276,696,-1,-2,-1,1
154905,213,-8276,698,-1,-2,-1,1
154910,212,-8278,695,-1,-2,-1,1
154915,213,-8276,696,-1,-2,-1,1
154920,213,-8275,700,-1,-2,-1,1
154925,214,-8276,702,-1,-2,-1,1
154930,212,-8276,702,-1,-2,-1,1
154935,212,-8276,705,-1,-2,-1,1
154940,215,-8277,709,-1,-2,-2,1
154945,213,-8277,713,-1,-2,-1,1
154950,210,-8274,713,-1,-2,-2,1
154955,207,-8273,716,-1,-2,-2,1
154959,207,-8274,721,-1,-2,-1,1
154965,211,-8272,726,-1,-2,-1,1
154969,209,-8274,725,-1,-2,-1,1
154975,213,-8273,722,-1,-2,-1,1
154979,217,-8274,722,-1,-2,-1,1
154984,220,-8275,718,-1,-2,-2,1
154989,225,-8276,715,-1,-2,-1,1
154995,225,-8277,713,-1,-2,-2,1
154999,223,-8279,715,-1,-1,-1,1
155005,223,-8279,713,-1,-1,-1,1
155010,221,-8280,717,-1,-2,-1,1
155015,217,-8280,725,-1,-2,-1,1
155019,214,-8280,728,-1,-2,-1,1
155025,211,-8281,729,-1,-2,-1,1
155030,211,-8279,727,-1,-2,-2,1
155035,212,-8278,722,-1,-2,-1,1
155039,209,-8277,722,-1,-2,-1,1
155044,209,-8278,718,-1,-2,-1,1
155050,208,-8279,715,-1,-2,-1,1
155054,205,-8278,713,-1,-2,-1,1
155059,203,-8278,716,-1,-2,-1,1
155064,201,-8276,719,-1,-2,-1,1
155070,202,-8274,723,-1,-2,-1,1
155075,203,-8275,722,-1,-2,-2,1
155080,205,-8273,725,-1,-2,-2,1
155084,206,-8275,726,-1,-2,-2,1
155089,205,-8274,721,-1,-2,-2,1
155095,202,-8274,721,-1,-2,-2,1
155099,199,-8274,720,-1,-2,-2,1
155104,199,-8275,714,-1,-1,-2,1
155109,199,-8277,717,-1,-1,-2,1
155115,197,-8278,724,-1,-1,-2,1
155119,194,-8278,725,-1,-2,-2,1
155124,191,-8279,723,-1,-2,-2,1
155129,188,-8280,722,-1,-2,-2,1
155134,187,-8282,715,-1,-2,-2,1
155139,185,-8281,708,-1,-2,-2,1
155144,183,-8282,704,-1,-3,-2,1
155149,183,-8283,700,-1,-2,-2,1
155154,185,-8281,700,-1,-2,-2,1
155160,188,-8279,708,-1,-2,-2,1
155164,196,-8276,714,-1,-2,-2,1
155169,203,-8275,716,-1,-2,-2,1
155174,206,-8275,721,-1,-2,-2,1
155179,211,-8277,721,-1,-2,-2,1
155184,216,-8280,717,-1,-2,-1,1
155189,217,-8281,709,-1,-2,-2,1
155194,213,-8282,704,-1,-2,-2,1
155199,214,-8279,696,-1,-2,-2,1
155204,212,-8279,694,-1,-2,-2,1
155209,209,-8278,686,-1,-2,-2,1
155214,207,-8278,686,-1,-2,-2,1
155219,210,-8272,684,-1,-2,-1,1
155224,212,-8270,686,-1,-2,-1,1
155229,210,-8272,679,-1,-2,-2,1
155234,208,-8273,677,-1,-2,-2,1
155239,206,-8273,675,-1,-2,-2,1
155244,206,-8274,677,-1,-2,-2,1
155249,204,-8275,678,-1,-2,-2,1
155254,205,-8276,686,-1,-2,-2,1
155259,210,-8274,688,-1,-2,-2,1
155264,212,-8275,689,-1,-2,-2,1
155269,212,-8276,688,-1,-2,-2,1
155274,212,-8279,682,-1,-2,-2,1
155279,207,-8282,680,-1,-2,-2,1
155284,203,-8284,679,-1,-2,-1,1
155289,198,-8288,686,-1,-2,-2,1
155294,196,-8287,693,-1,-2,-2,1
155299,198,-8285,708,-1,-2,-2,1
155304,199,-8285,719,-1,-2,-2,1
155309,202,-8282,722,-1,-2,-2,1
155314,203,-8282,724,-1,-2,-2,1
155319,202,-8283,725,-1,-2,-2,1
155324,198,-8283,720,-1,-2,-2,1
155329,193,-8282,720,-1,-2,-2,1
155334,186,-8283,720,-1,-2,-2,1
155339,181,-8286,722,-1,-2,-2,1
155344,179,-8286,722,-1,-2,-2,1
155349,178,-8285,717,-1,-2,-2,1
155354,178,-8286,715,-1,-2,-2,1
155359,180,-8286,714,-1,-2,-2,1
155364,181,-8284,708,-1,-2,-2,1
155369,182,-8285,703,-1,-2,-2,1
155374,184,-8284,698,-1,-2,-2,1
155379,188,-8283,698,-1,-2,-2,1
155384,190,-8283,699,-1,-2,-2,1
155389,193,-8283,701,-1,-2,-2,1
155394,197,-8284,701,-1,-2,-2,1
155399,198,-8283,703,-1,-2,-2,1
155404,201,-8284,705,-1,-2,-2,1
155409,205,-8284,708,-1,-2,-2,1
155414,207,-8284,705,-1,-2,-2,1
155419,204,-8281,703,-1,-2,-2,1
155424,203,-8278,696,-1,-2,-2,1
155429,204,-8276,697,-1,-2,-2,1
155434,201,-8276,695,-1,-2,-2,1
155439,199,-8275,699,-1,-2,-2,1
155444,194,-8271,701,-1,-2,-2,1
155449,190,-8270,700,-1,-2,-2,1
155454,187,-8274,699,-1,-2,-2,1
155459,185,-8274,699,-1,-2,-2,1
155464,185,-8275,695,-1,-2,-2,1
155469,183,-8275,697,-1,-2,-2,1
155474,183,-8275,701,-1,-2,-2,1
155479,182,-8273,695,-1,-2,-2,1
155484,184,-8274,691,-1,-2,-2,1
155489,183,-8271,688,-1,-2,-2,1
155494,182,-8271,678,-1,-2,-2,1
155499,182,-8268,676,-1,-2,-2,1
155504,186,-8270,682,-1,-2,-2,1
155509,188,-8271,683,-1,-2,-2,1
155514,188,-8273,684,-1,-2,-2,1
155519,193,-8277,691,-1,-3,-2,1
155524,194,-8275,696,-1,-2,-2,1
155529,192,-8274,701,-1,-2,-2,1
155534,193,-8274,704,-1,-3,-2,1
155539,193,-8273,709,-1,-3,-2,1
155544,195,-8273,708,-1,-3,-2,1
155549,197,-8274,706,-1,-3,-2,1
155554,204,-8273,704,-1,-3,-2,1
155559,210,-8273,707,-1,-3,-2,1
155564,216,-8272,714,-1,-3,-2,1
155569,219,-8276,720,-1,-3,-2,1
155574,222,-8277,717,-1,-3,-2,1
155579,224,-8277,717,-1,-3,-2,1
155584,223,-8281,715,-1,-3,-2,1
155589,223,-8279,713,-1,-3,-2,1
155594,226,-8280,711,-1,-3,-2,1
155599,230,-8282,712,-1,-3,-2,1
155604,237,-8282,709,-1,-3,-2,1
155609,243,-8280,713,-1,-3,-2,1
155614,247,-8279,715,-1,-3,-2,1
155619,250,-8275,716,-1,-3,-2,1
155624,248,-8273,717,-1,-3,-2,1
155629,245,-8273,718,-1,-3,-2,1
155634,238,-8271,718,-1,-3,-2,1
155639,227,-8272,716,-1,-3,-2,1
155644,220,-8272,722,-1,-3,-2,1
155649,220,-8274,730,-1,-3,-2,1
155654,222,-8275,739,-1,-3,-2,1
155659,226,-8278,749,-1,-3,-2,1
155664,228,-8279,752,-1,-3,-2,1
155669,235,-8279,758,-1,-3,-2,1
155674,237,-8280,760,-1,-3,-2,1
155679,240,-8279,760,-1,-3,-2,1
155684,241,-8278,761,-1,-2,-2,1
155689,240,-8274,758,-1,-2,-2,1
155694,240,-8274,751,-1,-2,-2,1
155699,240,-8275,746,-1,-2,-2,1
155704,242,-8277,745,-1,-2,-2,1
155709,246,-8275,745,-1,-2,-2,1
155714,248,-8274,742,-1,-2,-2,1
155719,247,-8274,739,-1,-2,-2,1
155724,245,-8272,733,-1,-2,-2,1
155729,246,-8275,735,-1,-2,-2,1
155734,248,-8274,737,-1,-2,-2,1
155739,251,-8275,740,-1,-2,-2,1
155744,258,-8275,740,-1,-2,-2,1
155749,266,-8276,737,-1,-2,-2,1
155754,272,-8279,735,-1,-2,-2,1
155759,273,-8280,734,-1,-2,-2,1
155764,274,-8280,729,-1,-2,-2,1
155769,273,-8284,724,-1,-2,-2,1
155774,273,-8285,715,-1,-2,-2,1
155779,272,-8286,705,-1,-2,-2,1
155784,270,-8287,703,-1,-2,-1,1
155789,269,-8286,700,-1,-2,-1,1
155794,271,-8285,700,-1,-2,-1,1
155799,278,-8283,701,-1,-2,-1,1
155804,283,-8280,702,-1,-2,-2,1
155809,288,-8279,707,-1,-2,-1,1
155814,288,-8278,713,-1,-2,-2,1
155819,288,-8278,712,-1,-2,-1,1
155824,286,-8279,713,-1,-2,-1,1
155829,285,-8283,714,-1,-2,-1,1
155834,283,-8282,709,-1,-2,-1,1
155839,282,-8282,708,-1,-2,-1,1
155844,284,-8282,709,-1,-2,-1,1
155849,286,-8280,718,-1,-2,-1,1
155854,286,-8278,730,-1,-2,-1,1
155859,286,-8274,740,-1,-2,-1,1
155864,283,-8273,746,-1,-2,-1,1
155869,279,-8272,748,-1,-2,-1,1
155874,274,-8270,747,-1,-2,-1,1
155879,268,-8272,741,-1,-2,-1,1
155884,261,-8271,732,-1,-2,-1,1
155889,257,-8271,726,-1,-2,-1,1
155894,255,-8274,728,-1,-2,-1,1
155899,255,-8276,727,-1,-2,-1,1
155904,252,-8280,727,-1,-2,-1,1
155909,244,-8281,724,-1,-2,-1,1
155914,237,-8278,721,-1,-2,-1,1
155919,233,-8275,719,-1,-2,-1,1
155924,230,-8273,717,-1,-2,-1,1
155929,229,-8273,714,-1,-2,-1,1
155934,227,-8272,719,-1,-2,-1,1
155939,227,-8271,728,-1,-3,-1,1
155944,226,-8271,735,-1,-3,-1,1
155949,222,-8270,737,-1,-3,-1,1
155954,219,-8269,740,-1,-3,-1,1
155959,215,-8271,735,-1,-3,-1,1
155964,213,-8273,734,-1,-3,-1,1
155969,210,-8275,734,-1,-3,-1,1
155974,205,-8276,733,-1,-3,-1,1
155979,203,-8276,731,-1,-3,-1,1
155984,204,-8275,728,-1,-3,-1,1
155989,202,-8271,729,-1,-3,-1,1
155994,204,-8271,727,-1,-3,-1,1
155999,206,-8272,728,-1,-3,-1,1
156004,209,-8273,726,-1,-3,-1,1
156009,211,-8273,726,-1,-3,-1,1
156014,213,-8274,729,-1,-3,-1,1
156019,210,-8273,733,-1,-2,-1,1
156024,211,-8277,740,-1,-2,-1,1
156029,207,-8280,742,-1,-2,-1,1
156034,204,-8278,744,-1,-2,-1,1
156039,202,-8274,746,-1,-2,-1,1
156044,200,-8273,743,-1,-2,-1,1
156049,201,-8275,741,-1,-2,-1,1
156054,202,-8271,740,-1,-3,-1,1
156059,204,-8270,739,-1,-3,-1,1
156064,206,-8271,739,-1,-3,-1,1
156069,207,-8271,740,-1,-3,-1,1
156074,205,-8273,733,-1,-3,-1,1
156079,210,-8273,734,-1,-3,-1,1
156084,214,-8273,730,-1,-3,-1,1
156089,217,-8274,725,-1,-3,-1,1
156094,220,-8276,724,-1,-3,-1,1
156099,220,-8274,723,-1,-3,-1,1
156104,218,-8276,724,-1,-3,-1,1
156109,214,-8277,722,-1,-3,-1,1
156114,207,-8275,719,-1,-3,-1,1
156119,200,-8274,715,-1,-2,-1,1
156124,192,-8276,715,-1,-2,-1,1
156129,191,-8275,710,-1,-2,-1,1
156134,192,-8274,713,-1,-2,-1,1
156139,194,-8277,718,-1,-2,-1,1
156144,197,-8274,721,-1,-2,-2,1
156149,198,-8271,720,-1,-2,-1,1
156154,200,-8271,721,-1,-2,-1,1
156159,202,-8273,714,-1,-2,-1,1
156164,198,-8276,715,-1,-2,-1,1
156169,192,-8280,716,-1,-2,-1,1
156174,186,-8283,717,-1,-3,-2,1
156179,184,-8283,718,-1,-3,-1,1
156184,184,-8281,722,-1,-3,-2,1
156189,184,-8280,720,-1,-3,-2,1
156194,186,-8280,722,-1,-3,-2,1
156199,188,-8282,718,-1,-3,-1,1
156204,188,-8280,711,-1,-3,-2,1
156209,188,-8277,704,-1,-3,-2,1
156214,190,-8275,696,-1,-3,-2,1
156219,189,-8275,692,-1,-2,-2,1
156224,189,-8271,697,-1,-2,-2,1
156229,188,-8272,701,-1,-2,-2,1
156234,188,-8272,707,-1,-2,-2,1
156239,190,-8272,713,-1,-2,-2,1
156244,193,-8273,711,-1,-2,-2,1
156249,195,-8274,705,-1,-2,-2,1
156254,199,-8273,697,-1,-2,-2,1
156259,202,-8276,691,-1,-2,-2,1
156264,204,-8276,689,-1,-2,-2,1
156269,205,-8279,688,-1,-2,-2,1
156274,210,-8278,688,-1,-2,-2,1
156279,211,-8276,691,-1,-3,-2,1
156284,214,-8274,694,-1,-3,-2,1
156289,216,-8276,700,-1,-3,-2,1
156294,215,-8277,708,-1,-3,-2,1
156299,213,-8276,708,-1,-3,-2,1
156304,209,-8274,714,-1,-3,-2,1
156309,204,-8273,716,-1,-3,-2,1
156314,201,-8273,717,-1,-3,-2,1
156319,197,-8273,716,-1,-2,-2,1
156324,196,-8274,719,-1,-2,-2,1
156329,199,-8274,719,-1,-2,-2,1
156334,202,-8273,727,-1,-2,-2,1
156339,204,-8272,729,-1,-2,-2,1
156344,208,-8272,729,-1,-2,-2,1
156349,210,-8273,729,-1,-2,-2,1
156354,210,-8273,726,-1,-2,-2,1
156359,212,-8275,722,-1,-2,-2,1
156364,214,-8273,715,-1,-2,-2,1
156369,215,-8273,709,-1,-2,-2,1
156374,214,-8275,704,-1,-2,-2,1
156379,214,-8277,705,-1,-3,-2,1
156384,215,-8278,708,-1,-3,-2,1
156389,215,-8278,710,-1,-3,-2,1
156394,216,-8278,710,-1,-3,-2,1
156399,218,-8277,709,-1,-3,-2,1
156404,219,-8276,707,-1,-3,-2,1
156409,224,-8275,700,-1,-3,-2,1
156414,227,-8277,700,-1,-3,-2,1
156419,231,-8278,698,-1,-3,-2,1
156424,234,-8280,701,-1,-3,-2,1
156429,235,-8280,706,-1,-3,-2,1
156434,233,-8277,713,-1,-3,-2,1
156439,233,-8276,721,-1,-3,-2,1
156444,235,-8276,730,-1,-3,-2,1
156449,237,-8278,734,-1,-3,-2,1
156454,238,-8279,731,-1,-3,-2,1
156459,240,-8279,724,-1,-2,-2,1
156464,241,-8278,724,-1,-2,-2,1
156469,246,-8276,727,-1,-2,-2,1
156474,249,-8275,733,-1,-2,-2,1
156479,250,-8275,737,-1,-2,-1,1
156484,254,-8276,730,-1,-3,-2,1
156489,253,-8278,727,-1,-3,-1,1
156494,252,-8278,727,-1,-3,-1,1
156499,248,-8279,728,-1,-3,-1,1
156504,245,-8278,738,-1,-3,-2,1
156509,242,-8276,745,-1,-2,-1,1
156514,238,-8273,750,-1,-2,-1,1
156519,239,-8273,753,-1,-2,-2,1
156524,233,-8274,755,-1,-2,-2,1
156529,231,-8276,754,-1,-2,-2,1
156534,229,-8276,754,-1,-2,-2,1
156539,228,-8275,746,-1,-2,-2,1
156544,227,-8274,746,-1,-2,-2,1
156549,227,-8275,743,-1,-2,-2,1
156554,223,-8276,743,-1,-2,-2,1
156559,218,-8277,741,-1,-2,-2,1
156564,218,-8280,739,-1,-2,-2,1
156569,216,-8282,740,-1,-2,-1,1
156574,214,-8281,738,-1,-2,-1,1
156579,213,-8279,729,-1,-2,-1,1
156584,218,-8280,724,-1,-2,-1,1
156589,221,-8282,719,-1,-2,-2,1
156594,222,-8283,722,-1,-2,-1,1
156599,220,-8282,719,-1,-3,-1,1
156604,214,-8283,718,-1,-3,-2,1
156609,203,-8283,717,-1,-3,-1,1
156614,197,-8285,719,-1,-3,-1,1
156619,191,-8283,717,-1,-3,-2,1
156624,188,-8283,713,-1,-3,-2,1
156629,187,-8282,710,-1,-3,-2,1
156634,189,-8281,705,-1,-3,-2,1
156639,185,-8281,708,-1,-3,-2,1
156644,179,-8278,713,-1,-3,-2,1
156649,174,-8276,719,-1,-3,-2,1
156654,173,-8276,723,-1,-3,-2,1
156659,169,-8273,728,-1,-3,-2,1
156664,171,-8273,730,-1,-2,-2,1
156669,175,-8274,728,-1,-2,-2,1
156674,184,-8276,723,-1,-2,-2,1
156679,190,-8276,718,-1,-3,-2,1
156684,197,-8277,717,-1,-3,-2,1
156689,201,-8280,722,-1,-3,-2,1
156694,203,-8281,731,-1,-3,-2,1
156699,206,-8284,734,-1,-2,-2,1
156704,207,-8281,738,-1,-2,-2,1
156709,210,-8280,740,-1,-2,-2,1
156714,216,-8279,738,-1,-2,-2,1
156719,219,-8278,736,-1,-2,-2,1
156724,219,-8276,734,-1,-2,-2,1
156729,220,-8277,735,-1,-2,-2,1
156734,217,-8272,736,-1,-2,-2,1
156739,214,-8270,744,-1,-2,-2,1
156744,212,-8270,749,-1,-2,-2,1
156749,213,-8271,749,-1,-2,-2,1
156754,215,-8271,744,-1,-2,-2,1
156759,217,-8272,746,-1,-2,-2,1
156764,218,-8272,744,-1,-2,-2,1
156769,218,-8274,736,-1,-2,-2,1
156774,216,-8276,734,-1,-2,-2,1
156779,212,-8279,739,-1,-2,-2,1
156784,205,-8281,738,-1,-2,-2,1
156789,202,-8281,740,-1,-2,-2,1
156794,199,-8281,735,-1,-2,-2,1
156799,195,-8280,726,-1,-2,-2,1
156804,196,-8277,720,-1,-2,-2,1
156809,193,-8274,720,-1,-2,-2,1
156814,193,-8271,722,-1,-2,-2,1
156819,193,-8272,727,-1,-2,-2,1
156824,193,-8275,730,-1,-2,-2,1
156829,196,-8275,736,-1,-2,-2,1
156834,199,-8275,740,-1,-2,-2,1
156839,203,-8279,738,-1,-2,-2,1
156844,205,-8280,739,-1,-2,-2,1
156849,208,-8278,733,-1,-2,-2,1
156854,214,-8276,726,-1,-2,-2,1
156859,219,-8276,721,-1,-2,-2,1
156864,224,-8276,716,-1,-2,-2,1
156869,225,-8274,717,-1,-2,-2,1
156874,227,-8273,715,-1,-2,-2,1
156879,226,-8272,716,-1,-2,-2,1
156884,229,-8274,717,-1,-3,-2,1
156889,231,-8277,713,-1,-3,-2,1
156894,231,-8275,711,-1,-3,-2,1
156899,233,-8274,714,-1,-2,-2,1
156904,233,-8272,717,-1,-2,-2,1
156909,230,-8274,721,-1,-2,-2,1
156914,231,-8277,725,-1,-2,-2,1
156919,228,-8280,728,-1,-2,-2,1
156924,227,-8282,733,-1,-2,-2,1
156929,225,-8280,735,-1,-2,-2,1
156934,226,-8281,735,-1,-2,-2,1
156939,226,-8283,737,-1,-2,-2,1
156944,228,-8284,745,-1,-2,-2,1
156949,229,-8284,749,-1,-2,-2,1
156954,230,-8280,750,-1,-2,-2,1
156959,231,-8279,746,-1,-2,-2,1
156964,229,-8279,742,-1,-2,-2,1
156968,226,-8282,740,-1,-2,-2,1
156974,225,-8282,739,-1,-2,-2,1
156979,229,-8282,735,-1,-2,-2,1
156984,232,-8281,734,-1,-2,-2,1
156989,236,-8281,735,-1,-2,-2,1
156994,233,-8280,738,-1,-2,-2,1
156999,227,-8279,747,-1,-2,-2,1
157003,221,-8278,746,-1,-2,-2,1
157009,213,-8276,742,-1,-2,-2,1
157014,208,-8277,738,-1,-2,-2,1
157019,206,-8275,733,-1,-2,-2,1
157024,204,-8276,726,-1,-2,-2,1
157029,204,-8278,721,-1,-3,-2,1
157034,203,-8276,714,-1,-3,-2,1
157039,202,-8277,714,-1,-3,-2,1
157043,204,-8279,718,-1,-3,-2,1
157049,207,-8276,725,-1,-3,-2,1
157053,208,-8274,733,-1,-3,-2,1
157058,208,-8275,733,-1,-3,-2,1
157064,211,-8274,736,-1,-3,-2,1
157068,214,-8275,735,-1,-3,-2,1
157074,217,-8272,734,-1,-3,-2,1
157078,221,-8271,734,-1,-3,-2,1
157083,226,-8272,740,-1,-3,-2,1
157088,231,-8274,745,-1,-3,-2,1
157094,236,-8276,747,-1,-3,-2,1
157099,243,-8278,754,-1,-3,-2,1
157103,252,-8282,751,-1,-3,-2,1
157109,259,-8284,747,-1,-3,-2,1
157114,266,-8282,744,-1,-3,-2,1
157119,274,-8282,743,-1,-3,-2,1
157123,279,-8280,739,-1,-3,-2,1
157129,283,-8280,736,-1,-3,-2,1
157134,283,-8280,730,-1,-3,-2,1
157138,283,-8281,731,-1,-3,-2,1
157143,285,-8281,729,-1,-3,-2,1
157148,288,-8281,729,-1,-3,-2,1
157153,295,-8278,725,-1,-3,-2,1
157158,302,-8278,724,-1,-3,-2,1
157164,309,-8278,726,-1,-3,-2,1
157168,310,-8277,720,-1,-3,-2,1
157173,311,-8277,716,-1,-3,-2,1
157179,315,-8276,714,-1,-2,-2,1
157183,318,-8278,720,-1,-2,-2,1
157189,320,-8279,721,-1,-2,-2,1
157194,320,-8277,714,-1,-2,-2,1
157198,316,-8276,713,-1,-2,-2,1
157203,313,-8276,716,-1,-2,-2,1
157208,310,-8274,718,-1,-2,-2,1
157213,308,-8272,718,-1,-2,-2,1
157218,301,-8275,724,-1,-2,-1,1
157223,294,-8278,725,-1,-2,-1,1
157228,292,-8277,730,-1,-2,-1,1
157233,291,-8278,734,-1,-2,-2,1
157238,289,-8278,739,-1,-2,-1,1
157243,284,-8278,741,-1,-2,-1,1
157248,278,-8277,736,-1,-2,-2,1
157253,271,-8277,731,-1,-2,-1,1
157258,267,-8276,728,-1,-2,-1,1
157263,259,-8273,727,-1,-2,-1,1
157268,258,-8272,726,-1,-2,-1,1
157273,256,-8271,726,-1,-2,-1,1
157278,255,-8275,733,-1,-2,-1,1
157283,254,-8278,741,-1,-2,-1,1
157288,251,-8277,739,-1,-2,-1,1
157293,245,-8275,737,-1,-2,-1,1
157298,237,-8273,736,-1,-2,-2,1
157303,233,-8273,736,-1,-2,-2,1
157308,230,-8273,733,-1,-2,-1,1
157313,229,-8274,733,-1,-2,-2,1
157318,232,-8273,735,-1,-2,-2,1
157323,238,-8273,739,-1,-2,-2,1
157328,246,-8272,741,-1,-2,-1,1
157333,251,-8272,741,-1,-2,-1,1
157338,255,-8272,742,-1,-2,-1,1
157343,259,-8273,748,-1,-2,-1,1
157348,262,-8269,749,-1,-2,-1,1
157353,265,-8271,748,-1,-2,-2,1
157358,270,-8275,745,-1,-2,-1,1
157363,278,-8276,746,-1,-2,-1,1
157368,285,-8275,742,-1,-2,-1,1
157373,290,-8274,742,-1,-2,-1,1
157378,293,-8273,742,-1,-2,-1,1
157383,292,-8273,742,-1,-2,-1,1
157388,294,-8272,744,-1,-2,-1,1
157393,296,-8274,744,-1,-2,-1,1
157398,296,-8275,742,-1,-2,-1,1
157403,299,-8276,739,-1,-2,-1,1
157408,300,-8277,732,-1,-2,-1,1
157413,300,-8276,727,-1,-2,-1,1
157418,300,-8277,721,-1,-2,-1,1
157423,301,-8278,723,-1,-2,-1,1
157428,304,-8278,728,-1,-2,-1,1
157433,302,-8280,734,-1,-2,-1,1
157438,298,-8282,741,-1,-2,-1,1
157443,295,-8279,747,-1,-2,-1,1
157448,291,-8275,749,-1,-2,-1,1
157453,289,-8276,745,-1,-2,-1,1
157458,289,-8278,741,-1,-2,-1,1
157463,284,-8276,741,-1,-2,-1,1
157468,279,-8275,741,-1,-2,-1,1
157473,274,-8276,743,-1,-2,-1,1
157478,269,-8278,745,-1,-2,-1,1
157483,262,-8277,751,-1,-2,-1,1
157488,254,-8274,758,-1,-2,-1,1
157493,250,-8272,759,-1,-2,-1,1
157498,246,-8271,759,-1,-2,-1,1
157503,241,-8273,758,-1,-2,-1,1
157508,237,-8276,751,-1,-2,-1,1
157513,236,-8278,747,-1,-2,-1,1
157518,233,-8279,751,-1,-2,-1,1
157523,230,-8277,754,-1,-2,-1,1
157528,229,-8277,748,-1,-2,-1,1
157533,227,-8276,746,-1,-2,-1,1
157538,224,-8276,744,-1,-2,-1,1
157543,222,-8274,738,-1,-2,-1,1
157548,216,-8274,735,-1,-2,-1,1
157553,212,-8274,736,-1,-2,-1,1
157558,211,-8275,741,-1,-2,-1,1
157563,212,-8274,740,-1,-2,-1,1
157568,212,-8272,741,-1,-2,-1,1
157573,215,-8269,744,-1,-2,-1,1
157578,218,-8270,744,-1,-2,-1,1
157583,220,-8271,741,-1,-2,-1,1
157588,223,-8273,738,-1,-2,-1,1
157593,225,-8274,732,-1,-2,-1,1
157598,226,-8273,726,-1,-2,-1,1
157603,226,-8272,724,-1,-1,-1,1
157608,228,-8273,728,-1,-2,-1,1
157613,225,-8276,734,-1,-2,-1,1
157618,226,-8278,736,-1,-2,-1,1
157623,226,-8281,741,-1,-2,-1,1
157628,226,-8280,741,-1,-2,-1,1
157633,228,-8277,741,-1,-2,-1,1
157638,229,-8277,736,-1,-2,-1,1
157643,232,-8275,733,-1,-2,-1,1
157648,234,-8275,737,-1,-2,-1,1
157653,236,-8278,743,-1,-2,-1,1
157658,238,-8279,745,-1,-2,-1,1
157663,238,-8277,747,-1,-2,-1,1
157668,236,-8276,752,-1,-2,-1,1
157673,233,-8274,762,-1,-2,-1,1
157678,231,-8275,764,-1,-2,-1,1
157683,230,-8271,764,-1,-2,-1,1
157688,224,-8272,759,-1,-2,-1,1
157693,219,-8271,761,-1,-2,-1,1
157698,212,-8271,761,-1,-2,-1,1
157703,207,-8272,762,-1,-2,-1,1
157708,203,-8274,764,-1,-2,-1,1
157713,199,-8276,765,-1,-2,-1,1
157718,196,-8277,765,-1,-2,-1,1
157723,193,-8276,766,-1,-2,-1,1
157728,193,-8276,766,-1,-2,-1,1
157733,191,-8275,766,-1,-2,-1,1
157738,187,-8276,767,-1,-2,-1,1
157743,183,-8278,766,-1,-2,-1,1
157748,181,-8279,762,-1,-2,-1,1
157753,178,-8278,761,-1,-2,-1,1
157758,177,-8278,760,-1,-2,-1,1
157763,175,-8276,762,-1,-2,-1,1
157768,175,-8276,762,-1,-2,-1,1
157773,176,-8276,760,-1,-2,-1,1
157778,177,-8278,763,-1,-2,-2,1
157783,176,-8280,756,-1,-2,-2,1
157788,175,-8278,753,-1,-2,-2,1
157793,172,-8279,750,-1,-2,-2,1
157798,169,-8277,748,-1,-2,-2,1
157803,168,-8274,747,-1,-2,-2,1
157808,169,-8272,742,-1,-2,-2,1
157813,170,-8271,740,-1,-2,-2,1
157818,172,-8272,742,-1,-2,-2,1
157823,178,-8274,745,-1,-2,-2,1
157828,181,-8275,741,-1,-2,-2,1
157833,182,-8276,740,-1,-2,-2,1
157838,186,-8276,735,-1,-2,-2,1
157843,187,-8275,733,-1,-2,-2,1
157848,189,-8274,737,-1,-2,-2,1
157853,188,-8276,737,-1,-2,-2,1
157858,187,-8278,742,-1,-2,-2,1
157863,188,-8277,748,-1,-2,-2,1
157868,189,-8276,753,-1,-2,-2,1
157873,190,-8275,752,-1,-2,-2,1
157878,195,-8273,748,-1,-2,-2,1
157883,195,-8273,747,-1,-2,-2,1
157888,194,-8275,748,-1,-2,-2,1
157893,191,-8274,746,-1,-2,-2,1
157898,191,-8276,744,-1,-2,-2,1
157903,194,-8276,744,-1,-2,-2,1
157908,199,-8274,746,-1,-2,-2,1
157913,206,-8272,751,-1,-2,-2,1
157918,213,-8271,749,-1,-2,-2,1
157923,221,-8271,751,-1,-2,-2,1
157928,226,-8271,748,-1,-2,-2,1
157933,228,-8270,751,-1,-2,-2,1
157938,226,-8270,754,-1,-2,-2,1
157943,221,-8274,759,-1,-2,-2,1
157948,213,-8275,758,-1,-2,-2,1
157953,214,-8273,752,-1,-2,-2,1
157958,212,-8275,745,-1,-2,-2,1
157963,213,-8274,741,-1,-2,-2,1
157968,215,-8275,741,-1,-2,-2,1
157973,213,-8275,745,-1,-2,-2,1
157978,216,-8277,741,-1,-2,-2,1
157983,218,-8276,736,-1,-2,-2,1
157988,217,-8275,730,-1,-2,-2,1
157993,213,-8274,724,-1,-2,-2,1
157998,207,-8274,719,-1,-2,-2,1
158003,204,-8272,720,-1,-2,-2,1
158008,207,-8273,721,-1,-2,-2,1
158013,210,-8271,730,-1,-2,-2,1
158018,216,-8271,731,-1,-2,-2,1
158023,219,-8270,735,-1,-2,-2,1
158028,223,-8270,736,-1,-2,-2,1
158033,229,-8271,741,-1,-2,-2,1
158038,227,-8273,742,-1,-2,-2,1
158043,221,-8273,747,-1,-2,-2,1
158048,216,-8274,756,-1,-2,-2,1
158053,212,-8276,758,-1,-2,-2,1
158058,213,-8276,759,-1,-2,-2,1
158063,213,-8275,759,-1,-2,-2,1
158068,215,-8272,754,-1,-2,-2,1
158073,218,-8271,756,-1,-2,-2,1
158078,220,-8273,750,-1,-2,-2,1
158083,225,-8276,752,-1,-2,-2,1
158088,227,-8277,754,-1,-2,-2,1
158093,227,-8276,757,-1,-3,-2,1
158098,229,-8276,756,-1,-3,-2,1
158103,235,-8274,753,-1,-3,-2,1
158108,240,-8275,746,-1,-3,-2,1
158113,244,-8275,743,-1,-2,-2,1
158118,246,-8274,736,-1,-3,-2,1
158123,246,-8271,732,-1,-2,-2,1
158128,244,-8270,728,-1,-2,-2,1
158133,242,-8269,735,-1,-2,-2,1
158138,242,-8268,739,-1,-2,-2,1
158143,238,-8268,743,-1,-2,-2,1
158148,238,-8268,744,-1,-2,-2,1
158153,240,-8266,738,-1,-2,-2,1
158158,239,-8265,736,-1,-2,-2,1
158163,235,-8265,730,-1,-2,-2,1
158168,232,-8267,730,-1,-2,-2,1
158173,227,-8266,734,-1,-2,-2,1
158178,225,-8263,739,-1,-2,-2,1
158183,221,-8263,741,-1,-2,-2,1
158188,220,-8263,745,-1,-2,-2,1
158193,219,-8268,751,-1,-2,-2,1
158198,214,-8271,753,-1,-2,-2,1
158203,213,-8272,752,-1,-2,-2,1
158208,213,-8274,751,-1,-2,-2,1
158213,217,-8276,748,-1,-2,-2,1
158218,219,-8276,749,-1,-3,-2,1
158223,215,-8278,749,-1,-3,-2,1
158228,213,-8278,750,-1,-2,-2,1
158233,217,-8276,757,-1,-2,-2,1
158238,219,-8274,761,-1,-2,-2,1
158243,221,-8272,764,-1,-2,-2,1
158248,224,-8271,760,-1,-2,-2,1
158253,225,-8275,760,-1,-3,-2,1
158258,223,-8276,761,-1,-2,-2,1
158263,224,-8276,759,-1,-2,-2,1
158268,224,-8277,762,-1,-2,-2,1
158273,223,-8276,758,-1,-2,-2,1
158278,228,-8275,753,-1,-2,-2,1
158283,233,-8274,754,-1,-3,-2,1
158288,234,-8274,747,-1,-3,-2,1
158293,242,-8274,749,-1,-3,-2,1
158298,247,-8273,752,-1,-3,-2,1
158303,250,-8274,756,-1,-3,-2,1
158308,251,-8274,759,-1,-3,-2,1
158313,251,-8269,764,-1,-3,-2,1
158318,248,-8267,768,-1,-3,-2,1
158323,247,-8268,772,-1,-3,-2,1
158328,247,-8269,773,-1,-3,-2,1
158333,245,-8269,776,-1,-3,-2,1
158338,241,-8267,783,-1,-3,-2,1
158343,244,-8266,785,-1,-3,-2,1
158348,243,-8264,785,-1,-3,-2,1
158353,245,-8263,786,-1,-3,-2,1
158358,247,-8262,786,-1,-3,-2,1
158363,251,-8265,784,-1,-3,-2,1
158368,253,-8265,783,-1,-3,-2,1
158373,257,-8266,775,-1,-3,-2,1
158378,258,-8268,769,-1,-3,-2,1
158383,258,-8271,763,-1,-3,-2,1
158388,255,-8274,761,-1,-3,-2,1
158393,253,-8274,762,-1,-3,-2,1
158398,251,-8277,763,-1,-3,-2,1
158403,249,-8276,759,-1,-3,-2,1
158408,246,-8278,751,-1,-3,-2,1
158413,248,-8276,744,-1,-3,-2,1
158418,250,-8274,738,-1,-3,-2,1
158423,248,-8274,736,-1,-3,-2,1
158428,243,-8276,738,-1,-3,-2,1
158433,240,-8276,743,-1,-2,-2,1
158438,235,-8275,750,-1,-2,-2,1
158443,231,-8275,751,-1,-2,-2,1
158448,229,-8274,746,-1,-3,-2,1
158453,233,-8272,736,-1,-3,-2,1
158458,239,-8274,722,-1,-2,-2,1
158463,242,-8275,715,-1,-2,-2,1
158468,247,-8277,709,-1,-2,-2,1
158473,252,-8278,710,-1,-2,-2,1
158478,253,-8277,712,-1,-2,-2,1
158483,253,-8277,720,-1,-2,-2,1
158488,256,-8274,723,-1,-2,-2,1
158493,262,-8274,721,-1,-2,-2,1
158498,270,-8276,720,-1,-2,-2,1
158503,280,-8276,712,-1,-2,-2,1
158508,285,-8278,701,-1,-3,-2,1
158513,289,-8277,694,-1,-3,-2,1
158518,290,-8274,696,-1,-3,-2,1
158523,291,-8274,703,-1,-3,-2,1
158528,292,-8273,713,-1,-3,-2,1
158533,296,-8272,720,-1,-3,-2,1
158538,303,-8273,723,-1,-3,-2,1
158543,314,-8275,722,-1,-3,-2,1
158548,325,-8276,722,-1,-3,-2,1
158553,331,-8278,720,-1,-3,-2,1
158558,330,-8279,721,-1,-3,-2,1
158563,329,-8280,723,-1,-3,-2,1
158568,330,-8278,727,-1,-2,-2,1
158573,330,-8277,737,-1,-2,-2,1
158578,328,-8277,743,-1,-2,-2,1
158583,329,-8275,753,-1,-2,-2,1
158588,333,-8276,765,-1,-2,-2,1
158593,332,-8275,764,-1,-2,-2,1
158598,331,-8274,765,-1,-2,-2,1
158603,327,-8275,770,-1,-2,-2,1
158608,321,-8274,776,-1,-2,-2,1
158613,314,-8274,784,-1,-2,-2,1
158618,308,-8273,794,-1,-2,-2,1
158623,303,-8272,803,-1,-2,-2,1
158628,298,-8268,816,-1,-2,-2,1
158633,295,-8268,817,-1,-3,-2,1
158638,289,-8268,818,-1,-3,-2,1
158643,281,-8270,820,-1,-3,-2,1
158648,272,-8270,819,-1,-3,-2,1
158653,262,-8272,817,-1,-3,-2,1
158658,252,-8273,821,-1,-2,-2,1
158663,243,-8273,826,-1,-2,-2,1
158668,238,-8274,827,-1,-2,-2,1
158673,234,-8274,825,-2,-2,-2,1
158678,230,-8273,821,-2,-2,-2,1
158683,225,-8275,809,-2,-2,-2,1
158688,214,-8276,799,-2,-2,-2,1
158693,204,-8277,792,-2,-2,-2,1
158698,195,-8280,778,-2,-2,-2,1
158703,186,-8282,768,-2,-2,-2,1
158708,185,-8283,759,-2,-2,-2,1
158713,185,-8280,751,-2,-2,-2,1
158718,186,-8280,745,-1,-2,-2,1
158723,188,-8280,735,-1,-3,-2,1
158728,187,-8279,724,-1,-3,-2,1
158733,183,-8279,712,-1,-3,-2,1
158738,180,-8280,705,-1,-3,-2,1
158743,175,-8279,696,-1,-3,-2,1
158747,178,-8279,685,-1,-3,-2,1
158753,180,-8277,678,-1,-3,-3,1
158758,184,-8278,671,-1,-3,-2,1
158763,194,-8278,669,-1,-3,-3,1
158768,203,-8279,667,-1,-3,-3,1
158773,207,-8278,665,-1,-3,-3,1
158778,213,-8281,669,-1,-3,-3,1
158783,218,-8280,675,-1,-3,-3,1
158788,220,-8278,676,-1,-4,-3,1
158793,224,-8274,678,-1,-4,-3,1
158797,234,-8274,684,-1,-4,-3,1
158803,248,-8277,689,-1,-4,-3,1
158807,261,-8278,691,-1,-4,-3,1
158813,273,-8280,696,-1,-4,-3,1
158818,287,-8278,702,-1,-4,-3,1
158823,292,-8277,702,-1,-4,-3,1
158828,298,-8278,704,-1,-4,-3,1
158833,305,-8278,705,-1,-4,-3,1
158837,313,-8279,708,-1,-4,-3,1
158843,321,-8276,706,-1,-4,-3,1
158847,328,-8277,710,-1,-4,-2,1
158852,335,-8277,709,-1,-3,-3,1
158858,340,-8277,714,-1,-3,-3,1
158862,345,-8277,721,-1,-3,-3,1
158867,347,-8276,725,-1,-3,-2,1
158872,348,-8276,726,-1,-3,-2,1
158878,351,-8274,727,-1,-3,-2,1
158882,352,-8274,729,-1,-3,-2,1
158887,356,-8274,729,-1,-3,-2,1
158892,357,-8272,732,-1,-3,-3,1
158897,357,-8272,738,-1,-3,-3,1
158903,361,-8271,742,-1,-3,-2,1
158907,362,-8273,746,-1,-3,-2,1
158913,364,-8271,748,-1,-3,-2,1
158917,367,-8271,746,-1,-3,-2,1
158922,368,-8274,745,-1,-3,-2,1
158927,371,-8273,747,-1,-3,-2,1
158932,372,-8272,748,-1,-3,-2,1
158937,374,-8276,748,-1,-3,-2,1
158942,370,-8278,746,-1,-3,-2,1
158947,363,-8279,749,-1,-3,-2,1
158952,355,-8276,751,-1,-3,-2,1
158957,343,-8276,749,-1,-3,-2,1
158962,335,-8274,751,-1,-3,-2,1
158967,332,-8273,751,-1,-3,-2,1
158972,331,-8273,746,-1,-3,-2,1
158977,332,-8274,737,-1,-3,-2,1
158982,329,-8276,735,-1,-3,-2,1
158987,328,-8274,736,-1,-3,-2,1
158992,323,-8274,741,-1,-3,-2,1
158997,322,-8272,745,-1,-3,-2,1
159002,321,-8272,746,-1,-3,-2,1
159007,320,-8274,749,-1,-3,-2,1
159012,323,-8275,751,-1,-3,-2,1
159017,328,-8277,754,-1,-3,-2,1
159022,331,-8276,751,-1,-3,-3,1
159027,332,-8275,749,-1,-3,-3,1
159032,331,-8274,747,-1,-3,-2,1
159037,328,-8273,755,-1,-3,-3,1
159042,327,-8274,756,-1,-3,-3,1
159047,326,-8276,756,-1,-3,-2,1
159052,327,-8279,758,-1,-3,-2,1
159057,330,-8279,760,-1,-3,-2,1
159062,333,-8280,765,-1,-3,-3,1
159067,336,-8279,768,-1,-3,-3,1
159072,336,-8276,765,-1,-3,-3,1
159077,340,-8275,767,-1,-3,-3,1
159082,340,-8275,764,-1,-3,-3,1
159087,342,-8274,760,-1,-3,-3,1
159092,346,-8276,754,-1,-3,-3,1
159097,350,-8276,751,-1,-3,-3,1
159102,355,-8276,750,-1,-3,-3,1
159107,365,-8275,752,-1,-3,-3,1
159112,376,-8274,757,-1,-3,-2,1
159117,384,-8275,753,-1,-3,-3,1
159122,389,-8275,750,-1,-3,-3,1
159127,396,-8273,744,-1,-3,-3,1
159132,400,-8274,745,-1,-3,-2,1
159137,408,-8272,746,-1,-3,-2,1
159142,414,-8275,748,-1,-3,-2,1
159147,420,-8275,750,-1,-3,-2,1
159152,427,-8277,751,-1,-3,-2,1
159157,433,-8273,750,-1,-4,-2,1
159162,438,-8271,754,-1,-4,-2,1
159167,443,-8270,761,-1,-4,-2,1
159172,454,-8272,763,-1,-4,-2,1
159177,465,-8272,764,-1,-3,-2,1
159182,474,-8272,764,-1,-3,-2,1
159187,482,-8271,763,-1,-3,-2,1
159192,489,-8272,760,-1,-3,-2,1
159197,491,-8273,758,-1,-3,-2,1
159202,492,-8274,764,-1,-3,-2,1
159207,492,-8273,773,-1,-3,-2,1
159212,493,-8272,780,-1,-3,-2,1
159217,493,-8270,787,-1,-2,-2,1
159222,492,-8268,797,-1,-2,-2,1
159227,490,-8268,809,-1,-2,-2,1
159232,488,-8273,813,-1,-2,-2,1
159237,485,-8274,810,-1,-2,-2,1
159242,486,-8276,807,-1,-2,-2,1
159247,483,-8277,802,-1,-2,-2,1
159252,480,-8277,799,-1,-2,-2,1
159257,478,-8279,801,-1,-2,-2,1
159262,473,-8278,805,-1,-2,-2,1
159267,465,-8279,802,-1,-2,-2,1
159272,457,-8279,798,-1,-2,-2,1
159277,449,-8277,800,-1,-2,-2,1
159282,440,-8275,797,-1,-2,-2,1
159287,435,-8275,797,-1,-2,-2,1
159292,428,-8274,792,-1,-2,-2,1
159297,422,-8275,793,-1,-2,-2,1
159302,423,-8274,796,-2,-2,-2,1
159307,420,-8273,800,-1,-2,-2,1
159312,417,-8273,798,-1,-2,-2,1
159317,415,-8272,792,-1,-2,-2,1
159322,417,-8271,783,-1,-2,-2,1
159327,419,-8272,773,-1,-2,-2,1
159332,419,-8273,764,-1,-2,-2,1
159337,421,-8273,749,-1,-2,-2,1
159342,423,-8275,741,-2,-2,-2,1
159347,427,-8275,738,-2,-2,-2,1
159352,430,-8275,738,-1,-2,-2,1
159357,436,-8273,740,-1,-2,-2,1
159362,444,-8274,738,-1,-2,-2,1
159367,456,-8275,737,-1,-2,-2,1
159372,466,-8275,736,-1,-2,-2,1
159377,475,-8275,733,-1,-2,-2,1
159382,486,-8277,726,-1,-2,-1,1
159387,494,-8276,720,-1,-2,-1,1
159392,499,-8276,715,-1,-2,-1,1
159397,504,-8274,710,-1,-2,-1,1
159402,513,-8270,708,-1,-2,-1,1
159407,517,-8272,705,-1,-2,-1,1
159412,521,-8275,707,-1,-2,-1,1
159417,527,-8275,705,-1,-1,-1,1
159422,532,-8278,704,-1,-1,-1,1
159427,536,-8278,706,-1,-1,-1,1
159432,536,-8279,706,-1,-1,-1,1
159437,534,-8276,708,-1,-1,-1,1
159442,524,-8276,709,-1,-1,-1,1
159447,516,-8275,710,-1,-1,-1,1
159452,507,-8275,713,-1,-1,-1,1
159457,496,-8275,717,-1,-1,-1,1
159462,485,-8274,726,-1,-1,-1,1
159467,476,-8274,736,-1,-1,-1,1
159472,465,-8274,746,-1,-1,-1,1
159477,454,-8275,754,-1,-1,-1,1
159482,446,-8275,759,-1,-1,-1,1
159487,439,-8278,758,-1,-1,-1,1
159492,434,-8278,751,-1,-1,-1,1
159497,431,-8278,744,-1,-1,-1,1
159502,425,-8278,737,-1,-1,-1,1
159507,421,-8278,732,-1,-1,-1,1
159512,416,-8277,726,-1,-1,-1,1
159517,408,-8278,725,-1,-1,-1,1
159522,400,-8280,723,-1,-1,-1,1
159527,395,-8282,720,-1,-1,-1,1
159532,387,-8280,712,-1,-1,-1,1
159537,380,-8282,709,-1,-1,-1,1
159542,371,-8284,711,-1,-1,-1,1
159547,365,-8283,713,-1,-1,-1,1
159552,357,-8284,719,-1,-1,-1,1
159557,349,-8283,726,-1,-2,-1,1
159562,344,-8279,730,-1,-2,-1,1
159567,344,-8278,729,-1,-2,-1,1
159572,352,-8278,726,-1,-2,-1,1
159577,363,-8279,726,-1,-2,-1,1
159582,375,-8280,728,-1,-2,-1,1
159587,388,-8279,728,-1,-2,-1,1
159592,397,-8278,730,-1,-2,-1,1
159597,404,-8279,730,-1,-2,-1,1
159602,413,-8280,739,-1,-1,-1,1
159607,419,-8280,743,-1,-1,-1,1
159612,425,-8279,745,-1,-1,-1,1
159617,434,-8279,747,-1,-1,-1,1
159622,444,-8280,752,-1,-1,-1,1
159627,453,-8278,760,-1,-1,-1,1
159632,458,-8275,766,-1,-1,-1,1
159637,462,-8276,774,-1,-1,-1,1
159642,464,-8274,782,-1,-1,-1,1
159647,462,-8274,789,-1,-1,-1,1
159652,460,-8272,795,-1,-1,-1,1
159657,460,-8271,797,-1,-1,0,1
159662,457,-8273,798,-1,-1,0,1
159667,454,-8270,792,-1,0,0,1
159672,448,-8268,785,-1,0,0,1
159677,441,-8269,779,-1,0,0,1
159682,432,-8270,780,-1,0,0,1
159687,425,-8271,788,-1,0,0,1
159692,417,-8271,796,-1,0,0,1
159697,412,-8271,803,-1,0,0,1
159702,406,-8272,801,-1,0,0,1
159707,403,-8272,798,-1,0,0,1
159712,398,-8272,793,-1,0,0,1
159717,392,-8275,785,-1,0,0,1
159722,385,-8278,783,-1,0,0,1
159727,375,-8280,782,-1,0,0,1
159732,367,-8283,780,-2,0,0,1
159737,357,-8283,778,-2,0,0,1
159742,351,-8283,774,-2,0,0,1
159747,345,-8282,773,-1,0,0,1
159752,341,-8285,770,-1,0,0,1
159757,337,-8286,768,-1,0,0,1
159762,336,-8288,760,-1,0,0,1
159767,332,-8288,754,-1,0,0,1
159772,328,-8286,748,-1,0,0,1
159777,324,-8282,744,-1,0,0,1
159782,319,-8281,744,-2,0,0,1
159787,316,-8278,740,-1,0,0,1
159792,312,-8275,732,-1,0,0,1
159797,310,-8275,733,-1,0,0,1
159802,306,-8275,731,-1,0,0,1
159807,299,-8277,720,-1,0,0,1
159812,294,-8277,709,-1,0,0,1
159817,286,-8278,709,-1,0,-1,1
159822,278,-8280,705,-1,-1,-1,1
159827,276,-8283,704,-1,-1,-1,1
159832,271,-8284,701,-1,-1,-1,1
159837,267,-8282,695,-1,-1,-1,1
159842,259,-8280,694,-1,-1,-1,1
159847,254,-8282,695,-1,-1,-1,1
159852,248,-8282,693,-1,-1,-1,1
159857,242,-8283,684,-1,-1,-1,1
159862,234,-8284,678,-1,-1,-1,1
159867,224,-8283,669,-1,-1,-1,1
159872,214,-8284,664,-1,-1,-1,1
159877,207,-8284,657,-1,-1,-1,1
159882,200,-8285,657,-1,-1,-1,1
159887,193,-8285,663,-1,-1,-1,1
159892,184,-8285,665,-1,-1,-1,1
159897,180,-8287,672,-1,-1,-1,1
159902,172,-8287,673,-1,-1,-1,1
159907,162,-8287,670,-1,-2,-1,1
159912,155,-8285,663,-1,-2,-1,1
159917,150,-8284,655,-1,-2,-1,1
159922,145,-8282,645,-1,-2,-1,1
159927,143,-8279,640,-1,-2,-1,1
159932,144,-8277,636,-1,-2,-1,1
159937,146,-8278,633,-1,-2,-1,1
159942,143,-8281,635,-1,-2,-1,1
159947,141,-8281,638,-1,-2,-1,1
159952,135,-8281,638,-1,-2,-2,1
159957,128,-8280,639,-1,-2,-2,1
159962,122,-8282,635,-1,-2,-2,1
159967,117,-8281,630,-1,-2,-2,1
159972,118,-8278,631,-1,-2,-2,1
159977,122,-8278,639,-1,-2,-2,1
159982,127,-8278,654,-1,-2,-2,1
159987,136,-8278,665,-1,-3,-2,1
159992,145,-8277,675,-1,-3,-2,1
159997,155,-8274,682,-1,-3,-2,1
160002,162,-8272,689,-1,-3,-2,1
160007,168,-8272,693,-1,-3,-2,1
160012,183,-8274,691,-1,-3,-2,1
160017,203,-8273,695,-1,-3,-2,1
160022,218,-8273,698,-1,-3,-2,1
160027,235,-8271,708,-1,-3,-2,1
160032,249,-8269,726,-1,-3,-2,1
160037,260,-8268,744,-1,-3,-2,1
160042,269,-8271,751,-1,-3,-2,1
160047,285,-8273,757,-1,-3,-2,1
160052,295,-8272,767,-1,-3,-2,1
160057,302,-8271,777,-1,-3,-2,1
160062,313,-8273,790,-1,-3,-2,1
160067,320,-8269,806,-1,-3,-2,1
160072,331,-8266,817,-1,-3,-2,1
160077,339,-8264,831,-1,-3,-2,1
160082,344,-8266,840,-1,-3,-2,1
160087,348,-8267,851,-1,-3,-2,1
160092,350,-8267,851,-1,-2,-2,1
160097,349,-8266,847,-1,-2,-2,1
160102,350,-8266,845,-1,-3,-2,1
160107,347,-8266,834,-1,-3,-2,1
160112,351,-8265,824,-1,-3,-2,1
160117,358,-8268,814,-1,-3,-2,1
160122,365,-8268,804,-1,-2,-2,1
160127,372,-8272,799,-1,-2,-2,1
160132,373,-8276,796,-1,-2,-2,1
160137,376,-8277,793,-1,-3,-2,1
160142,380,-8277,791,-1,-2,-2,1
160147,378,-8277,785,-1,-2,-2,1
160152,379,-8275,781,-1,-2,-2,1
160157,384,-8271,771,-1,-2,-2,1
160162,394,-8270,764,-1,-2,-1,1
160167,401,-8269,757,-1,-2,-2,1
160172,404,-8271,753,-1,-2,-2,1
160177,410,-8272,746,-1,-2,-1,1
160182,415,-8273,741,-1,-2,-1,1
160187,415,-8273,744,-1,-2,-1,1
160192,418,-8273,746,-1,-2,-1,1
160197,423,-8272,745,-1,-2,-1,1
160202,430,-8272,748,-1,-2,-1,1
160207,441,-8269,743,-1,-2,-1,1
160212,455,-8269,743,-1,-2,-1,1
160217,464,-8270,740,-1,-2,-1,1
160222,470,-8274,744,-1,-2,-1,1
160227,471,-8275,754,-1,-2,-1,1
160232,473,-8273,763,-1,-2,-1,1
160237,471,-8274,773,-1,-2,-1,1
160242,466,-8275,785,-1,-1,-1,1
160247,463,-8278,794,-1,-1,-1,1
160252,464,-8279,804,-1,-1,-1,1
160257,464,-8275,811,-1,-1,-1,1
160262,461,-8271,821,-1,-2,-1,1
160267,451,-8271,832,-1,-1,-1,1
160272,442,-8272,837,-1,-1,-1,1
160277,432,-8271,843,-1,-1,-1,1
160282,418,-8268,849,-1,-1,-1,1
160287,401,-8268,860,-1,-1,-1,1
160292,392,-8270,868,-1,-1,0,1
160297,380,-8273,868,-2,-1,0,1
160302,365,-8273,871,-2,-1,0,1
160307,352,-8272,870,-2,-1,-1,1
160312,340,-8275,866,-2,-1,-1,1
160317,328,-8275,860,-2,-1,-1,1
160322,316,-8273,858,-2,-1,0,1
160327,310,-8270,859,-2,-1,-1,1
160332,302,-8270,857,-2,-1,-1,1
160337,293,-8269,851,-2,-1,-1,1
160342,281,-8268,852,-2,-1,-1,1
160347,269,-8269,849,-2,-1,-1,1
160352,258,-8270,843,-2,-1,-1,1
160357,249,-8271,838,-2,-1,-1,1
160362,238,-8270,835,-2,-1,-1,1
160367,230,-8269,828,-2,-1,-1,1
160372,220,-8270,818,-2,-1,-1,1
160377,211,-8272,804,-2,-1,-1,1
160382,200,-8273,786,-2,-1,-1,1
160387,192,-8274,771,-2,-1,-1,1
160392,183,-8274,759,-2,-1,-1,1
160397,176,-8275,754,-2,-1,-1,1
160402,173,-8275,750,-2,-1,-1,1
160407,171,-8278,747,-2,-1,-1,1
160412,170,-8277,740,-2,-1,-1,1
160417,171,-8277,735,-2,-1,-1,1
160422,176,-8276,728,-2,-1,-1,1
160427,176,-8277,727,-2,-1,-1,1
160432,173,-8280,716,-2,-1,-1,1
160437,173,-8280,699,-2,-1,-1,1
160442,170,-8281,690,-2,-1,-1,1
160447,169,-8279,683,-2,-1,-1,1
160452,171,-8279,676,-2,-1,-1,1
160457,173,-8281,671,-2,-1,-1,1
160462,176,-8282,672,-2,-1,-1,1
160467,179,-8283,672,-2,-1,-1,1
160472,183,-8285,671,-1,-1,-1,1
160477,187,-8289,670,-1,-1,-1,1
160482,192,-8288,666,-1,-2,-1,1
160487,197,-8287,660,-1,-2,-1,1
160492,202,-8286,662,-1,-2,-2,1
160497,205,-8288,659,-1,-2,-1,1
160502,211,-8288,663,-1,-2,-2,1
160507,212,-8285,672,-1,-2,-2,1
160512,214,-8285,681,-1,-2,-2,1
160517,217,-8283,683,-1,-2,-2,1
160522,221,-8281,681,-1,-2,-2,1
160527,226,-8279,681,-1,-2,-2,1
160532,230,-8280,674,-1,-2,-1,1
160537,234,-8279,672,-1,-2,-2,1
160542,236,-8278,673,-1,-2,-2,1
160547,235,-8278,677,-1,-2,-2,1
160552,235,-8276,680,-1,-2,-2,1
160557,232,-8274,685,-1,-2,-2,1
160562,231,-8274,687,-1,-2,-2,1
160567,227,-8274,690,-1,-2,-2,1
160572,228,-8276,691,-1,-2,-2,1
160577,228,-8275,688,-1,-2,-2,1
160582,231,-8276,684,-1,-2,-2,1
160587,233,-8279,684,-1,-2,-2,1
160592,239,-8280,685,-1,-2,-2,1
160597,242,-8277,679,-1,-2,-2,1
160602,240,-8275,681,-1,-2,-2,1
160607,238,-8278,678,-1,-2,-2,1
160612,234,-8279,677,-1,-2,-2,1
160617,235,-8279,675,-1,-2,-2,1
160622,236,-8278,667,-1,-2,-2,1
160627,235,-8277,665,-1,-2,-2,1
160632,240,-8277,660,-1,-2,-2,1
160637,243,-8277,654,-1,-2,-2,1
160642,244,-8275,645,-1,-2,-2,1
160647,248,-8276,638,-1,-2,-2,1
160652,253,-8277,628,-1,-2,-2,1
160657,254,-8276,621,-1,-2,-2,1
160662,256,-8278,618,-1,-2,-2,1
160667,255,-8279,619,-1,-2,-2,1
160672,255,-8278,621,-1,-2,-2,1
160677,256,-8276,622,-1,-2,-2,1
160682,256,-8276,639,-1,-2,-2,1
160687,255,-8278,653,-1,-2,-2,1
160692,256,-8279,667,-1,-2,-2,1
160697,259,-8277,681,-1,-2,-2,1
160702,259,-8274,695,-1,-2,-2,1
160707,259,-8273,713,-1,-2,-2,1
160712,257,-8275,734,-1,-2,-2,1
160717,257,-8279,751,-1,-2,-2,1
160722,260,-8280,767,-1,-2,-2,1
160727,265,-8278,791,-1,-2,-2,1
160732,271,-8276,808,-1,-2,-2,1
160737,275,-8274,833,-1,-2,-2,1
160741,280,-8275,850,-1,-2,-2,1
160746,287,-8274,862,-1,-2,-2,1
160752,289,-8271,870,-1,-2,-2,1
160757,293,-8271,881,-1,-2,-2,1
160762,297,-8271,886,-1,-2,-2,1
160767,300,-8269,894,-1,-2,-2,1
160772,303,-8269,902,-1,-2,-2,1
160776,310,-8268,905,-1,-2,-2,1
160781,316,-8269,903,-1,-2,-2,1
160787,322,-8271,895,-1,-2,-2,1
160792,323,-8271,889,-1,-2,-2,1
160796,323,-8271,879,-2,-2,-2,1
160801,322,-8274,871,-1,-2,-2,1
160807,325,-8276,861,-2,-2,-2,1
160812,329,-8275,847,-2,-2,-2,1
160817,333,-8277,832,-2,-2,-2,1
160821,339,-8276,816,-2,-2,-2,1
160827,343,-8276,802,-2,-2,-2,1
160832,346,-8277,787,-1,-2,-2,1
160837,346,-8276,774,-2,-2,-2,1
160841,347,-8274,768,-2,-2,-2,1
160846,345,-8275,759,-2,-2,-2,1
160852,345,-8276,755,-1,-2,-2,1
160856,346,-8280,747,-1,-2,-1,1
160861,345,-8281,741,-1,-2,-2,1
160867,343,-8285,732,-1,-2,-1,1
160871,342,-8284,725,-1,-2,-1,1
160876,341,-8282,718,-1,-2,-2,1
160881,339,-8283,715,-1,-2,-1,1
160886,336,-8282,711,-1,-2,-1,1
160891,331,-8282,703,-1,-2,-1,1
160897,323,-8284,696,-1,-2,-1,1
160901,317,-8285,690,-1,-2,-1,1
160906,311,-8285,689,-1,-2,-1,1
160912,301,-8285,690,-1,-2,-1,1
160916,293,-8284,684,-1,-2,-1,1
160921,282,-8283,679,-1,-2,-1,1
160927,270,-8285,676,-1,-2,-1,1
160931,260,-8287,667,-1,-2,-2,1
160937,251,-8288,662,-1,-2,-1,1
160942,239,-8289,657,-1,-2,-1,1
160946,230,-8289,659,-1,-2,-2,1
160951,222,-8289,664,-1,-2,-2,1
160957,216,-8290,666,-1,-2,-2,1
160961,214,-8290,670,-1,-2,-2,1
160966,211,-8288,680,-1,-2,-2,1
160972,209,-8283,687,-1,-2,-2,1
160977,210,-8281,693,-1,-2,-2,1
160981,212,-8279,695,-1,-2,-2,1
160986,215,-8278,698,-1,-2,-2,1
160991,218,-8280,704,-1,-2,-2,1
160996,223,-8282,709,-1,-2,-2,1
161001,221,-8282,716,-1,-2,-2,1
161007,218,-8281,720,-1,-2,-2,1
161011,217,-8278,729,-1,-2,-2,1
161016,220,-8276,740,-1,-3,-2,1
161021,219,-8275,756,-1,-3,-2,1
161026,226,-8273,774,-1,-3,-2,1
161031,234,-8273,780,-1,-3,-2,1
161036,244,-8271,780,-1,-3,-2,1
161041,253,-8272,781,-1,-3,-2,1
161046,258,-8274,783,-1,-3,-2,1
161051,256,-8276,785,-1,-3,-2,1
161056,258,-8276,787,-1,-3,-2,1
161061,260,-8276,795,-1,-3,-2,1
161066,265,-8276,800,-1,-3,-2,1
161071,271,-8276,801,-1,-3,-2,1
161076,278,-8277,803,-1,-2,-2,1
161081,285,-8278,799,-1,-2,-2,1
161086,289,-8277,795,-1,-2,-2,1
161091,294,-8276,792,-1,-2,-2,1
161096,296,-8275,793,-1,-2,-2,1
161101,296,-8274,793,-1,-2,-2,1
161106,294,-8273,797,-1,-2,-2,1
161111,296,-8272,794,-1,-2,-2,1
161116,297,-8275,786,-1,-2,-2,1
161121,298,-8274,775,-1,-2,-2,1
161126,304,-8275,763,-1,-2,-2,1
161131,311,-8274,755,-1,-2,-2,1
161136,315,-8275,759,-1,-2,-2,1
161141,312,-8276,759,-1,-2,-2,1
161146,307,-8276,759,-1,-2,-2,1
161151,305,-8277,758,-1,-2,-2,1
161156,302,-8280,748,-1,-2,-2,1
161161,303,-8278,737,-1,-2,-2,1
161166,302,-8277,722,-1,-2,-2,1
161171,303,-8277,710,-1,-2,-2,1
161176,304,-8276,703,-1,-2,-2,1
161181,306,-8277,698,-1,-2,-2,1
161186,306,-8279,692,-1,-2,-2,1
161191,307,-8277,686,-1,-2,-2,1
161196,306,-8276,686,-1,-2,-2,1
161201,304,-8278,680,-1,-2,-2,1
161206,301,-8279,677,-1,-2,-2,1
161211,302,-8281,678,-1,-2,-2,1
161216,303,-8281,683,-1,-2,-2,1
161221,301,-8281,687,-1,-2,-2,1
161226,301,-8279,699,-1,-2,-2,1
161231,304,-8280,710,-1,-2,-2,1
161236,303,-8279,725,-1,-2,-2,1
161241,304,-8276,732,-1,-2,-2,1
161246,309,-8271,740,-1,-2,-2,1
161251,307,-8271,745,-1,-2,-2,1
161256,309,-8268,754,-1,-2,-2,1
161261,306,-8268,764,-1,-2,-2,1
161266,311,-8270,765,-1,-2,-2,1
161271,317,-8270,773,-1,-2,-2,1
161276,320,-8269,774,-1,-2,-2,1
161281,324,-8272,775,-1,-2,-2,1
161286,327,-8273,776,-1,-2,-2,1
161291,328,-8275,776,-1,-2,-2,1
161296,327,-8275,773,-1,-2,-2,1
161301,323,-8277,766,-1,-2,-2,1
161306,318,-8278,761,-1,-2,-2,1
161311,315,-8277,755,-1,-2,-2,1
161316,311,-8275,754,-1,-2,-2,1
161321,307,-8276,752,-1,-2,-2,1
161326,303,-8276,752,-1,-2,-2,1
161331,298,-8277,748,-1,-2,-2,1
161336,297,-8279,744,-1,-2,-2,1
161341,296,-8279,744,-1,-2,-2,1
161346,290,-8279,739,-1,-2,-2,1
161351,288,-8281,732,-1,-2,-2,1
161356,290,-8281,727,-1,-2,-2,1
161361,290,-8280,720,-1,-2,-2,1
161366,288,-8284,713,-1,-2,-2,1
161371,286,-8285,713,-1,-2,-2,1
161376,280,-8284,714,-1,-2,-2,1
161381,275,-8285,713,-1,-2,-2,1
161386,269,-8285,713,-1,-2,-2,1
161391,262,-8285,705,-1,-2,-2,1
161396,256,-8285,695,-1,-2,-2,1
161401,251,-8286,686,-1,-2,-2,1
161406,244,-8285,689,-1,-2,-2,1
161411,236,-8284,691,-1,-2,-2,1
161416,228,-8283,691,-1,-2,-2,1
161421,222,-8280,691,-1,-2,-2,1
161426,218,-8281,694,-1,-2,-2,1
161431,216,-8280,689,-1,-2,-2,1
161436,215,-8279,679,-1,-2,-2,1
161441,219,-8276,673,-1,-2,-2,1
161446,221,-8275,665,-1,-2,-2,1
161451,224,-8276,667,-1,-2,-2,1
161456,229,-8274,674,-1,-2,-2,1
161461,233,-8276,685,-1,-2,-2,1
161466,239,-8280,685,-1,-2,-2,1
161471,243,-8279,689,-1,-2,-2,1
161476,250,-8281,692,-1,-2,-2,1
161481,259,-8281,695,-1,-2,-2,1
161486,266,-8279,700,-1,-2,-2,1
161491,269,-8278,701,-1,-2,-2,1
161496,269,-8275,710,-1,-2,-2,1
161501,272,-8274,721,-1,-2,-2,1
161506,274,-8273,735,-1,-2,-2,1
161511,279,-8273,748,-1,-2,-2,1
161516,287,-8271,759,-1,-2,-2,1
161521,292,-8273,761,-1,-2,-2,1
161526,298,-8274,762,-1,-2,-2,1
161531,303,-8275,762,-1,-2,-2,1
161536,306,-8275,764,-1,-2,-2,1
161541,308,-8273,765,-1,-3,-2,1
161546,310,-8272,774,-1,-3,-2,1
161551,312,-8276,786,-1,-3,-2,1
161556,316,-8278,797,-1,-2,-2,1
161561,324,-8279,806,-1,-2,-2,1
161566,334,-8277,815,-1,-2,-2,1
161571,340,-8273,820,-1,-2,-2,1
161576,342,-8273,826,-1,-2,-2,1
161581,341,-8274,832,-1,-2,-2,1
161586,337,-8276,835,-1,-2,-2,1
161591,335,-8276,837,-1,-2,-2,1
161596,334,-8275,833,-1,-2,-2,1
161601,334,-8275,826,-1,-2,-2,1
161606,334,-8275,824,-1,-2,-2,1
161611,333,-8278,821,-1,-2,-2,1
161616,332,-8278,817,-1,-3,-2,1
161621,333,-8276,813,-1,-3,-2,1
161626,331,-8276,804,-1,-3,-2,1
161631,330,-8273,799,-1,-3,-2,1
161636,333,-8272,795,-1,-2,-2,1
161641,335,-8276,789,-1,-2,-2,1
161646,340,-8277,789,-1,-2,-2,1
161651,336,-8277,785,-1,-2,-2,1
161656,334,-8278,778,-1,-2,-2,1
161661,331,-8278,768,-1,-2,-2,1
161666,328,-8278,755,-1,-2,-2,1
161671,331,-8279,748,-1,-2,-2,1
161676,328,-8281,740,-1,-2,-2,1
161681,325,-8279,734,-1,-3,-2,1
161686,319,-8275,732,-1,-3,-2,1
161691,316,-8277,723,-1,-3,-2,1
161696,310,-8277,717,-1,-3,-2,1
161701,310,-8276,712,-1,-3,-2,1
161706,316,-8277,705,-1,-3,-2,1
161711,323,-8277,698,-1,-3,-2,1
161716,332,-8275,692,-1,-3,-2,1
161721,343,-8272,688,-1,-3,-2,1
161726,358,-8274,685,-1,-3,-2,1
161731,367,-8274,684,-1,-3,-2,1
161736,375,-8274,689,-1,-3,-2,1
161741,384,-8277,690,-1,-3,-2,1
161746,390,-8279,690,-1,-3,-2,1
161751,397,-8279,682,-1,-3,-2,1
161756,409,-8280,678,-1,-3,-2,1
161761,415,-8281,679,-1,-3,-2,1
161766,419,-8283,680,-1,-3,-2,1
161771,419,-8282,680,-1,-4,-2,1
161776,422,-8281,680,-1,-3,-2,1
161781,428,-8280,680,-1,-4,-2,1
161786,428,-8280,679,-1,-4,-2,1
161791,425,-8277,684,-1,-4,-2,1
161796,427,-8276,698,-1,-3,-2,1
161801,425,-8274,711,-1,-3,-2,1
161806,419,-8273,720,-1,-3,-1,1
161811,420,-8272,731,-1,-2,-1,1
161816,425,-8272,737,-1,-2,-2,1
161821,430,-8272,749,-1,-2,-2,1
161826,434,-8276,758,-1,-2,-1,1
161831,434,-8277,760,-1,-2,-1,1
161836,430,-8274,762,-1,-2,-1,1
161841,428,-8276,760,-1,-2,-1,1
161846,425,-8276,759,-1,-2,-1,1
161851,425,-8276,764,-1,-2,-1,1
161856,422,-8275,764,-1,-2,-1,1
161861,423,-8277,762,-1,-2,-1,1
161866,423,-8277,763,-1,-2,-1,1
161871,423,-8279,759,-1,-2,-1,1
161876,421,-8277,757,-1,-2,-1,1
161881,412,-8277,752,-1,-2,-1,1
161886,403,-8276,749,-1,-2,-1,1
161891,393,-8276,753,-1,-2,-1,1
161896,385,-8276,756,-1,-2,-1,1
161901,377,-8279,755,-1,-2,-1,1
161906,374,-8280,754,-1,-2,-1,1
161911,372,-8282,748,-1,-2,-1,1
161916,371,-8284,745,-1,-2,-1,1
161921,368,-8282,744,-1,-2,-1,1
161926,366,-8279,737,-1,-2,-1,1
161931,362,-8278,728,-1,-2,-1,1
161936,358,-8279,721,-1,-2,-1,1
161941,356,-8279,718,-1,-2,-1,1
161946,352,-8279,709,-1,-2,-1,1
161951,351,-8280,707,-1,-2,-1,1
161956,349,-8279,705,-1,-2,-1,1
161961,352,-8276,704,-1,-2,-1,1
161966,353,-8276,708,-1,-2,-1,1
161971,351,-8276,708,-1,-2,-1,1
161976,348,-8277,710,-1,-2,-1,1
161981,348,-8279,712,-1,-2,-1,1
161986,350,-8279,711,-1,-2,-1,1
161991,347,-8278,715,-1,-2,-1,1
161996,351,-8279,715,-1,-2,-1,1
162001,357,-8277,716,-1,-2,-1,1
162006,360,-8275,718,-1,-3,-1,1
162011,366,-8276,712,-1,-3,-1,1
162016,368,-8277,702,-1,-3,-1,1
162021,381,-8280,689,-1,-5,-1,1
162026,391,-8283,687,-1,-6,-1,1
162031,404,-8285,684,-1,-7,-1,1
162036,424,-8282,671,-1,-7,-1,1
162041,434,-8281,678,-1,-7,-1,1
162046,437,-8281,668,-1,-8,-1,1
162051,435,-8281,668,-1,-9,-1,1
162056,423,-8282,667,-1,-10,0,1
162061,401,-8283,669,-1,-11,0,1
162066,374,-8284,679,-1,-11,0,1
162071,351,-8285,692,-1,-11,0,1
162076,332,-8284,720,-1,-10,0,1
162081,319,-8281,740,-1,-9,0,1
162086,308,-8281,763,-1,-8,0,1
162091,303,-8280,782,-1,-8,-1,1
162096,303,-8281,790,-1,-7,-1,1
162101,302,-8279,801,-1,-6,-1,1
162106,306,-8278,804,-1,-6,-1,1
162111,307,-8279,805,-1,-6,-1,1
162116,308,-8280,800,-1,-6,-1,1
162121,311,-8280,791,-1,-6,-1,1
162126,315,-8279,789,-1,-6,-1,1
162131,321,-8277,787,-1,-6,-1,1
162136,327,-8277,792,-1,-6,-1,1
162141,329,-8276,800,-1,-7,-1,1
162146,328,-8277,794,-1,-7,-1,1
162151,318,-8276,793,-1,-7,-1,1
162156,311,-8276,792,-1,-7,-1,1
162161,302,-8276,792,-1,-7,-1,1
162166,295,-8275,790,-1,-8,-1,1
162171,288,-8277,792,-1,-8,-1,1
162176,285,-8275,793,-1,-8,-1,1
162181,285,-8275,791,-1,-8,-1,1
162186,284,-8275,789,-1,-8,-1,1
162191,273,-8275,791,-1,-9,-1,1
162196,256,-8274,790,-1,-8,-1,1
162201,238,-8272,797,-1,-7,-1,1
162206,227,-8268,805,-1,-5,-1,1
162211,226,-8267,818,-1,-4,-1,1
162216,230,-8267,833,-1,-3,-1,1
162221,234,-8267,837,-1,-2,-1,1
162226,239,-8270,832,-1,-2,-1,1
162231,244,-8271,818,-1,-2,-1,1
162236,246,-8271,799,-1,-2,-1,1
162241,242,-8269,784,-1,-2,-1,1
162246,238,-8269,772,-1,-2,-1,1
162251,236,-8269,769,-1,-3,-1,1
162256,238,-8268,772,-1,-3,-1,1
162261,243,-8265,773,-1,-3,-1,1
162266,255,-8266,770,-1,-3,-1,1
162271,270,-8265,767,-1,-3,-1,1
162276,285,-8268,760,-1,-3,-1,1
162281,297,-8270,749,-1,-3,-1,1
162286,300,-8271,739,-1,-3,-1,1
162291,304,-8273,726,-1,-4,-1,1
162296,305,-8275,718,-1,-4,-1,1
162301,306,-8274,717,-1,-5,-1,1
162306,303,-8276,727,-1,-4,-1,1
162311,302,-8276,738,-1,-4,-1,1
162316,306,-8274,756,-1,-3,-1,1
162321,307,-8272,765,-1,-3,-1,1
162326,307,-8270,771,-1,-3,-1,1
162331,307,-8267,769,-1,-3,-1,1
162336,304,-8266,768,-1,-2,-1,1
162341,299,-8267,759,-1,-2,-1,1
162346,295,-8270,760,-1,-2,-1,1
162351,292,-8272,763,-1,-2,-1,1
162356,286,-8271,773,-1,-2,-1,1
162361,280,-8271,790,-1,-2,-1,1
162366,271,-8267,803,-1,-2,-1,1
162371,261,-8266,817,-1,-1,-1,1
162376,257,-8268,828,-1,-1,-1,1
162381,251,-8270,833,-1,-1,-1,1
162386,247,-8271,823,-1,-2,-1,1
162391,244,-8272,812,-1,-2,-1,1
162396,244,-8271,801,-1,-2,-1,1
162401,240,-8270,789,-1,-2,-1,1
162406,237,-8271,785,-1,-2,-1,1
162411,235,-8274,782,-1,-2,-1,1
162416,232,-8272,784,-1,-2,-1,1
162421,230,-8274,784,-1,-2,-1,1
162426,227,-8276,785,-1,-2,-1,1
162431,222,-8277,784,-1,-2,-1,1
162436,217,-8279,778,-1,-2,-1,1
162441,211,-8277,765,-1,-2,-1,1
162446,205,-8279,768,-1,-2,-1,1
162451,206,-8279,775,-1,-1,-2,1
162456,207,-8276,780,-1,-2,-2,1
162461,206,-8275,775,-1,-2,-2,1
162466,213,-8273,771,-1,-2,-2,1
162471,222,-8271,761,-1,-2,-2,1
162476,231,-8271,746,-1,-2,-2,1
162481,238,-8275,733,-1,-2,-2,1
162486,246,-8278,724,-1,-1,-2,1
162491,256,-8278,722,-1,-1,-2,1
162496,265,-8276,727,-1,-1,-2,1
162501,270,-8276,735,-1,-1,-2,1
162506,276,-8275,748,-1,-2,-2,1
162511,281,-8276,757,-1,-2,-2,1
162516,286,-8278,761,-1,-2,-2,1
162521,290,-8279,757,-1,-1,-2,1
162526,290,-8280,754,-1,-1,-2,1
162531,295,-8278,752,-1,-1,-2,1
162536,298,-8275,761,-1,-2,-1,1
162541,295,-8274,769,-1,-2,-2,1
162546,288,-8273,772,-1,-2,-2,1
162551,283,-8274,775,-1,-2,-2,1
162556,280,-8276,775,-1,-2,-1,1
162561,274,-8276,776,-1,-2,-2,1
162566,268,-8277,766,-1,-3,-2,1
162571,264,-8275,757,-1,-3,-1,1
162576,259,-8275,755,-1,-3,-1,1
162581,254,-8276,755,-1,-3,-2,1
162586,247,-8276,751,-1,-3,-2,1
162591,240,-8276,746,-1,-3,-2,1
162596,235,-8277,746,-1,-3,-2,1
162601,231,-8278,749,-1,-3,-2,1
162606,225,-8277,752,-1,-3,-2,1
162611,221,-8279,753,-1,-4,-2,1
162616,219,-8280,756,-1,-4,-2,1
162621,216,-8283,757,-1,-4,-2,1
162626,209,-8283,758,-1,-4,-2,1
162631,200,-8282,764,-1,-4,-2,1
162636,186,-8280,779,-1,-4,-2,1
162641,171,-8277,793,-1,-4,-2,1
162646,155,-8276,811,-1,-4,-2,1
162651,136,-8277,827,-1,-4,-2,1
162656,112,-8276,841,-1,-5,-2,1
162661,97,-8276,857,-1,-6,-2,1
162666,84,-8276,866,-1,-8,-2,1
162671,71,-8276,878,-1,-10,-2,1
162676,63,-8278,891,-1,-12,-2,1
162681,62,-8279,896,-1,-13,-2,1
162686,65,-8278,904,-1,-14,-2,1
162691,70,-8275,912,-1,-16,-2,1
162696,81,-8274,915,-1,-18,-2,1
162701,96,-8274,911,-1,-19,-2,1
162706,106,-8276,898,-1,-20,-2,1
162711,109,-8275,888,-1,-19,-2,1
162716,111,-8276,883,-2,-18,-3,1
162721,101,-8275,894,-2,-16,-3,1
162726,89,-8271,917,-2,-14,-3,1
162731,80,-8269,944,-2,-11,-3,1
162736,78,-8264,967,-2,-9,-3,1
162741,85,-8259,973,-2,-7,-3,1
162746,103,-8257,959,-2,-7,-3,1
162751,146,-8257,919,-2,-7,-3,1
162756,196,-8262,874,-2,-10,-3,1
162761,234,-8269,833,-2,-13,-3,1
162766,241,-8273,806,-2,-15,-3,1
162771,225,-8274,812,-2,-16,-3,1
162776,205,-8272,848,-2,-15,-3,1
162781,180,-8268,902,-2,-15,-3,1
162786,162,-8264,958,-2,-15,-3,1
162791,158,-8260,998,-2,-15,-3,1
162796,186,-8260,1008,-2,-17,-3,1
162801,228,-8262,1001,-2,-19,-3,1
162806,268,-8264,985,-2,-21,-3,1
162811,308,-8267,973,-3,-23,-3,1
162816,339,-8268,985,-3,-25,-3,1
162821,364,-8263,1005,-3,-29,-3,1
162826,358,-8260,1037,-3,-31,-3,1
162831,337,-8259,1060,-3,-30,-3,1
162836,340,-8262,1062,-3,-24,-3,1
162841,373,-8263,1054,-3,-18,-4,1
162846,444,-8261,1027,-3,-12,-4,1
162851,546,-8263,989,-3,-8,-4,1
162856,655,-8264,942,-3,-8,-3,1
162861,762,-8268,888,-4,-7,-3,1
162866,846,-8271,839,-4,-7,-3,1
162871,909,-8271,782,-4,-6,-3,1
162876,943,-8272,740,-4,-4,-3,1
162881,958,-8270,721,-3,-3,-3,1
162886,966,-8266,717,-3,-2,-3,1
162891,960,-8262,727,-3,-2,-3,1
162896,955,-8260,733,-3,-3,-3,1
162901,957,-8262,748,-3,-4,-2,1
162906,974,-8259,762,-3,-4,-2,1
162911,1012,-8258,774,-3,-4,-1,1
162916,1061,-8257,793,-3,-4,-1,1
162921,1117,-8255,805,-3,-3,0,1
162926,1177,-8256,813,-3,-2,0,1
162931,1235,-8259,800,-3,-1,0,1
162936,1281,-8260,762,-3,-1,0,1
162941,1311,-8263,700,-3,0,1,1
162946,1331,-8264,625,-3,0,1,1
162951,1336,-8271,551,-3,1,1,1
162956,1331,-8274,493,-3,3,1,1
162961,1242,-8312,522,-3,4,2,1
162966,1175,-8348,514,-3,4,2,1
162971,1506,-8354,242,-3,10,1,1
162976,1930,-8367,-61,-4,13,-1,1
162981,2261,-8405,-338,-6,9,-4,1
162986,2234,-8394,-373,-7,4,-6,1
162991,2046,-8317,-339,-8,2,-7,1
162996,1896,-8222,-311,-8,5,-8,1
163001,2014,-8112,-453,-8,11,-9,1
163006,2343,-8090,-640,-9,17,-11,1
163011,2602,-8106,-733,-11,18,-14,1
163016,2602,-8127,-662,-12,13,-17,1
163021,2263,-8186,-431,-13,10,-18,1
163026,1959,-8232,-291,-12,11,-19,1
163031,1893,-8207,-291,-12,17,-20,1
163036,2152,-8150,-434,-13,19,-21,1
163041,2410,-8149,-491,-14,19,-24,1
163046,2483,-8115,-427,-16,12,-26,1
163051,2241,-8096,-212,-16,8,-28,1
163056,1911,-8163,-3,-16,8,-29,1
163061,1818,-8171,34,-16,12,-30,1
163066,2031,-8146,-35,-17,16,-32,1
163071,2337,-8187,-106,-18,15,-35,1
163076,2296,-8130,38,-19,8,-37,1
163081,1976,-8070,248,-19,1,-38,1
163086,1550,-8016,461,-18,2,-38,1
163091,1459,-7953,455,-18,9,-39,1
163096,1726,-7871,365,-18,19,-41,1
163101,2035,-7895,296,-19,20,-43,1
163106,2156,-7840,335,-20,13,-46,1
163111,1917,-7895,486,-20,6,-47,1
163116,1535,-7758,637,-20,5,-47,1
163121,1482,-7563,614,-19,11,-47,1
163125,1572,-7503,610,-19,19,-48,1
163131,1947,-7169,439,-20,18,-50,1
163135,2045,-7593,599,-21,13,-52,1
163141,2057,-7171,668,-21,4,-54,1
163146,1611,-7438,923,-20,-5,-53,1
163151,1566,-7107,867,-20,-2,-55,1
163156,1462,-6852,793,-20,4,-55,1
163161,1883,-7003,601,-21,6,-57,1
163166,2033,-7005,722,-21,9,-60,1
163171,2131,-6781,708,-22,-5,-61,1
163175,1768,-6719,936,-20,-13,-61,1
163181,1703,-6509,737,-20,-20,-61,1
163185,1609,-6453,672,-19,-12,-61,1
163191,1951,-6397,481,-20,-10,-62,1
163196,2117,-6326,563,-20,-8,-64,1
163201,2275,-6066,607,-20,-20,-65,1
163205,2155,-6130,731,-19,-26,-65,1
163211,2136,-6152,691,-19,-29,-65,1
163216,2131,-6032,618,-19,-22,-65,1
163221,2257,-5885,590,-19,-17,-66,1
163226,2362,-5997,689,-19,-13,-67,1
163230,2483,-5583,672,-19,-14,-68,1
163235,2494,-5775,759,-19,-13,-68,1
163240,2489,-5912,845,-18,-18,-68,1
163246,2554,-5928,794,-19,-21,-68,1
163251,2501,-5825,824,-18,-17,-68,1
163256,2614,-5626,963,-18,-21,-68,1
163260,2561,-5475,951,-18,-22,-67,1
163265,2488,-5523,826,-16,-30,-67,1
163270,2413,-5482,723,-16,-36,-68,1
163276,2409,-5645,292,-16,-38,-67,1
163280,2329,-5319,-79,-13,-36,-66,1
163285,2661,-5699,-206,-13,-35,-67,1
163291,2905,-5658,-213,-13,-25,-69,1
163296,3255,-5545,-193,-13,-21,-71,1
163301,3430,-5447,-109,-12,-19,-72,1
163305,3569,-5523,-130,-11,-21,-73,1
163310,3573,-5575,-221,-11,-17,-73,1
163315,3602,-5741,-301,-11,-11,-74,1
163321,3638,-5819,-338,-10,-4,-75,1
163325,3602,-5723,-302,-9,1,-75,1
163331,3677,-6047,-248,-8,1,-76,1
163335,3565,-5988,-235,-6,-3,-75,1
163340,3553,-5888,-361,-5,-6,-76,1
163345,3415,-5804,-376,-4,-4,-76,1
163350,3470,-5865,-448,-3,-5,-76,1
163355,3454,-5742,-431,-2,-2,-76,1
163360,3506,-5710,-429,-1,2,-77,1
163366,3664,-5696,-426,1,7,-77,1
163370,3687,-5725,-423,2,10,-78,1
163375,3787,-5760,-461,4,10,-78,1
163380,3794,-5696,-514,5,9,-78,1
163385,3824,-5775,-505,6,6,-78,1
163390,3815,-5754,-445,7,2,-78,1
163396,4042,-5671,-449,8,-6,-77,1
163400,4169,-5617,-430,11,-31,-75,1
163405,4154,-5657,-456,12,-60,-73,1
163410,3947,-5734,-459,12,-62,-74,1
163415,3679,-5760,-344,12,-42,-76,1
163420,3483,-5677,-124,11,-18,-78,1
163425,3301,-5535,114,12,-6,-78,1
163430,3358,-5528,236,13,-8,-78,1
163435,3395,-5700,314,14,-19,-76,1
163440,3566,-5915,201,15,-32,-75,1
163445,3629,-6114,73,15,-35,-74,1
163450,3750,-6244,-42,15,-31,-74,1
163455,3851,-6322,-130,16,-27,-74,1
163460,3997,-6333,-202,17,-31,-74,1
163465,4096,-6375,-300,18,-44,-73,1
163470,4154,-6425,-424,19,-60,-72,1
163475,4178,-6465,-540,19,-72,-71,1
163480,4294,-6646,-676,20,-75,-70,1
163485,4261,-6777,-692,21,-76,-69,1
163490,4372,-6859,-738,21,-79,-68,1
163495,4454,-6987,-745,22,-77,-68,1
163500,4545,-7084,-748,22,-80,-67,1
163505,4661,-7223,-831,23,-79,-67,1
163510,4653,-7367,-816,23,-72,-66,1
163515,4809,-7486,-899,23,-66,-65,1
163520,4785,-7596,-800,23,-55,-64,1
163525,4848,-7686,-773,24,-50,-64,1
163530,4930,-7781,-763,24,-40,-63,1
163535,5009,-7868,-763,25,-31,-62,1
163540,5139,-7964,-885,25,-20,-62,1
163545,5114,-8067,-1022,26,-6,-61,1
163550,5172,-8125,-1217,27,9,-60,1
163555,5284,-8224,-1298,28,23,-59,1
163560,5504,-8325,-1324,28,27,-58,1
163565,5747,-8356,-1334,29,21,-56,1
163570,5945,-8463,-1276,31,15,-54,1
163575,6110,-8517,-1250,31,9,-52,1
163580,6345,-8547,-1253,32,6,-51,1
163585,6413,-8564,-1167,32,5,-49,1
163590,6546,-8549,-1098,32,-3,-47,1
163595,6621,-8541,-976,32,-5,-46,1
163600,6591,-8527,-825,32,-10,-44,1
163605,6582,-8520,-702,32,-12,-43,1
163610,6580,-8521,-591,32,-11,-41,1
163615,6684,-8527,-598,32,-11,-40,1
163620,6747,-8520,-553,32,-11,-39,1
163625,6821,-8452,-536,32,-17,-37,1
163630,6888,-8380,-518,31,-25,-37,1
163635,6948,-8330,-470,31,-33,-35,1
163640,7052,-8210,-461,31,-38,-33,1
163645,7115,-8193,-430,30,-35,-32,1
163650,7228,-8162,-396,30,-33,-31,1
163655,7488,-8131,-465,29,-36,-30,1
163660,7495,-8082,-401,29,-37,-29,1
163665,7702,-8004,-426,29,-42,-28,1
163670,7657,-7937,-453,28,-43,-27,1
163675,7690,-7843,-438,27,-48,-26,1
163680,7676,-7759,-462,26,-48,-25,1
163685,7572,-7669,-334,26,-47,-24,1
163690,7621,-7556,-317,25,-46,-23,1
163695,7574,-7466,-258,25,-42,-23,1
163700,7623,-7354,-265,24,-44,-22,1
163705,7583,-7284,-330,24,-44,-21,1
163710,7549,-7219,-323,23,-45,-21,1
163715,7591,-7147,-405,22,-42,-20,1
163720,7489,-7116,-439,21,-36,-20,1
163725,7530,-7040,-436,21,-36,-19,1
163730,7543,-6995,-514,20,-34,-19,1
163735,7507,-6943,-539,20,-35,-18,1
163740,7463,-6872,-638,20,-36,-18,1
163745,7413,-6802,-673,19,-36,-17,1
163750,7382,-6731,-703,19,-34,-16,1
163755,7404,-6662,-712,19,-32,-16,1
163760,7405,-6601,-739,18,-33,-15,1
163765,7466,-6542,-819,18,-34,-15,1
163770,7416,-6493,-844,18,-35,-15,1
163775,7389,-6426,-883,17,-37,-15,1
163780,7269,-6353,-864,16,-36,-14,1
163785,7133,-6278,-798,16,-35,-14,1
163790,7000,-6223,-751,15,-32,-14,1
163795,6840,-6181,-664,15,-29,-13,1
163800,6769,-6154,-645,14,-27,-13,1
163805,6708,-6135,-630,14,-24,-13,1
163810,6695,-6117,-660,13,-22,-13,1
163815,6663,-6090,-685,12,-19,-13,1
163820,6632,-6057,-694,11,-18,-13,1
163825,6609,-6026,-665,11,-18,-13,1
163830,6558,-6004,-636,10,-18,-13,1
163835,6557,-6010,-628,9,-19,-13,1
163840,6520,-6013,-623,9,-17,-13,1
163845,6472,-5986,-656,8,-13,-13,1
163850,6422,-5950,-660,7,-6,-13,1
163855,6419,-5925,-663,7,1,-13,1
163860,6436,-5909,-639,6,7,-13,1
163865,6487,-5885,-646,6,8,-13,1
163870,6528,-5872,-661,5,6,-12,1
163875,6571,-5875,-658,5,4,-12,1
163880,6612,-5883,-634,4,2,-12,1
163885,6649,-5881,-629,4,1,-12,1
163890,6666,-5859,-600,3,0,-12,1
163895,6677,-5826,-562,3,-2,-11,1
163900,6674,-5796,-519,3,-3,-11,1
163905,6690,-5763,-477,3,-4,-11,1
163910,6722,-5730,-444,2,-5,-10,1
163915,6767,-5691,-414,2,-5,-10,1
163920,6804,-5673,-404,2,-5,-10,1
163925,6843,-5643,-404,1,-4,-10,1
163930,6903,-5602,-389,2,-4,-10,1
163935,6942,-5575,-347,2,-6,-10,1
163940,6982,-5544,-333,1,-7,-9,1
163945,7019,-5509,-312,1,-5,-9,1
163950,7062,-5466,-304,1,-2,-9,1
163955,7108,-5421,-320,1,1,-9,1
163960,7178,-5370,-310,1,3,-9,1
163965,7241,-5309,-301,1,3,-9,1
163970,7300,-5252,-281,1,2,-9,1
163975,7367,-5203,-275,1,0,-8,1
163980,7402,-5164,-293,1,-2,-8,1
163985,7430,-5130,-314,1,-4,-8,1
163990,7446,-5097,-322,1,-5,-8,1
163995,7447,-5077,-320,1,-6,-8,1
164000,7450,-5048,-320,1,-7,-7,1
164005,7446,-5021,-324,1,-8,-7,1
164010,7454,-4986,-329,0,-7,-7,1
164015,7483,-4959,-339,0,-5,-7,1
164020,7526,-4925,-365,0,-4,-7,1
164025,7576,-4893,-384,0,-3,-7,1
164030,7618,-4849,-403,0,-3,-6,1
164035,7662,-4819,-396,0,-3,-6,1
164040,7691,-4798,-396,0,-3,-6,1
164045,7701,-4775,-409,0,-4,-6,1
164050,7724,-4753,-426,0,-5,-6,1
164055,7709,-4734,-445,0,-5,-5,1
164060,7729,-4714,-442,0,-4,-5,1
164065,7728,-4694,-466,0,-2,-5,1
164070,7740,-4671,-475,-1,-1,-5,1
164075,7760,-4646,-470,-1,0,-5,1
164080,7775,-4630,-470,-1,0,-5,1
164085,7796,-4622,-458,-1,-1,-4,1
164090,7783,-4616,-465,-1,-2,-4,1
164095,7781,-4607,-466,-1,-2,-4,1
164100,7766,-4604,-453,-1,-2,-4,1
164105,7758,-4606,-449,-1,-2,-4,1
164110,7748,-4605,-456,-1,-2,-4,1
164115,7730,-4603,-465,-1,-2,-3,1
164120,7724,-4600,-489,-1,-3,-3,1
164125,7715,-4607,-503,-1,-2,-3,1
164130,7710,-4616,-513,-1,-2,-3,1
164135,7703,-4626,-522,-1,-1,-3,1
164140,7688,-4637,-531,-1,-1,-3,1
164145,7664,-4642,-548,-1,0,-3,1
164150,7645,-4648,-577,-1,2,-3,1
164155,7642,-4649,-596,-1,4,-2,1
164160,7636,-4652,-603,-1,5,-2,1
164165,7640,-4662,-610,-1,5,-2,1
164170,7629,-4663,-613,-2,6,-2,1
164175,7618,-4669,-603,-2,5,-2,1
164180,7600,-4669,-597,-1,4,-2,1
164185,7572,-4667,-587,-1,3,-2,1
164190,7553,-4675,-581,-1,1,-2,1
164195,7537,-4684,-586,-1,0,-1,1
164200,7525,-4693,-613,-1,-1,-1,1
164205,7511,-4695,-627,-1,-3,-1,1
164210,7499,-4698,-642,-2,-4,-1,1
164215,7486,-4708,-647,-2,-4,-1,1
164220,7474,-4716,-656,-2,-5,-1,1
164225,7457,-4720,-664,-1,-4,-1,1
164230,7439,-4721,-668,-2,-4,-1,1
164235,7425,-4724,-676,-1,-4,-1,1
164240,7414,-4722,-687,-1,-3,0,1
164245,7403,-4721,-699,-1,-2,0,1
164250,7394,-4718,-713,-1,0,0,1
164255,7387,-4714,-732,-1,1,0,1
164260,7379,-4707,-744,-1,2,0,1
164265,7360,-4696,-745,-1,2,0,1
164270,7356,-4699,-752,-1,3,0,1
164275,7337,-4695,-743,-1,4,0,1
164280,7334,-4696,-740,-1,4,0,1
164285,7323,-4696,-736,-1,4,0,1
164290,7310,-4691,-737,-1,3,0,1
164295,7291,-4690,-762,-1,2,0,1
164300,7269,-4688,-775,-1,1,0,1
164305,7246,-4675,-766,-1,1,0,1
164310,7228,-4663,-762,-1,1,0,1
164315,7224,-4656,-740,-1,0,0,1
164320,7217,-4650,-710,-1,0,0,1
164325,7196,-4641,-692,-1,-2,0,1
164330,7162,-4624,-681,-1,-2,0,1
164335,7119,-4606,-688,-1,-2,0,1
164340,7086,-4591,-706,-1,-1,0,1
164345,7057,-4575,-716,-1,0,0,1
164350,7030,-4560,-720,-1,0,0,1
164355,7009,-4544,-713,-1,0,-1,1
164360,6989,-4533,-698,-1,1,-1,1
164365,6980,-4524,-683,-1,1,-1,1
164370,6963,-4520,-682,-1,1,-1,1
164375,6959,-4516,-673,-1,1,-1,1
164380,6950,-4512,-678,-1,1,-1,1
164385,6946,-4509,-676,-1,0,-1,1
164390,6947,-4509,-679,-1,-1,-1,1
164395,6940,-4515,-697,-1,-1,-2,1
164400,6925,-4526,-738,-1,-2,-2,1
164405,6924,-4551,-753,-1,-4,-2,1
164410,6930,-4572,-747,-1,-5,-2,1
164415,6918,-4589,-750,-1,-5,-1,1
164420,6935,-4600,-734,-1,-3,-2,1
164425,6984,-4608,-682,-1,-2,-2,1
164430,7032,-4616,-647,-1,-4,-2,1
164435,7065,-4620,-628,-1,-5,-2,1
164440,7092,-4627,-621,-1,-6,-2,1
164445,7097,-4634,-645,-1,-6,-2,1
164450,7087,-4645,-670,-1,-6,-2,1
164455,7070,-4653,-701,-1,-6,-2,1
164460,7053,-4658,-717,-1,-4,-2,1
164465,7049,-4660,-710,-1,-2,-2,1
164470,7065,-4664,-705,-1,0,-2,1
164475,7098,-4665,-696,-1,1,-2,1
164480,7132,-4666,-685,-1,2,-2,1
164485,7157,-4661,-676,-1,1,-2,1
164490,7164,-4662,-667,-1,1,-2,1
164495,7150,-4663,-672,-1,1,-2,1
164500,7130,-4667,-672,-1,1,-2,1
164505,7104,-4667,-671,-1,1,-2,1
164510,7090,-4668,-669,-1,1,-2,1
164515,7088,-4668,-663,-1,1,-2,1
164520,7095,-4667,-652,-1,1,-2,1
164525,7113,-4664,-643,-1,0,-2,1
164530,7131,-4663,-633,-1,0,-2,1
164535,7140,-4663,-621,-1,-1,-2,1
164540,7140,-4666,-615,-1,-2,-2,1
164545,7130,-4665,-615,-1,-2,-2,1
164550,7120,-4666,-612,-1,-2,-2,1
164555,7117,-4667,-616,-1,-1,-2,1
164560,7122,-4670,-619,-1,0,-2,1
164565,7141,-4669,-618,-1,0,-2,1
164570,7164,-4667,-616,-1,0,-2,1
164575,7182,-4665,-608,-1,0,-2,1
164580,7192,-4664,-601,-1,-1,-2,1
164585,7196,-4664,-589,-1,-1,-2,1
164590,7191,-4665,-579,-1,-1,-2,1
164595,7177,-4667,-571,-1,-2,-2,1
164600,7169,-4667,-566,-1,-2,-2,1
164605,7165,-4667,-567,-1,-2,-2,1
164610,7167,-4665,-569,-1,-2,-2,1
164615,7176,-4665,-564,-1,-2,-2,1
164620,7186,-4669,-557,-1,-3,-2,1
164625,7191,-4670,-554,-1,-4,-2,1
164630,7188,-4671,-548,-1,-4,-2,1
164635,7175,-4674,-545,-1,-5,-2,1
164640,7161,-4675,-543,-1,-5,-2,1
164645,7151,-4673,-550,-1,-4,-2,1
164650,7148,-4671,-562,-1,-4,-1,1
164655,7150,-4672,-572,-1,-4,-1,1
164660,7159,-4673,-582,-1,-4,-2,1
164665,7169,-4675,-590,-1,-4,-2,1
164670,7169,-4675,-596,-1,-4,-2,1
164675,7158,-4673,-599,-1,-4,-2,1
164680,7143,-4675,-599,-1,-4,-2,1
164685,7132,-4674,-595,-1,-3,-2,1
164690,7117,-4674,-599,-1,-3,-2,1
164695,7106,-4675,-601,-1,-2,-2,1
164700,7100,-4676,-605,-1,-2,-2,1
164705,7101,-4677,-607,-1,-2,-2,1
164710,7106,-4677,-614,-1,-2,-2,1
164715,7109,-4680,-617,-1,-3,-2,1
164720,7109,-4680,-612,-1,-4,-2,1
164725,7111,-4680,-615,-1,-4,-2,1
164730,7113,-4682,-627,-1,-4,-2,1
164735,7113,-4681,-649,-1,-4,-2,1
164740,7118,-4679,-663,-1,-4,-2,1
164745,7125,-4680,-668,-1,-4,-2,1
164750,7130,-4679,-669,-1,-4,-2,1
164755,7137,-4674,-662,-1,-4,-2,1
164760,7145,-4672,-649,-1,-4,-2,1
164765,7149,-4671,-629,-1,-5,-2,1
164770,7149,-4672,-614,-1,-5,-2,1
164775,7146,-4669,-618,-1,-5,-2,1
164780,7143,-4671,-624,-1,-5,-2,1
164785,7138,-4671,-637,-1,-6,-2,1
164790,7130,-4670,-649,-1,-6,-2,1
164795,7125,-4672,-655,-1,-6,-2,1
164800,7125,-4672,-660,-1,-6,-2,1
164805,7134,-4671,-661,-1,-5,-2,1
164810,7149,-4670,-668,-1,-5,-2,1
164815,7163,-4670,-676,-1,-5,-2,1
164820,7177,-4669,-690,-1,-5,-2,1
164825,7184,-4668,-700,-1,-5,-2,1
164830,7186,-4665,-712,-1,-5,-2,1
164835,7186,-4667,-719,-1,-5,-2,1
164840,7179,-4667,-720,-1,-4,-2,1
164845,7172,-4669,-716,-1,-4,-2,1
164850,7166,-4669,-719,-1,-3,-2,1
164855,7167,-4671,-725,-1,-3,-2,1
164860,7169,-4671,-726,-1,-2,-2,1
164865,7172,-4674,-734,-1,-2,-2,1
164870,7176,-4673,-739,-1,-2,-2,1
164875,7177,-4671,-736,-1,-2,-2,1
164880,7177,-4670,-734,-1,-2,-2,1
164885,7176,-4670,-735,-1,-2,-2,1
164890,7173,-4671,-744,-1,-2,-1,1
164895,7170,-4670,-749,-1,-2,-2,1
164900,7172,-4669,-748,-1,-2,-1,1
164905,7179,-4670,-753,-1,-2,-1,1
164910,7183,-4671,-749,-1,-2,-1,1
164915,7186,-4669,-745,-1,-2,-1,1
164920,7189,-4669,-740,-1,-2,-2,1
164925,7187,-4668,-732,-1,-2,-1,1
164930,7181,-4669,-729,-1,-2,-1,1
164935,7171,-4670,-731,-1,-2,-1,1
164940,7162,-4671,-737,-1,-2,-1,1
164945,7157,-4672,-738,-1,-2,-1,1
164950,7155,-4670,-747,-1,-1,-1,1
164955,7156,-4672,-747,-1,-1,-1,1
164960,7156,-4673,-749,-1,-1,-2,1
164965,7157,-4676,-748,-1,-1,-1,1
164970,7151,-4675,-747,-1,-1,-1,1
164975,7147,-4677,-740,-1,0,-2,1
164980,7144,-4677,-738,-1,0,-2,1
164985,7139,-4676,-731,-1,1,-2,1
164990,7134,-4677,-726,-1,1,-2,1
164995,7129,-4677,-726,-1,1,-2,1
165000,7127,-4676,-714,-1,1,-2,1
165005,7125,-4673,-706,-1,2,-2,1
165010,7120,-4669,-698,-1,2,-2,1
165015,7121,-4666,-692,-1,1,-2,1
165020,7120,-4666,-688,-1,0,-2,1
165025,7121,-4665,-684,-1,0,-2,1
165030,7120,-4663,-676,-1,-1,-2,1
165035,7117,-4661,-672,-1,-1,-2,1
165040,7113,-4662,-665,-2,-2,-2,1
165045,7108,-4664,-663,-2,-2,-2,1
165050,7107,-4666,-661,-2,-2,-2,1
165055,7111,-4667,-658,-2,-2,-2,1
165060,7116,-4668,-660,-2,-2,-2,1
165065,7124,-4670,-669,-2,-2,-2,1
165070,7133,-4667,-674,-2,-2,-2,1
165075,7138,-4665,-676,-2,-2,-2,1
165080,7139,-4664,-683,-2,-2,-2,1
165085,7139,-4665,-696,-2,-1,-2,1
165090,7138,-4665,-710,-2,-1,-2,1
165095,7135,-4664,-713,-2,-1,-2,1
165100,7132,-4662,-716,-2,-1,-2,1
165105,7131,-4662,-715,-2,-1,-2,1
165110,7138,-4661,-711,-2,-1,-2,1
165115,7140,-4660,-707,-2,-1,-2,1
165120,7137,-4661,-699,-1,-2,-2,1
165125,7129,-4660,-691,-1,-2,-2,1
165130,7122,-4659,-684,-1,-3,-2,1
165135,7116,-4658,-679,-1,-3,-2,1
165140,7114,-4659,-681,-1,-4,-1,1
165145,7115,-4660,-688,-1,-4,-1,1
165150,7118,-4663,-695,-1,-5,-1,1
165155,7120,-4664,-699,-2,-5,-2,1
165160,7120,-4667,-703,-2,-5,-2,1
165165,7121,-4666,-710,-1,-5,-2,1
165170,7123,-4669,-717,-1,-5,-2,1
165175,7123,-4670,-725,-1,-5,-2,1
165180,7123,-4673,-741,-1,-4,-2,1
165185,7128,-4674,-756,-1,-4,-2,1
165190,7132,-4676,-763,-1,-3,-2,1
165195,7138,-4675,-769,-1,-3,-2,1
165200,7145,-4675,-765,-2,-2,-2,1
165205,7149,-4676,-761,-2,-2,-2,1
165210,7149,-4676,-751,-1,-1,-2,1
165215,7151,-4678,-745,-1,0,-2,1
165220,7154,-4678,-750,-1,0,-2,1
165225,7160,-4680,-748,-1,0,-2,1
165230,7165,-4680,-752,-1,0,-2,1
165235,7165,-4681,-754,-1,0,-2,1
165240,7166,-4676,-756,-1,-1,-2,1
165245,7163,-4674,-756,-1,-1,-2,1
165250,7153,-4671,-751,-1,-1,-2,1
165255,7141,-4670,-739,-1,-2,-2,1
165260,7133,-4670,-726,-1,-2,-1,1
165265,7128,-4669,-717,-1,-2,-1,1
165270,7126,-4668,-709,-1,-3,-1,1
165275,7130,-4666,-705,-1,-3,-1,1
165280,7137,-4664,-702,-1,-4,-1,1
165285,7141,-4664,-705,-1,-4,-1,1
165290,7143,-4664,-708,-1,-4,-1,1
165295,7142,-4662,-712,-1,-4,-1,1
165300,7141,-4661,-716,-1,-4,-1,1
165305,7142,-4658,-718,-1,-4,-1,1
165310,7141,-4660,-717,-1,-3,-1,1
165315,7146,-4662,-713,-1,-2,-1,1
165320,7148,-4662,-709,-1,-2,-1,1
165325,7152,-4661,-709,-1,-1,-1,1
165330,7158,-4664,-712,-1,-1,-1,1
165335,7161,-4660,-707,-1,0,-2,1
165340,7161,-4660,-705,-2,0,-2,1
165345,7156,-4661,-704,-2,0,-2,1
165350,7147,-4657,-698,-2,-1,-2,1
165355,7143,-4658,-693,-2,-1,-1,1
165359,7141,-4662,-686,-2,-1,-1,1
165365,7138,-4662,-681,-2,-2,-1,1
165370,7137,-4664,-671,-2,-2,-1,1
165375,7142,-4673,-664,-2,-3,-1,1
165380,7143,-4706,-650,-2,-3,-1,1
165384,7138,-4747,-629,-2,-3,-1,1
165390,7125,-4790,-613,-2,-3,-1,1
165395,7108,-4830,-604,-2,-4,-1,1
165400,7078,-4867,-608,-2,-5,-1,1
165405,7068,-4915,-582,-2,-5,-1,1
165409,7054,-4967,-573,-3,-5,-1,1
165415,7058,-5014,-532,-3,-5,-1,1
165420,7072,-5064,-482,-3,-6,-1,1
165425,7070,-5126,-467,-3,-7,-1,1
165430,7080,-5196,-448,-3,-8,0,1
165434,7079,-5275,-444,-4,-8,0,1
165439,7093,-5360,-414,-4,-8,0,1
165445,7096,-5450,-385,-4,-8,0,1
165450,7108,-5546,-366,-4,-8,1,1
165454,7114,-5651,-360,-5,-7,1,1
165459,7145,-5758,-346,-5,-6,1,1
165464,7201,-5862,-332,-5,-5,2,1
165470,7241,-5960,-309,-5,-6,2,1
165474,7294,-6052,-298,-5,-7,3,1
165480,7318,-6145,-306,-5,-7,3,1
165484,7332,-6225,-326,-5,-7,4,1
165490,7342,-6297,-346,-6,-6,4,1
165495,7338,-6363,-351,-6,-5,5,1
165499,7332,-6420,-339,-6,-4,5,1
165505,7350,-6484,-334,-6,-1,6,1
165509,7392,-6547,-319,-6,1,6,1
165515,7405,-6607,-348,-7,3,7,1
165519,7413,-6664,-360,-7,4,7,1
165524,7404,-6704,-397,-7,6,8,1
165529,7382,-6739,-391,-7,9,8,1
165534,7378,-6759,-368,-8,11,9,1
165539,7407,-6773,-351,-8,14,9,1
165544,7390,-6786,-335,-8,16,10,1
165549,7423,-6796,-334,-8,16,10,1
165554,7395,-6819,-348,-9,17,11,1
165559,7337,-6837,-325,-9,16,12,1
165564,7439,-6852,-395,-9,17,12,1
165569,7415,-6874,-354,-9,20,13,1
165574,7459,-6875,-370,-10,18,13,1
165579,7407,-6878,-329,-9,17,14,1
165584,7398,-6867,-358,-10,13,14,1
165589,7370,-6857,-329,-9,12,15,1
165594,7306,-6853,-375,-10,11,16,1
165599,7372,-6835,-399,-10,10,16,1
165604,7365,-6817,-459,-10,12,17,1
165609,7403,-6791,-442,-10,9,17,1
165614,7408,-6757,-466,-10,7,18,1
165619,7397,-6712,-405,-10,4,18,1
165624,7317,-6671,-390,-10,2,19,1
165629,7291,-6624,-370,-10,0,20,1
165634,7286,-6594,-447,-10,2,20,1
165639,7261,-6562,-437,-10,1,20,1
165644,7288,-6525,-510,-10,0,21,1
165649,7230,-6494,-446,-10,-2,21,1
165654,7233,-6447,-499,-10,-6,22,1
165659,7159,-6407,-492,-9,-8,22,1
165664,7168,-6373,-598,-9,-12,23,1
165669,7153,-6343,-628,-9,-12,23,1
165674,7082,-6305,-642,-9,-13,24,1
165679,7132,-6247,-625,-8,-13,24,1
165684,7093,-6214,-678,-8,-11,24,1
165689,7085,-6186,-704,-8,-14,25,1
165694,7131,-6149,-763,-8,-16,25,1
165699,7110,-6113,-747,-8,-17,25,1
165704,7095,-6052,-767,-8,-20,26,1
165709,7140,-6012,-783,-7,-21,26,1
165714,7004,-5965,-769,-7,-21,27,1
165719,7102,-5887,-790,-7,-23,27,1
165724,6962,-5840,-764,-7,-17,27,1
165729,6977,-5785,-783,-6,-21,27,1
165734,6939,-5765,-804,-6,-19,28,1
165739,6945,-5743,-836,-6,-19,28,1
165744,6968,-5718,-898,-6,-16,28,1
165749,6895,-5713,-906,-6,-13,28,1
165754,6956,-5705,-978,-5,-15,28,1
165759,6882,-5715,-990,-5,-14,28,1
165764,6917,-5712,-1033,-5,-17,29,1
165769,6908,-5719,-1038,-4,-15,29,1
165774,6936,-5704,-1063,-4,-16,29,1
165779,6913,-5703,-1083,-4,-14,29,1
165784,6838,-5703,-1085,-4,-16,30,1
165789,6754,-5686,-1076,-3,-19,30,1
165794,6731,-5704,-1094,-3,-20,31,1
165799,6831,-5703,-1129,-2,-17,30,1
165804,6791,-5698,-1143,-2,-14,30,1
165809,6827,-5687,-1173,-2,-13,30,1
165814,6731,-5687,-1161,-2,-14,30,1
165819,6686,-5675,-1104,-2,-17,31,1
165824,6714,-5658,-1119,-1,-16,31,1
165829,6596,-5653,-1083,-1,-11,31,1
165834,6653,-5621,-1155,-1,-11,31,1
165839,6551,-5622,-1152,-1,-6,31,1
165844,6509,-5607,-1153,-1,-7,31,1
165849,6447,-5567,-1146,0,-5,31,1
165854,6152,-5557,-1096,0,-3,31,1
165859,6689,-5483,-1216,0,-6,30,1
165864,6268,-5585,-1031,1,12,29,1
165869,6238,-5639,-942,2,-8,30,1
165874,6408,-5667,-1206,2,-17,32,1
165879,5930,-5753,-1091,2,-15,32,1
165884,6093,-5717,-1276,2,-20,32,1
165889,5853,-5820,-1236,3,-2,31,1
165894,5995,-5865,-1214,3,-6,31,1
165899,6015,-5902,-1336,3,-6,31,1
165904,5967,-5916,-1198,4,-15,32,1
165909,6029,-5891,-1342,4,-23,32,1
165914,5899,-5904,-1246,5,-24,32,1
165919,5914,-5877,-1323,5,-26,32,1
165924,5837,-5874,-1310,5,-22,32,1
165929,5810,-5845,-1351,5,-21,32,1
165934,5829,-5821,-1352,6,-18,31,1
165939,5729,-5800,-1331,6,-16,31,1
165944,5765,-5776,-1369,6,-15,31,1
165949,5715,-5764,-1366,7,-12,31,1
165954,5704,-5759,-1405,7,-12,31,1
165959,5668,-5754,-1425,7,-11,31,1
165964,5594,-5751,-1382,7,-13,31,1
165969,5696,-5748,-1435,7,-15,30,1
165974,5556,-5762,-1371,8,-15,30,1
165979,5608,-5785,-1412,8,-20,30,1
165984,5488,-5807,-1394,8,-21,30,1
165989,5400,-5814,-1348,8,-24,30,1
165994,5313,-5812,-1292,8,-26,30,1
165999,5258,-5808,-1272,9,-27,30,1
166004,5223,-5808,-1280,9,-26,30,1
166009,5110,-5796,-1239,9,-27,29,1
166014,5100,-5821,-1274,9,-28,29,1
166019,5025,-5806,-1243,9,-27,29,1
166024,5030,-5780,-1280,9,-27,28,1
166029,4999,-5799,-1304,10,-26,28,1
166034,5003,-5823,-1338,10,-26,28,1
166039,4992,-5833,-1369,10,-26,27,1
166044,4973,-5858,-1384,10,-24,27,1
166049,4957,-5856,-1400,10,-25,27,1
166054,4924,-5903,-1414,10,-23,26,1
166059,4933,-5933,-1408,11,-25,26,1
166064,4924,-5944,-1409,11,-25,26,1
166069,4905,-5974,-1390,11,-23,26,1
166074,4876,-5977,-1377,11,-22,25,1
166079,4886,-5988,-1398,11,-19,25,1
166084,4836,-5991,-1374,11,-17,25,1
166089,4776,-5980,-1364,11,-16,24,1
166094,4690,-5970,-1300,11,-16,24,1
166099,4641,-5974,-1298,11,-16,24,1
166104,4651,-5983,-1313,11,-16,23,1
166109,4437,-6007,-1201,11,-16,23,1
166114,4590,-6027,-1321,11,-21,23,1
166119,4480,-6101,-1361,10,-19,22,1
166124,4497,-6144,-1349,11,-26,22,1
166129,4443,-6203,-1426,11,-30,22,1
166134,4343,-6265,-1327,11,-36,23,1
166139,4391,-6335,-1445,12,-39,23,1
166144,4286,-6430,-1388,12,-39,23,1
166149,4411,-6502,-1501,12,-41,23,1
166154,4356,-6567,-1497,13,-38,22,1
166159,4469,-6610,-1527,13,-40,22,1
166164,4501,-6641,-1583,13,-39,22,1
166169,4511,-6636,-1534,13,-41,22,1
166174,4497,-6644,-1596,13,-43,22,1
166179,4428,-6638,-1546,14,-45,22,1
166184,4417,-6654,-1621,14,-45,22,1
166189,4399,-6709,-1650,14,-42,21,1
166194,4369,-6711,-1694,14,-39,21,1
166199,4306,-6727,-1705,15,-36,21,1
166204,4301,-6746,-1707,15,-37,20,1
166209,4327,-6790,-1762,15,-37,20,1
166214,4241,-6816,-1703,16,-39,20,1
166219,4324,-6860,-1830,16,-41,20,1
166224,4259,-6879,-1820,16,-41,20,1
166229,4268,-6937,-1907,17,-40,20,1
166234,4122,-6966,-1788,17,-38,20,1
166239,4259,-6980,-1960,17,-40,20,1
166244,4060,-6994,-1882,17,-36,20,1
166249,4169,-7047,-1949,18,-38,19,1
166254,4129,-7114,-1960,18,-35,20,1
166259,4198,-7101,-1908,18,-36,19,1
166264,4168,-7164,-1910,19,-34,20,1
166269,4156,-7171,-1830,19,-34,20,1
166274,4143,-7207,-1883,19,-31,20,1
166279,4159,-7218,-1846,19,-30,20,1
166284,4138,-7281,-1844,20,-28,20,1
166289,4174,-7295,-1808,20,-28,20,1
166294,4077,-7268,-1758,20,-28,20,1
166299,4145,-7260,-1815,20,-27,20,1
166304,4016,-7234,-1746,20,-25,20,1
166309,4008,-7205,-1756,21,-28,20,1
166314,3936,-7142,-1742,21,-28,20,1
166319,3911,-7120,-1752,21,-29,20,1
166324,3834,-7088,-1746,21,-28,20,1
166329,3827,-7100,-1738,22,-29,20,1
166334,3853,-7058,-1780,22,-28,19,1
166339,3740,-7079,-1662,22,-24,19,1
166344,3775,-7071,-1645,22,-25,19,1
166349,3799,-7076,-1701,22,-22,19,1
166354,3638,-7086,-1475,22,-21,19,1
166359,3722,-7050,-1559,22,-23,19,1
166364,3635,-7078,-1457,22,-20,18,1
166369,3705,-7065,-1471,22,-21,18,1
166374,3643,-7094,-1453,22,-19,18,1
166379,3658,-7083,-1404,22,-22,18,1
166384,3567,-7040,-1407,22,-21,19,1
166389,3474,-7011,-1266,22,-22,18,1
166394,3454,-7012,-1347,22,-21,18,1
166399,3442,-7005,-1323,22,-22,18,1
166404,3411,-7001,-1377,22,-20,18,1
166409,3400,-7051,-1344,22,-22,18,1
166414,3483,-7076,-1446,22,-21,17,1
166419,3445,-7141,-1397,22,-19,17,1
166424,3486,-7110,-1423,22,-20,17,1
166429,3358,-7144,-1381,22,-18,17,1
166434,3528,-7170,-1423,21,-20,17,1
166439,3530,-7195,-1495,21,-13,16,1
166444,3435,-7185,-1295,21,-12,16,1
166449,3404,-7141,-1338,21,-15,16,1
166454,3290,-7162,-1206,21,-16,17,1
166459,3306,-7175,-1215,21,-17,17,1
166464,3190,-7227,-1166,21,-11,16,1
166469,3226,-7275,-1152,21,-10,16,1
166474,3235,-7320,-1243,21,-7,16,1
166479,3238,-7274,-1196,21,-9,16,1
166484,3165,-7237,-1185,20,-10,16,1
166489,3100,-7351,-1086,21,-12,16,1
166494,3050,-7386,-1038,21,-14,16,1
166499,3129,-7360,-1205,21,-13,16,1
166504,3020,-7394,-1115,20,-8,15,1
166509,3090,-7399,-1156,20,-11,15,1
166514,3002,-7397,-1078,20,-11,15,1
166519,2948,-7385,-935,20,-15,15,1
166524,2908,-7410,-946,20,-15,15,1
166529,2878,-7465,-881,20,-13,15,1
166534,2876,-7545,-940,20,-10,15,1
166539,2909,-7606,-953,20,-8,15,1
166544,2936,-7585,-947,19,-6,15,1
166549,2893,-7607,-892,19,-6,15,1
166554,2922,-7592,-863,19,-9,15,1
166559,2898,-7617,-859,19,-11,15,1
166564,2819,-7594,-760,19,-13,15,1
166569,2787,-7541,-811,19,-13,15,1
166574,2728,-7568,-776,19,-11,15,1
166579,2702,-7564,-797,19,-12,15,1
166584,2639,-7550,-790,18,-14,15,1
166589,2583,-7517,-751,18,-16,15,1
166594,2575,-7593,-788,18,-17,15,1
166599,2586,-7620,-779,19,-17,14,1
166604,2587,-7687,-804,18,-15,14,1
166609,2567,-7707,-774,18,-15,14,1
166614,2582,-7717,-805,18,-15,14,1
166619,2522,-7738,-742,18,-14,14,1
166624,2501,-7718,-718,19,-14,14,1
166629,2498,-7718,-725,18,-12,14,1
166634,2495,-7761,-697,19,-10,14,1
166639,2525,-7817,-732,19,-9,14,1
166644,2502,-7811,-677,19,-8,15,1
166649,2473,-7796,-656,19,-7,15,1
166654,2441,-7821,-604,19,-5,15,1
166659,2390,-7784,-568,19,-4,15,1
166664,2375,-7804,-566,19,-2,15,1
166669,2401,-7860,-592,19,-1,15,1
166674,2409,-7909,-593,19,-1,15,1
166679,2374,-7857,-587,19,-1,15,1
166684,2348,-7830,-586,19,-2,15,1
166689,2315,-7760,-564,19,-1,15,1
166694,2246,-7724,-518,19,-1,15,1
166699,2237,-7754,-513,19,-1,15,1
166704,2230,-7774,-491,19,-2,15,1
166709,2164,-7727,-469,18,-2,15,1
166714,2124,-7730,-391,18,-1,15,1
166719,2127,-7776,-360,18,1,15,1
166724,2129,-7788,-326,18,1,14,1
166729,2091,-7746,-295,18,1,14,1
166734,2053,-7701,-250,18,1,14,1
166739,2017,-7696,-204,17,1,14,1
166744,2011,-7683,-173,17,0,14,1
166749,2016,-7685,-150,17,0,14,1
166754,2018,-7694,-146,17,-1,14,1
166759,2052,-7721,-178,16,-2,14,1
166764,2083,-7791,-205,16,-2,13,1
166769,2099,-7767,-227,16,-3,13,1
166774,2059,-7743,-206,15,-5,13,1
166779,2083,-7729,-239,15,-7,13,1
166784,2058,-7696,-241,15,-7,12,1
166789,2019,-7622,-204,14,-8,12,1
166794,1998,-7593,-204,14,-7,11,1
166799,2009,-7634,-193,14,-7,11,1
166804,2044,-7707,-195,14,-7,11,1
166809,2084,-7769,-192,13,-7,11,1
166814,2094,-7832,-173,13,-6,11,1
166819,2136,-7830,-191,13,-4,11,1
166824,2112,-7796,-184,12,-1,10,1
166829,2130,-7780,-177,12,-1,10,1
166834,2112,-7721,-159,12,0,10,1
166839,2052,-7712,-110,11,1,10,1
166844,2065,-7775,-122,11,1,9,1
166849,2157,-7842,-188,11,3,9,1
166854,2232,-7931,-243,10,6,8,1
166859,2253,-7953,-231,10,5,8,1
166864,2253,-7943,-227,9,2,8,1
166869,2213,-7914,-201,9,1,7,1
166874,2218,-7878,-222,8,2,6,1
166879,2161,-7857,-190,8,5,6,1
166884,2212,-7804,-232,7,4,5,1
166889,2182,-7809,-223,6,5,4,1
166894,2221,-7765,-210,6,3,3,1
166899,2198,-7792,-183,5,2,3,1
166904,2235,-7780,-196,5,-1,2,1
166909,2224,-7806,-209,4,-1,1,1
166914,2231,-7828,-231,3,-3,1,1
166919,2208,-7875,-293,2,-3,0,1
166924,2178,-7946,-314,1,-4,-1,1
166929,2113,-8005,-400,-1,-4,-1,1
166934,1947,-8046,-433,-1,-4,-1,1
166939,1806,-8070,-330,-2,-6,0,1
166944,1666,-8088,-209,-2,-4,0,1
166949,1587,-8101,-79,-1,0,0,1
166954,1598,-8111,59,-1,4,1,1
166959,1641,-8117,144,0,5,0,1
166964,1730,-8127,181,0,3,0,1
166969,1807,-8135,193,1,0,0,1
166974,1844,-8147,161,1,-4,0,1
166979,1850,-8161,128,0,-6,0,1
166984,1794,-8172,113,0,-7,0,1
166989,1721,-8178,105,0,-7,0,1
166994,1655,-8183,122,0,-4,0,1
166999,1600,-8189,147,0,-1,0,1
167004,1592,-8196,163,0,2,0,1
167009,1620,-8199,187,1,5,0,1
167014,1663,-8204,200,1,6,0,1
167019,1720,-8205,208,1,5,0,1
167024,1762,-8204,220,1,5,0,1
167029,1779,-8206,238,1,3,0,1
167034,1768,-8207,265,1,1,0,1
167039,1736,-8208,296,1,0,0,1
167044,1685,-8211,331,1,-1,0,1
167049,1633,-8208,368,1,-2,0,1
167054,1593,-8205,393,1,-1,0,1
167059,1569,-8203,417,1,-1,0,1
167064,1562,-8205,444,1,0,0,1
167069,1566,-8201,462,1,0,0,1
167074,1574,-8198,478,1,-1,0,1
167079,1585,-8197,491,1,-1,0,1
167084,1593,-8197,499,1,-2,0,1
167089,1591,-8193,512,1,-2,0,1
167094,1581,-8191,523,1,-3,0,1
167099,1568,-8190,526,1,-3,0,1
167104,1555,-8189,526,1,-3,0,1
167109,1548,-8191,520,1,-3,0,1
167114,1547,-8192,513,1,-2,0,1
167119,1545,-8191,514,1,-2,0,1
167124,1547,-8192,515,1,-1,0,1
167129,1546,-8192,528,1,-1,0,1
167134,1541,-8191,548,1,-1,0,1
167139,1529,-8193,569,1,-1,0,1
167144,1512,-8195,583,1,-1,0,1
167149,1494,-8194,596,1,-1,0,1
167154,1477,-8193,603,1,0,0,1
167159,1457,-8192,608,1,0,0,1
167164,1440,-8191,618,1,0,0,1
167169,1431,-8190,626,1,1,0,1
167174,1430,-8192,631,1,1,0,1
167179,1431,-8190,638,0,1,-1,1
167184,1436,-8189,652,0,0,-1,1
167189,1440,-8192,664,0,0,-1,1
167194,1446,-8193,676,0,0,-1,1
167199,1447,-8194,684,0,0,-1,1
167204,1452,-8193,695,0,-1,-1,1
167209,1456,-8189,701,0,-1,-1,1
167214,1459,-8190,707,0,-1,-1,1
167219,1459,-8192,709,0,-1,-1,1
167224,1456,-8194,702,0,-1,-1,1
167229,1456,-8193,695,0,-1,-1,1
167234,1458,-8191,693,0,-1,-1,1
167239,1458,-8191,685,0,-1,-1,1
167244,1464,-8195,676,0,-2,-1,1
167249,1473,-8196,672,0,-2,-1,1
167254,1483,-8194,667,0,-2,-1,1
167259,1494,-8191,660,0,-2,-1,1
167264,1508,-8190,660,0,-2,-1,1
167269,1517,-8188,666,0,-2,-1,1
167274,1527,-8186,679,0,-1,-1,1
167279,1539,-8190,692,0,-1,-1,1
167284,1549,-8191,700,0,-1,-1,1
167289,1559,-8192,712,0,-1,-1,1
167294,1571,-8190,717,0,-1,-1,1
167299,1572,-8190,712,0,-1,-1,1
167304,1572,-8194,707,0,-1,-1,1
167309,1569,-8194,699,0,-1,-1,1
167314,1561,-8193,696,0,-2,-1,1
167319,1551,-8192,694,0,-2,-1,1
167324,1542,-8193,686,-1,-2,-1,1
167329,1532,-8195,677,-1,-1,-1,1
167334,1523,-8195,676,-1,-1,-1,1
167339,1520,-8196,680,-1,-1,-1,1
167344,1519,-8195,681,-1,-1,-1,1
167349,1520,-8194,684,-1,-1,-1,1
167354,1520,-8198,688,-1,0,-1,1
167359,1515,-8197,694,-1,0,-1,1
167364,1513,-8195,704,-1,0,-1,1
167369,1509,-8193,706,-1,0,-1,1
167374,1503,-8192,713,-1,-1,-1,1
167379,1496,-8194,714,-1,-1,-1,1
167384,1489,-8195,710,-1,-1,-1,1
167389,1480,-8195,707,-1,-1,-2,1
167394,1478,-8196,701,-1,-1,-1,1
167399,1478,-8197,693,-1,-2,-1,1
167404,1479,-8197,687,-1,-2,-2,1
167408,1481,-8198,683,-1,-2,-2,1
167414,1480,-8197,674,-1,-2,-2,1
167419,1478,-8199,672,-1,-2,-2,1
167424,1476,-8202,672,-1,-2,-2,1
167429,1475,-8202,669,-1,-1,-2,1
167434,1478,-8203,673,-1,-1,-2,1
167439,1481,-8200,672,-1,-1,-2,1
167444,1479,-8197,672,-1,-1,-2,1
167449,1477,-8194,672,-1,-1,-2,1
167454,1475,-8197,666,-1,-2,-2,1
167458,1470,-8200,662,-1,-2,-2,1
167464,1466,-8202,655,-1,-2,-2,1
167469,1463,-8203,649,-1,-1,-2,1
167474,1466,-8204,640,-1,-1,-2,1
167479,1471,-8204,625,-1,0,-2,1
167483,1469,-8205,606,-1,1,-2,1
167489,1461,-8206,585,-1,3,-2,1
167494,1453,-8207,560,-1,4,-2,1
167499,1440,-8207,533,-1,6,-2,1
167504,1423,-8209,507,-1,8,-3,1
167509,1409,-8212,477,-1,10,-3,1
167514,1397,-8213,452,-1,11,-3,1
167519,1387,-8214,426,-1,13,-3,1
167523,1377,-8214,406,-1,15,-3,1
167529,1358,-8213,382,-1,17,-3,1
167534,1343,-8213,365,-1,20,-3,1
167539,1331,-8215,351,-1,22,-4,1
167544,1315,-8218,337,-1,25,-4,1
167549,1295,-8219,327,-1,27,-4,1
167553,1284,-8218,297,-1,30,-4,1
167558,1278,-8218,202,-1,34,-4,1
167564,1314,-8221,57,0,37,-5,1
167569,1405,-8227,-114,1,40,-4,1
167574,1539,-8251,-261,2,42,-4,1
167579,1803,-8248,-5,0,44,-3,1
167584,1711,-8260,209,-3,48,-4,1
167589,1647,-8228,79,-7,40,-7,1
167593,1631,-8166,461,-7,36,-8,1
167599,1320,-8111,839,-6,43,-8,1
167604,1201,-8006,1291,-3,39,-7,1
167608,1241,-8018,1352,-2,40,-6,1
167613,1536,-8075,1106,-1,45,-7,1
167618,1835,-8150,941,-2,47,-8,1
167624,2001,-8171,857,-3,35,-9,1
167629,1940,-8139,974,-3,18,-8,1
167633,1733,-8105,1073,-3,7,-7,1
167638,1571,-8063,1093,-3,8,-7,1
167643,1554,-8056,960,-3,18,-7,1
167648,1671,-8075,829,-3,27,-8,1
167653,1832,-8064,689,-4,30,-9,1
167658,1912,-8064,702,-4,27,-9,1
167663,1947,-8065,713,-4,22,-9,1
167668,1971,-8036,714,-4,22,-9,1
167673,1994,-8051,670,-5,24,-9,1
167678,2038,-8125,592,-5,25,-10,1
167683,2114,-8075,492,-6,27,-10,1
167688,2116,-8114,556,-6,26,-10,1
167693,2126,-8118,564,-7,23,-10,1
167698,2118,-8118,634,-7,23,-10,1
167703,2156,-8123,571,-7,24,-10,1
167708,2175,-8134,534,-8,25,-11,1
167713,2227,-8108,417,-9,26,-11,1
167718,2264,-8052,419,-9,27,-11,1
167723,2293,-7984,396,-9,26,-12,1
167728,2288,-8044,429,-10,24,-12,1
167733,2338,-8116,418,-10,24,-12,1
167738,2363,-8072,439,-11,25,-12,1
167743,2378,-8223,478,-11,24,-13,1
167748,2397,-8262,478,-12,24,-13,1
167753,2396,-8240,460,-12,22,-13,1
167758,2404,-8143,407,-13,21,-13,1
167763,2404,-8137,365,-13,20,-13,1
167768,2461,-8118,350,-14,20,-14,1
167773,2477,-8114,423,-14,18,-14,1
167778,2493,-8101,402,-15,15,-14,1
167783,2485,-8085,400,-16,14,-14,1
167788,2480,-8110,360,-16,14,-14,1
167793,2473,-8033,312,-17,15,-14,1
167798,2479,-7985,354,-17,15,-15,1
167803,2474,-8015,339,-17,15,-15,1
167808,2508,-8021,370,-18,16,-15,1
167813,2507,-8026,327,-18,16,-15,1
167818,2512,-7973,289,-19,17,-16,1
167823,2499,-7918,218,-19,19,-16,1
167828,2498,-7870,215,-20,19,-16,1
167833,2514,-7904,274,-21,18,-16,1
167838,2527,-7873,288,-21,17,-17,1
167843,2522,-7864,310,-21,17,-17,1
167848,2514,-7838,271,-22,16,-17,1
167853,2501,-7823,326,-22,16,-17,1
167858,2485,-7744,278,-23,16,-17,1
167863,2470,-7722,286,-24,16,-17,1
167868,2482,-7703,265,-24,16,-18,1
167873,2482,-7686,267,-25,16,-18,1
167878,2476,-7616,233,-26,16,-18,1
167883,2459,-7573,214,-26,15,-18,1
167888,2408,-7406,142,-27,15,-19,1
167893,2373,-7311,124,-27,15,-19,1
167898,2375,-7124,68,-28,16,-19,1
167903,2358,-7024,34,-28,17,-19,1
167908,2376,-7055,25,-29,17,-20,1
167913,2445,-7221,81,-29,17,-20,1
167918,2477,-7249,75,-30,18,-20,1
167923,2510,-7197,59,-30,18,-20,1
167928,2493,-7105,-5,-31,17,-21,1
167933,2526,-7203,1,-31,16,-21,1
167938,2554,-7224,-29,-32,15,-21,1
167943,2562,-7230,-51,-32,15,-22,1
167948,2539,-7254,-104,-33,15,-22,1
167953,2574,-7226,-103,-33,15,-22,1
167958,2555,-7172,-157,-34,14,-22,1
167963,2585,-7275,-178,-34,14,-23,1
167968,2581,-7284,-183,-35,14,-23,1
167973,2640,-7285,-190,-35,15,-23,1
167978,2656,-7337,-188,-36,16,-23,1
167983,2688,-7241,-223,-36,15,-23,1
167988,2581,-7300,-305,-37,16,-23,1
167993,2646,-7365,-262,-37,16,-23,1
167998,2653,-7415,-322,-38,19,-23,1
168003,2788,-7483,-267,-38,19,-23,1
168008,2752,-7455,-387,-39,19,-23,1
168013,2765,-7305,-421,-39,16,-23,1
168018,2671,-7121,-462,-40,17,-23,1
168023,2677,-7156,-417,-40,16,-23,1
168028,2658,-7108,-471,-40,16,-23,1
168033,2649,-7058,-484,-41,15,-23,1
168038,2585,-7059,-528,-42,14,-23,1
168043,2625,-7082,-532,-42,13,-23,1
168048,2632,-7052,-533,-43,10,-23,1
168053,2576,-6929,-542,-43,5,-23,1
168058,2524,-6886,-521,-44,-1,-23,1
168063,2523,-6788,-499,-44,-5,-23,1
168068,2356,-6611,-492,-44,-9,-23,1
168073,2294,-6497,-509,-45,-15,-23,1
168078,2327,-6542,-567,-46,-20,-23,1
168083,2339,-6517,-571,-46,-24,-23,1
168088,2338,-6538,-564,-46,-31,-23,1
168093,2356,-6536,-591,-47,-38,-23,1
168098,2309,-6488,-638,-47,-44,-23,1
168103,2315,-6408,-707,-48,-47,-23,1
168108,2291,-6414,-779,-48,-48,-24,1
168113,2270,-6344,-811,-48,-49,-24,1
168118,2263,-6323,-872,-49,-50,-24,1
168123,2288,-6219,-988,-49,-49,-25,1
168128,2230,-6041,-1084,-49,-48,-25,1
168133,2182,-5915,-1138,-49,-47,-25,1
168138,2201,-6015,-1212,-49,-46,-26,1
168143,2281,-6205,-1326,-49,-45,-26,1
168148,2285,-6274,-1451,-50,-43,-27,1
168153,2258,-6187,-1551,-50,-42,-28,1
168158,2222,-6149,-1637,-50,-41,-28,1
168163,2207,-6115,-1769,-50,-40,-28,1
168168,2172,-6083,-1840,-50,-38,-29,1
168173,2196,-6036,-1974,-50,-36,-29,1
168178,2180,-6202,-2052,-50,-36,-30,1
168183,2170,-6099,-2125,-50,-39,-29,1
168188,2143,-5968,-2218,-51,-40,-30,1
168193,2064,-5956,-2209,-50,-41,-30,1
168198,2089,-5939,-2288,-50,-44,-30,1
168203,2080,-6061,-2372,-50,-46,-30,1
168208,2147,-6121,-2487,-50,-47,-31,1
168213,2186,-6107,-2582,-50,-45,-31,1
168218,2184,-6099,-2588,-49,-43,-31,1
168223,2255,-6041,-2671,-49,-43,-32,1
168228,2252,-5948,-2664,-49,-42,-32,1
168233,2352,-5902,-2750,-49,-44,-32,1
168238,2303,-5840,-2679,-49,-44,-32,1
168243,2453,-5860,-2789,-49,-48,-32,1
168248,2562,-5884,-2889,-48,-49,-32,1
168253,2557,-5879,-2878,-48,-49,-32,1
168258,2544,-5789,-2862,-48,-52,-32,1
168263,2527,-5746,-2863,-48,-53,-32,1
168268,2567,-5767,-2914,-48,-52,-33,1
168273,2634,-5839,-2991,-48,-52,-33,1
168278,2616,-5933,-3016,-48,-52,-33,1
168283,2647,-5910,-3098,-48,-52,-33,1
168288,2585,-5917,-3145,-47,-50,-33,1
168293,2556,-5872,-3198,-47,-47,-34,1
168298,2506,-5836,-3211,-47,-36,-35,1
168303,2516,-5767,-3243,-48,-26,-36,1
168308,2605,-5632,-3302,-48,-19,-37,1
168313,2707,-5536,-3339,-48,-16,-37,1
168318,2787,-5438,-3302,-48,-17,-37,1
168323,2982,-5284,-3614,-47,-21,-37,1
168328,3123,-5250,-4012,-45,-27,-37,1
168333,3161,-5307,-4124,-45,-32,-37,1
168338,3235,-5284,-4317,-45,-35,-37,1
168343,3315,-5293,-4410,-46,-32,-38,1
168348,3450,-5294,-4476,-46,-29,-39,1
168353,3488,-5246,-4455,-45,-31,-40,1
168358,3468,-5230,-4378,-45,-43,-39,1
168363,3414,-5151,-4349,-44,-51,-38,1
168368,3372,-5142,-4387,-43,-46,-38,1
168373,3272,-5172,-4277,-42,-34,-39,1
168378,3402,-5173,-4511,-42,-21,-40,1
168383,3506,-5212,-4633,-42,-6,-41,1
168388,3663,-5131,-4751,-43,3,-42,1
168393,3771,-5002,-4837,-43,12,-43,1
168398,3842,-4897,-4720,-42,16,-43,1
168403,4000,-4819,-4822,-41,18,-43,1
168408,4073,-4760,-4711,-41,18,-43,1
168413,4310,-4764,-4842,-40,16,-43,1
168418,4475,-4842,-4929,-40,14,-43,1
168423,4742,-4970,-5089,-40,7,-43,1
168428,4859,-5066,-5124,-39,1,-42,1
168433,4955,-5153,-5131,-39,-7,-42,1
168438,4924,-5216,-5076,-38,-14,-41,1
168443,4833,-5319,-4942,-37,-19,-41,1
168448,4773,-5391,-4988,-36,-21,-40,1
168453,4705,-5481,-5038,-35,-19,-40,1
168458,4709,-5572,-5141,-34,-15,-40,1
168463,4756,-5676,-5311,-34,-10,-40,1
168468,4810,-5712,-5342,-33,-6,-40,1
168473,4949,-5716,-5485,-33,-5,-40,1
168478,5000,-5721,-5435,-32,-3,-40,1
168483,5148,-5702,-5517,-31,-4,-40,1
168488,5189,-5691,-5420,-30,-5,-40,1
168493,5204,-5697,-5324,-30,-10,-39,1
168498,5336,-5733,-5408,-29,-14,-38,1
168503,5391,-5795,-5336,-28,-16,-38,1
168508,5476,-5848,-5397,-28,-20,-37,1
168513,5492,-5921,-5424,-27,-26,-36,1
168518,5493,-6040,-5434,-27,-31,-35,1
168523,5512,-6144,-5571,-26,-35,-35,1
168528,5497,-6248,-5652,-25,-36,-34,1
168533,5490,-6339,-5770,-25,-34,-34,1
168538,5468,-6437,-5872,-24,-32,-33,1
168543,5379,-6541,-5838,-23,-33,-33,1
168548,5405,-6637,-6009,-22,-34,-32,1
168553,5361,-6729,-5965,-21,-32,-32,1
168558,5396,-6799,-6042,-21,-32,-31,1
168563,5377,-6858,-6019,-20,-32,-31,1
168568,5392,-6902,-6000,-19,-34,-30,1
168573,5381,-6917,-5990,-19,-35,-29,1
168578,5357,-6958,-5921,-18,-34,-29,1
168583,5351,-6993,-5959,-17,-33,-28,1
168588,5306,-7018,-5915,-17,-32,-27,1
168593,5239,-7057,-5891,-16,-31,-27,1
168598,5206,-7096,-5928,-16,-31,-26,1
168603,5153,-7128,-5931,-15,-29,-25,1
168608,5092,-7159,-5971,-15,-27,-25,1
168613,5025,-7181,-5997,-14,-24,-25,1
168618,4929,-7196,-6005,-14,-21,-24,1
168623,4863,-7208,-6037,-13,-17,-24,1
168628,4779,-7227,-6047,-12,-12,-24,1
168633,4717,-7242,-6097,-11,-7,-23,1
168638,4703,-7249,-6157,-11,-3,-23,1
168643,4662,-7247,-6161,-10,3,-23,1
168648,4669,-7225,-6193,-10,8,-23,1
168653,4634,-7204,-6163,-10,13,-22,1
168658,4659,-7169,-6072,-9,15,-22,1
168663,4710,-7133,-6043,-9,19,-21,1
168668,4759,-7098,-5926,-8,21,-21,1
168673,4821,-7073,-5915,-8,19,-20,1
168678,4863,-7066,-5879,-7,15,-19,1
168683,4886,-7056,-5859,-7,10,-18,1
168688,4896,-7054,-5879,-7,7,-18,1
168693,4861,-7032,-5855,-6,7,-17,1
168698,4830,-7010,-5860,-6,7,-17,1
168703,4757,-6993,-5798,-6,7,-16,1
168708,4722,-6959,-5794,-5,7,-16,1
168713,4679,-6935,-5716,-5,8,-15,1
168718,4664,-6888,-5705,-5,8,-15,1
168723,4626,-6845,-5630,-4,9,-15,1
168728,4644,-6794,-5606,-4,8,-14,1
168733,4678,-6738,-5609,-4,8,-14,1
168738,4677,-6682,-5526,-3,7,-13,1
168743,4720,-6622,-5544,-3,5,-13,1
168748,4715,-6572,-5467,-3,4,-12,1
168753,4751,-6520,-5478,-3,3,-12,1
168758,4742,-6473,-5436,-3,4,-11,1
168763,4756,-6419,-5416,-3,3,-11,1
168768,4799,-6363,-5431,-3,4,-10,1
168773,4804,-6320,-5369,-3,5,-10,1
168778,4855,-6266,-5430,-3,5,-10,1
168783,4821,-6234,-5377,-2,4,-9,1
168788,4882,-6182,-5432,-2,0,-8,1
168793,4857,-6131,-5400,-2,1,-8,1
168798,4885,-6079,-5376,-2,0,-8,1
168803,4879,-6024,-5386,-2,0,-7,1
168808,4886,-5968,-5313,-2,-2,-7,1
168813,4881,-5911,-5325,-2,-3,-6,1
168818,4894,-5851,-5277,-2,-4,-6,1
168823,4887,-5790,-5285,-2,-4,-6,1
168828,4887,-5736,-5265,-2,-4,-6,1
168833,4893,-5656,-5285,-2,-4,-5,1
168838,4890,-5578,-5236,-2,-3,-5,1
168843,4887,-5499,-5225,-2,-2,-5,1
168848,4878,-5426,-5198,-2,-2,-5,1
168853,4901,-5356,-5198,-2,-3,-4,1
168858,4908,-5298,-5197,-2,-2,-4,1
168863,4915,-5225,-5201,-2,-2,-4,1
168868,4927,-5158,-5218,-2,-2,-4,1
168873,4919,-5097,-5214,-2,-2,-4,1
168878,4929,-5043,-5222,-2,-2,-4,1
168883,4933,-4988,-5207,-2,-1,-4,1
168888,4949,-4944,-5194,-2,-1,-4,1
168893,4963,-4908,-5185,-2,-2,-4,1
168898,4947,-4890,-5183,-2,-3,-4,1
168903,4953,-4870,-5181,-2,-4,-3,1
168908,4938,-4849,-5173,-2,-4,-3,1
168913,4923,-4828,-5156,-2,-3,-4,1
168918,4921,-4809,-5161,-2,-3,-3,1
168923,4902,-4789,-5147,-2,-2,-3,1
168928,4927,-4761,-5155,-2,-2,-3,1
168933,4914,-4743,-5157,-2,-2,-3,1
168938,4945,-4718,-5166,-2,-3,-3,1
168943,4957,-4689,-5179,-2,-3,-3,1
168948,4987,-4660,-5166,-2,-2,-3,1
168953,5018,-4629,-5176,-2,-2,-3,1
168958,5013,-4607,-5172,-2,-3,-3,1
168963,4998,-4590,-5219,-2,-4,-3,1
168968,5002,-4577,-5218,-2,-3,-3,1
168973,5034,-4567,-5213,-2,0,-3,1
168978,5066,-4560,-5217,-2,2,-3,1
168983,5081,-4552,-5221,-2,1,-3,1
168988,5083,-4541,-5251,-2,-3,-3,1
168993,5058,-4537,-5251,-2,-5,-2,1
168998,5030,-4534,-5266,-2,-5,-2,1
169003,5000,-4523,-5276,-2,-4,-2,1
169008,4976,-4490,-5275,-2,-3,-2,1
169013,4954,-4465,-5286,-2,-3,-2,1
169018,4931,-4441,-5294,-2,-4,-2,1
169023,4919,-4425,-5315,-2,-4,-2,1
169028,4903,-4419,-5329,-2,-3,-2,1
169033,4897,-4423,-5344,-2,-3,-2,1
169038,4893,-4435,-5358,-2,-3,-2,1
169043,4882,-4450,-5363,-2,-3,-2,1
169048,4869,-4452,-5368,-2,-4,-2,1
169053,4853,-4440,-5364,-2,-4,-2,1
169058,4845,-4426,-5366,-2,-4,-2,1
169063,4842,-4411,-5366,-2,-3,-2,1
169068,4840,-4398,-5368,-2,-3,-2,1
169073,4839,-4386,-5367,-2,-3,-2,1
169078,4840,-4369,-5369,-2,-3,-2,1
169083,4835,-4350,-5365,-2,-4,-2,1
169088,4813,-4333,-5362,-2,-4,-2,1
169093,4793,-4320,-5371,-2,-5,-2,1
169098,4774,-4312,-5388,-2,-4,-2,1
169103,4749,-4305,-5414,-2,-4,-2,1
169108,4740,-4305,-5445,-2,-3,-2,1
169113,4731,-4310,-5465,-2,-3,-2,1
169118,4726,-4314,-5476,-2,-3,-2,1
169123,4722,-4314,-5485,-2,-3,-2,1
169128,4728,-4313,-5482,-2,-3,-2,1
169133,4733,-4314,-5484,-2,-3,-2,1
169138,4743,-4316,-5489,-2,-3,-2,1
169143,4757,-4325,-5493,-2,-4,-2,1
169148,4773,-4323,-5503,-2,-4,-2,1
169153,4779,-4316,-5511,-2,-4,-2,1
169158,4785,-4313,-5509,-2,-5,-2,1
169163,4782,-4316,-5509,-2,-5,-2,1
169168,4777,-4327,-5502,-2,-4,-2,1
169173,4773,-4332,-5488,-2,-4,-2,1
169178,4765,-4331,-5485,-2,-3,-2,1
169183,4765,-4327,-5484,-1,-3,-2,1
169188,4763,-4322,-5494,-1,-2,-2,1
169193,4775,-4320,-5513,-2,-1,-2,1
169198,4778,-4314,-5539,-2,-1,-2,1
169203,4776,-4303,-5560,-2,0,-2,1
169208,4785,-4293,-5576,-2,0,-2,1
169213,4794,-4277,-5578,-2,1,-2,1
169218,4798,-4271,-5579,-2,2,-2,1
169223,4816,-4273,-5580,-2,2,-2,1
169228,4843,-4287,-5573,-2,1,-2,1
169233,4867,-4304,-5561,-1,0,-2,1
169238,4874,-4316,-5558,-1,-1,-2,1
169243,4866,-4323,-5552,-1,-3,-1,1
169248,4848,-4328,-5550,-1,-4,-1,1
169253,4836,-4331,-5543,-1,-4,-1,1
169258,4834,-4332,-5535,-1,-3,-1,1
169263,4840,-4330,-5537,-1,-3,-1,1
169268,4845,-4328,-5537,-1,-3,-1,1
169273,4843,-4324,-5548,-1,-4,-1,1
169278,4832,-4317,-5554,-1,-5,-1,1
169283,4815,-4313,-5565,-1,-5,-1,1
169288,4815,-4316,-5555,-1,-4,-1,1
169293,4829,-4317,-5548,-1,-3,-1,1
169298,4834,-4308,-5544,-1,-3,-1,1
169303,4840,-4293,-5517,-1,-4,-1,1
169308,4841,-4282,-5520,-1,-5,-1,1
169313,4830,-4276,-5518,-1,-6,-1,1
169318,4816,-4277,-5540,-1,-6,-1,1
169323,4809,-4287,-5559,-1,-7,-1,1
169328,4802,-4297,-5569,-1,-8,-1,1
169333,4786,-4314,-5583,-1,-10,-1,1
169338,4770,-4326,-5581,0,-12,-1,1
169343,4758,-4323,-5574,0,-13,-1,1
169348,4733,-4323,-5562,0,-14,-1,1
169353,4734,-4321,-5534,0,-15,-1,1
169358,4713,-4321,-5533,0,-14,-1,1
169363,4689,-4309,-5527,0,-13,-1,1
169368,4696,-4290,-5506,0,-12,-1,1
169373,4678,-4288,-5528,0,-12,-1,1
169378,4668,-4280,-5511,0,-10,-1,1
169383,4648,-4279,-5510,0,-8,-1,1
169388,4644,-4275,-5503,0,-5,-1,1
169393,4656,-4270,-5467,0,-3,-2,1
169398,4693,-4266,-5475,0,-2,-2,1
169403,4727,-4266,-5482,0,-3,-2,1
169408,4750,-4268,-5518,0,-5,-1,1
169413,4759,-4273,-5554,0,-6,-1,1
169418,4766,-4282,-5566,0,-5,-1,1
169423,4773,-4282,-5577,0,-4,-2,1
169428,4771,-4288,-5587,0,-4,-2,1
169433,4774,-4300,-5608,0,-6,-1,1
169438,4769,-4316,-5616,0,-8,-1,1
169443,4776,-4324,-5641,0,-10,-1,1
169448,4772,-4335,-5644,0,-10,-1,1
169453,4769,-4340,-5637,0,-10,-1,1
169458,4755,-4334,-5636,0,-10,-1,1
169463,4747,-4325,-5583,0,-10,-1,1
169468,4716,-4310,-5588,0,-10,-1,1
169473,4654,-4319,-5591,0,-10,-1,1
169478,4619,-4310,-5581,0,-8,-1,1
169483,4584,-4310,-5610,0,-5,-1,1
169488,4578,-4305,-5608,0,-2,-1,1
169493,4595,-4301,-5593,0,1,-1,1
169498,4639,-4289,-5571,0,0,-1,1
169503,4671,-4289,-5546,0,-3,-1,1
169508,4707,-4280,-5520,0,-6,-1,1
169513,4695,-4290,-5538,0,-8,-1,1
169518,4705,-4303,-5531,0,-9,-1,1
169523,4698,-4311,-5526,0,-9,-1,1
169528,4710,-4320,-5508,0,-10,-1,1
169533,4705,-4325,-5475,0,-11,-1,1
169538,4710,-4331,-5448,0,-13,-1,1
169543,4702,-4338,-5447,1,-14,-1,1
169548,4701,-4341,-5412,1,-17,-1,1
169553,4680,-4336,-5452,1,-18,-1,1
169558,4648,-4344,-5472,1,-20,-1,1
169563,4606,-4343,-5496,0,-20,-1,1
169568,4573,-4331,-5502,0,-19,-1,1
169573,4541,-4320,-5484,1,-19,-1,1
169577,4529,-4306,-5496,1,-20,-1,1
169582,4511,-4294,-5480,1,-21,-1,1
169588,4485,-4288,-5491,1,-21,-1,1
169593,4446,-4282,-5475,0,-20,-2,1
169598,4438,-4279,-5472,0,-16,-2,1
169602,4426,-4297,-5516,0,-13,-2,1
169608,4399,-4315,-5560,0,-12,-2,1
169613,4377,-4327,-5623,0,-12,-2,1
169618,4323,-4339,-5610,0,-10,-2,1
169623,4349,-4355,-5575,0,-7,-2,1
169628,4391,-4357,-5570,0,-6,-2,1
169633,4427,-4368,-5535,0,-8,-2,1
169638,4430,-4396,-5577,0,-10,-2,1
169643,4398,-4427,-5631,0,-11,-2,1
169648,4355,-4445,-5678,0,-10,-2,1
169653,4344,-4461,-5687,0,-8,-2,1
169658,4374,-4471,-5649,0,-6,-3,1
169663,4408,-4482,-5620,1,-6,-3,1
169667,4410,-4499,-5614,1,-8,-3,1
169673,4396,-4506,-5613,1,-9,-3,1
169678,4331,-4506,-5634,1,-7,-3,1
169683,4304,-4512,-5662,1,-5,-3,1
169688,4302,-4510,-5656,1,-2,-3,1
169693,4330,-4518,-5661,1,-1,-3,1
169697,4368,-4528,-5596,1,-1,-4,1
169703,4379,-4544,-5588,1,-2,-4,1
169708,4365,-4569,-5560,1,-2,-4,1
169713,4327,-4605,-5540,1,-2,-4,1
169717,4323,-4644,-5558,1,-1,-4,1
169722,4309,-4695,-5548,2,0,-4,1
169728,4347,-4744,-5511,2,0,-4,1
169733,4365,-4799,-5542,2,-2,-4,1
169738,4353,-4852,-5527,2,-4,-4,1
169743,4328,-4888,-5561,2,-5,-4,1
169747,4317,-4920,-5544,2,-5,-5,1
169752,4326,-4958,-5600,3,-4,-5,1
169758,4332,-5001,-5544,3,-4,-5,1
169762,4374,-5041,-5516,3,-5,-5,1
169767,4418,-5091,-5556,3,-6,-5,1
169772,4380,-5155,-5521,3,-7,-5,1
169777,4370,-5211,-5563,3,-7,-5,1
169782,4349,-5282,-5545,4,-5,-5,1
169787,4385,-5358,-5578,4,-4,-5,1
169792,4417,-5428,-5527,4,-3,-5,1
169797,4453,-5497,-5532,5,-3,-5,1
169803,4470,-5557,-5514,5,-2,-5,1
169807,4481,-5627,-5518,5,-2,-5,1
169812,4524,-5703,-5607,5,-1,-4,1
169817,4544,-5753,-5593,6,0,-4,1
169822,4568,-5802,-5666,6,2,-4,1
169827,4547,-5851,-5565,6,4,-4,1
169833,4544,-5883,-5605,6,5,-4,1
169837,4502,-5925,-5534,6,7,-3,1
169842,4487,-5973,-5501,7,8,-3,1
169848,4484,-6018,-5567,7,10,-3,1
169853,4495,-6078,-5515,7,11,-2,1
169857,4554,-6135,-5615,7,10,-2,1
169862,4585,-6199,-5596,8,11,-2,1
169867,4618,-6252,-5596,8,10,-2,1
169872,4651,-6314,-5586,8,8,-1,1
169877,4668,-6371,-5560,9,7,-1,1
169882,4685,-6429,-5550,9,7,0,1
169887,4706,-6505,-5569,10,7,0,1
169892,4727,-6601,-5601,10,8,0,1
169897,4772,-6697,-5660,11,9,1,1
169902,4809,-6785,-5705,11,11,1,1
169907,4842,-6869,-5736,12,13,1,1
169912,4882,-6955,-5758,12,15,2,1
169918,4944,-7031,-5780,13,17,2,1
169922,5002,-7097,-5803,14,18,3,1
169927,5075,-7151,-5882,14,18,3,1
169932,5043,-7183,-5836,15,19,4,1
169937,5135,-7214,-5976,16,20,5,1
169942,5163,-7215,-6012,16,24,5,1
169947,5229,-7218,-6047,17,28,6,1
169952,5303,-7189,-6087,17,29,6,1
169957,5306,-7178,-6015,18,30,7,1
169962,5358,-7134,-6087,19,28,8,1
169967,5375,-7102,-6080,20,28,8,1
169972,5375,-7077,-6088,20,28,9,1
169977,5396,-7050,-6112,21,29,9,1
169982,5403,-7026,-6117,22,31,10,1
169987,5437,-6984,-6261,22,30,11,1
169992,5418,-6941,-6215,23,29,12,1
169997,5461,-6904,-6275,24,28,12,1
170002,5461,-6881,-6227,24,29,13,1
170007,5475,-6872,-6220,25,29,13,1
170012,5508,-6861,-6258,26,27,14,1
170017,5492,-6853,-6190,27,26,15,1
170022,5532,-6813,-6213,27,24,15,1
170027,5520,-6774,-6145,28,24,16,1
170032,5562,-6757,-6141,29,23,16,1
170037,5549,-6731,-6105,30,22,17,1
170042,5614,-6718,-6204,30,20,18,1
170047,5592,-6715,-6159,31,20,18,1
170052,5608,-6685,-6187,32,20,19,1
170057,5605,-6664,-6209,33,21,19,1
170062,5540,-6646,-6177,33,22,20,1
170067,5530,-6596,-6247,34,20,20,1
170072,5484,-6576,-6247,34,22,21,1
170077,5392,-6517,-6122,35,24,22,1
170082,5283,-6466,-5988,36,28,22,1
170087,5391,-6417,-5924,37,31,22,1
170092,5384,-6353,-5706,38,34,22,1
170097,5460,-6308,-5643,38,31,23,1
170102,5451,-6265,-5563,38,24,24,1
170107,5485,-6214,-5565,38,17,25,1
170112,5370,-6167,-5423,39,15,25,1
170117,5364,-6139,-5428,40,13,26,1
170122,5334,-6113,-5460,40,15,26,1
170127,5200,-6097,-5258,41,16,26,1
170132,5186,-6056,-5289,41,16,27,1
170137,5071,-6047,-5045,42,19,27,1
170142,5074,-6029,-5028,42,19,28,1
170147,5129,-6026,-5003,43,23,28,1
170152,5078,-5989,-4854,43,24,28,1
170157,5197,-5939,-4907,43,23,29,1
170162,5144,-5866,-4699,43,24,29,1
170167,5255,-5788,-4769,43,21,30,1
170172,5234,-5728,-4647,44,22,30,1
170177,5204,-5652,-4546,44,21,31,1
170182,5186,-5574,-4477,44,20,32,1
170187,5137,-5531,-4336,44,20,32,1
170192,5171,-5455,-4312,44,17,32,1
170197,5123,-5375,-4170,44,17,33,1
170202,5136,-5291,-4141,44,14,33,1
170207,5080,-5244,-4038,43,14,34,1
170212,5126,-5208,-4051,43,11,34,1
170217,5053,-5128,-3913,43,11,34,1
170222,5048,-5068,-3824,43,10,35,1
170227,5039,-5006,-3752,43,11,35,1
170232,5023,-4964,-3667,43,10,35,1
170237,5006,-4939,-3624,42,8,35,1
170242,4993,-4929,-3577,42,8,36,1
170247,4985,-4913,-3534,42,9,36,1
170252,4993,-4868,-3498,41,12,36,1
170257,4916,-4847,-3366,41,15,36,1
170262,4934,-4866,-3319,41,15,37,1
170267,5055,-4879,-3423,40,14,37,1
170272,5006,-4852,-3324,40,15,37,1
170277,4965,-4854,-3182,39,12,38,1
170282,5030,-4848,-3258,39,10,38,1
170287,4859,-4898,-3004,39,9,38,1
170292,5017,-4929,-3216,38,4,38,1
170297,4824,-4949,-2972,38,5,39,1
170302,4814,-4962,-3008,37,-1,39,1
170307,4774,-5037,-2999,37,0,39,1
170312,4738,-5124,-2952,37,-2,40,1
170317,4802,-5107,-3051,37,-4,40,1
170322,4565,-5104,-2849,36,2,40,1
170327,4499,-5137,-2774,36,0,40,1
170332,4510,-5108,-2833,36,1,40,1
170337,4350,-5162,-2615,36,5,40,1
170342,4367,-5242,-2675,35,5,40,1
170347,4339,-5300,-2611,35,9,40,1
170352,4357,-5311,-2688,34,10,40,1
170357,4304,-5419,-2667,34,14,40,1
170362,4274,-5460,-2673,34,12,40,1
170367,4187,-5510,-2598,34,10,41,1
170372,4076,-5596,-2493,34,8,41,1
170377,4078,-5608,-2525,34,6,41,1
170382,3929,-5691,-2382,34,8,42,1
170387,3894,-5721,-2423,34,8,42,1
170392,3721,-5776,-2306,33,12,41,1
170397,3666,-5732,-2306,33,14,41,1
170402,3551,-5714,-2267,33,19,41,1
170407,3520,-5745,-2244,33,23,41,1
170412,3515,-5716,-2320,32,27,40,1
170417,3463,-5747,-2265,32,34,40,1
170422,3585,-5699,-2441,31,37,40,1
170427,3482,-5676,-2311,31,43,39,1
170432,3388,-5681,-2169,30,43,39,1
170437,3547,-5712,-2400,29,42,39,1
170442,3355,-5797,-2203,29,45,39,1
170447,3377,-5803,-2254,28,39,38,1
170452,3252,-5890,-2151,28,40,38,1
170457,3166,-5892,-2020,28,37,38,1
170462,3062,-5892,-1963,27,36,38,1
170467,2868,-6001,-1744,28,36,38,1
170472,2927,-6027,-1848,27,32,38,1
170477,2723,-6062,-1633,27,33,37,1
170482,2602,-6024,-1536,26,29,37,1
170487,2562,-6071,-1536,26,29,37,1
170492,2520,-6092,-1483,25,28,36,1
170497,2432,-6158,-1373,25,26,36,1
170502,2446,-6276,-1357,25,24,36,1
170507,2470,-6273,-1405,24,24,35,1
170512,2443,-6287,-1363,23,24,34,1
170517,2369,-6225,-1262,23,24,34,1
170522,2317,-6180,-1209,22,22,33,1
170527,2269,-6263,-1155,22,21,33,1
170532,2198,-6327,-1090,22,20,33,1
170537,2290,-6459,-1198,21,21,32,1
170542,2211,-6472,-1120,21,22,32,1
170547,2212,-6495,-1174,20,24,31,1
170552,2155,-6610,-1107,20,26,30,1
170557,2223,-6700,-1160,19,24,30,1
170562,2161,-6783,-1084,19,24,30,1
170567,2089,-6774,-1005,19,22,30,1
170572,2015,-7144,-902,19,23,30,1
170577,2206,-6974,-1120,19,20,30,1
170582,2463,-6828,-1531,17,30,28,1
170587,2115,-7335,-1053,17,33,28,1
170592,1814,-7229,-762,17,13,30,1
170597,1814,-7161,-778,17,6,31,1
170602,1585,-7292,-507,18,19,31,1
170607,1778,-7317,-619,18,26,30,1
170612,1923,-7386,-670,18,34,29,1
170617,2016,-7477,-672,17,26,29,1
170622,2117,-7440,-822,16,11,29,1
170627,1954,-7479,-669,16,0,30,1
170632,1898,-7322,-721,16,-7,30,1
170637,1611,-7261,-550,16,1,30,1
170642,1664,-7281,-615,16,7,29,1
170647,1723,-7413,-743,16,14,28,1
170652,1717,-7537,-728,16,18,28,1
170657,1782,-7522,-776,16,14,27,1
170662,1805,-7550,-785,15,14,27,1
170667,1818,-7542,-782,15,13,27,1
170672,1855,-7727,-794,15,13,26,1
170677,1774,-7568,-751,15,13,26,1
170682,1674,-7466,-716,14,14,25,1
170687,1598,-7490,-616,14,14,25,1
170692,1617,-7603,-631,14,13,25,1
170697,1366,-7553,-402,14,13,25,1
170702,1511,-7529,-523,14,9,25,1
170707,1540,-7691,-576,14,12,24,1
170712,1533,-7655,-565,14,6,24,1
170717,1390,-7585,-501,14,-3,24,1
170722,1251,-7585,-391,14,-11,24,1
170727,1252,-7745,-445,14,-13,25,1
170732,1137,-7780,-379,15,-9,25,1
170737,1149,-7772,-428,15,-8,24,1
170742,1204,-7922,-466,15,-7,24,1
170747,1151,-7917,-375,16,-9,25,1
170752,1275,-7947,-473,16,-13,25,1
170757,1136,-7991,-299,17,-11,26,1
170762,1265,-7975,-393,17,-12,26,1
170767,1206,-7965,-368,18,-5,26,1
170772,1178,-8007,-294,18,-3,27,1
170777,1203,-7993,-334,19,-1,27,1
170782,1185,-7990,-284,19,3,28,1
170787,1169,-8007,-243,20,6,28,1
170792,1122,-8034,-160,20,9,29,1
170797,1094,-8063,-99,21,11,30,1
170802,1057,-8100,-40,21,12,31,1
170807,1047,-8137,2,22,13,31,1
170812,1022,-8165,34,22,14,32,1
170817,991,-8180,81,22,12,33,1
170822,946,-8178,131,23,10,33,1
170827,895,-8162,191,23,8,34,1
170832,844,-8133,234,23,6,34,1
170837,812,-8092,275,24,5,35,1
170842,776,-8039,324,24,4,35,1
170847,733,-7980,368,24,2,36,1
170852,693,-7913,426,25,-1,36,1
170857,654,-7838,492,25,-3,36,1
170862,617,-7762,550,25,-5,37,1
170867,574,-7682,598,25,-7,37,1
170872,526,-7601,646,26,-8,37,1
170877,481,-7521,678,26,-9,37,1
170882,427,-7442,714,26,-10,37,1
170887,375,-7365,747,26,-10,37,1
170892,334,-7291,767,26,-9,37,1
170897,299,-7226,779,26,-7,37,1
170902,269,-7168,790,27,-6,37,1
170907,246,-7123,795,27,-4,37,1
170912,221,-7086,815,27,-2,37,1
170917,194,-7055,841,27,1,37,1
170922,172,-7035,863,27,2,37,1
170927,144,-7023,888,27,4,37,1
170932,129,-7013,890,27,4,37,1
170937,103,-7012,887,27,5,36,1
170942,57,-7024,896,27,6,36,1
170947,9,-7044,903,26,6,36,1
170952,-29,-7071,912,26,5,36,1
170957,-64,-7107,927,26,5,35,1
170962,-96,-7149,931,26,6,35,1
170967,-125,-7198,944,26,6,34,1
170972,-151,-7250,960,25,6,34,1
170977,-173,-7306,980,25,6,34,1
170982,-188,-7366,994,25,5,33,1
170987,-190,-7434,997,24,5,32,1
170992,-177,-7503,1000,24,5,32,1
170997,-164,-7580,996,23,3,31,1
171002,-142,-7664,979,23,2,30,1
171007,-123,-7757,954,22,2,29,1
171012,-94,-7851,926,22,2,28,1
171017,-9,-7947,877,22,3,27,1
171022,102,-8041,797,22,4,28,1
171027,62,-8140,739,23,4,30,1
171032,-35,-8237,700,23,-2,30,1
171037,-88,-8326,635,23,-5,29,1
171042,-158,-8405,599,23,-3,29,1
171047,-350,-8474,686,22,-1,27,1
171052,-469,-8539,841,21,-3,25,1
171057,-611,-8602,990,21,-2,25,1
171062,-634,-8673,1072,21,0,24,1
171067,-569,-8745,1051,21,4,23,1
171072,-426,-8812,953,20,5,22,1
171077,-345,-8864,900,19,1,21,1
171082,-352,-8902,918,18,-6,20,1
171087,-424,-8932,989,18,-12,20,1
171092,-510,-8965,1069,18,-12,19,1
171097,-541,-9000,1093,18,-10,18,1
171102,-505,-9034,1069,17,-8,17,1
171107,-443,-9058,1047,17,-7,16,1
171112,-402,-9062,1057,16,-9,15,1
171117,-394,-9053,1101,15,-13,15,1
171122,-418,-9038,1159,15,-16,14,1
171127,-440,-9021,1193,15,-17,13,1
171132,-437,-9007,1203,14,-17,12,1
171137,-415,-8989,1206,14,-16,11,1
171142,-385,-8960,1207,13,-16,11,1
171147,-370,-8919,1241,13,-17,10,1
171152,-371,-8874,1293,12,-18,9,1
171157,-377,-8829,1342,12,-19,8,1
171162,-382,-8788,1379,11,-19,7,1
171167,-381,-8748,1400,11,-18,7,1
171172,-366,-8710,1403,10,-17,6,1
171177,-348,-8679,1421,9,-16,5,1
171182,-335,-8643,1439,9,-16,4,1
171187,-324,-8606,1456,8,-17,4,1
171192,-315,-8574,1473,8,-16,3,1
171197,-310,-8542,1485,7,-16,2,1
171202,-304,-8509,1497,7,-15,1,1
171207,-303,-8474,1520,6,-15,1,1
171212,-306,-8432,1540,6,-16,0,1
171217,-316,-8388,1565,5,-17,0,1
171222,-334,-8350,1593,5,-16,-1,1
171227,-350,-8322,1615,4,-14,-2,1
171232,-360,-8295,1630,4,-13,-3,1
171237,-365,-8270,1647,3,-12,-3,1
171242,-372,-8246,1655,3,-13,-4,1
171247,-371,-8225,1662,2,-13,-4,1
171252,-374,-8207,1680,2,-14,-5,1
171257,-382,-8198,1697,2,-14,-5,1
171262,-395,-8194,1716,1,-14,-6,1
171267,-413,-8190,1736,1,-14,-6,1
171272,-426,-8187,1759,0,-14,-7,1
171277,-433,-8183,1780,0,-14,-8,1
171282,-438,-8175,1794,0,-14,-8,1
171287,-447,-8170,1808,-1,-15,-8,1
171292,-453,-8162,1814,-1,-15,-9,1
171297,-461,-8150,1805,-1,-15,-9,1
171302,-477,-8135,1803,-2,-15,-10,1
171307,-490,-8115,1806,-2,-15,-10,1
171312,-501,-8094,1805,-2,-14,-10,1
171317,-506,-8078,1813,-3,-13,-11,1
171322,-503,-8067,1809,-3,-11,-11,1
171327,-496,-8063,1791,-3,-10,-11,1
171332,-491,-8069,1787,-3,-9,-12,1
171337,-486,-8075,1776,-3,-9,-12,1
171342,-488,-8081,1771,-4,-8,-12,1
171347,-493,-8090,1785,-4,-8,-12,1
171352,-501,-8102,1808,-4,-7,-13,1
171357,-517,-8116,1829,-4,-7,-13,1
171362,-534,-8127,1858,-4,-7,-13,1
171367,-545,-8134,1869,-4,-7,-13,1
171372,-552,-8135,1864,-4,-7,-13,1
171377,-557,-8135,1851,-4,-7,-13,1
171382,-558,-8130,1832,-4,-8,-13,1
171387,-559,-8127,1808,-4,-9,-13,1
171392,-556,-8120,1795,-4,-9,-13,1
171397,-551,-8112,1790,-4,-9,-13,1
171402,-547,-8104,1792,-4,-8,-13,1
171407,-546,-8092,1806,-4,-8,-13,1
171412,-542,-8078,1813,-4,-8,-13,1
171417,-538,-8067,1825,-4,-7,-13,1
171422,-536,-8058,1838,-4,-7,-13,1
171427,-533,-8050,1849,-4,-6,-12,1
171432,-533,-8046,1863,-4,-5,-12,1
171437,-529,-8044,1862,-4,-4,-12,1
171442,-510,-8042,1841,-4,-3,-12,1
171447,-485,-8038,1821,-4,-2,-12,1
171452,-460,-8030,1802,-4,-2,-12,1
171457,-427,-8015,1789,-4,-2,-12,1
171462,-416,-8001,1795,-4,-2,-12,1
171467,-391,-7981,1831,-4,-2,-13,1
171472,-343,-7967,1872,-4,-1,-13,1
171477,-343,-7951,1917,-4,-1,-12,1
171482,-347,-7939,1950,-4,-3,-12,1
171487,-358,-7926,1947,-4,-3,-12,1
171492,-372,-7910,1933,-4,-3,-12,1
171497,-386,-7894,1915,-4,-3,-12,1
171502,-400,-7881,1890,-4,-3,-12,1
171507,-404,-7867,1894,-4,-3,-11,1
171512,-409,-7854,1924,-4,-3,-11,1
171517,-406,-7843,1944,-4,-3,-11,1
171522,-404,-7839,1954,-4,-3,-11,1
171527,-402,-7838,1957,-4,-3,-11,1
171532,-394,-7836,1942,-4,-2,-11,1
171537,-384,-7832,1931,-4,-2,-11,1
171542,-373,-7821,1925,-4,-1,-11,1
171547,-359,-7811,1923,-4,-1,-10,1
171552,-350,-7793,1931,-4,0,-10,1
171557,-338,-7777,1934,-4,0,-10,1
171562,-322,-7758,1927,-4,0,-10,1
171567,-314,-7737,1918,-4,1,-10,1
171572,-309,-7717,1909,-4,1,-10,1
171577,-307,-7700,1895,-4,1,-9,1
171582,-310,-7688,1888,-4,2,-9,1
171587,-311,-7679,1889,-4,2,-9,1
171592,-307,-7675,1886,-4,3,-9,1
171597,-301,-7678,1894,-5,3,-9,1
171602,-293,-7683,1893,-5,4,-9,1
171607,-286,-7691,1885,-5,3,-8,1
171612,-284,-7720,1882,-5,3,-8,1
171617,-90,-8476,1807,-5,4,-9,1
171622,20,-8223,1829,-7,4,-12,1
171627,39,-8183,1848,-5,-9,-9,1
171632,-304,-8180,1986,-3,-20,-5,1
171637,-759,-8200,2160,-2,-23,-3,1
171642,-1113,-8199,2168,-1,-15,-1,1
171647,-1295,-8177,2113,0,0,0,1
171652,-1163,-8083,1969,0,14,0,1
171657,-932,-8119,1866,0,22,0,1
171662,-697,-8127,1900,-1,17,0,1
171667,-491,-8155,1865,-1,5,0,1
171672,-402,-8165,1863,-1,-3,0,1
171677,-351,-8168,1875,-2,-6,0,1
171682,-291,-8160,1839,-2,-2,-1,1
171687,-263,-8153,1871,-2,2,-2,1
171692,-227,-8141,1921,-2,3,-3,1
171697,-210,-8130,1947,-2,2,-3,1
171702,-241,-8119,2011,-2,0,-3,1
171707,-275,-8115,2046,-2,-1,-3,1
171712,-312,-8112,2048,-2,1,-3,1
171717,-349,-8108,2063,-2,2,-3,1
171722,-362,-8109,2053,-2,3,-3,1
171727,-365,-8111,2046,-2,4,-3,1
171732,-366,-8109,2041,-2,3,-3,1
171737,-368,-8106,2029,-3,2,-3,1
171742,-360,-8109,2025,-3,2,-4,1
171747,-351,-8108,2029,-3,1,-4,1
171752,-338,-8109,2027,-3,1,-4,1
171757,-314,-8113,2031,-3,0,-4,1
171762,-283,-8107,2028,-4,-1,-5,1
171767,-332,-8102,2074,-4,-3,-5,1
171771,-401,-8094,2132,-4,-7,-4,1
171777,-479,-8090,2184,-4,-7,-4,1
171781,-586,-8088,2231,-4,-6,-3,1
171787,-665,-8090,2270,-4,-6,-3,1
171792,-675,-8089,2264,-4,-5,-4,1
171797,-683,-8092,2249,-4,-3,-4,1
171802,-667,-8095,2234,-4,-4,-4,1
171807,-640,-8096,2206,-4,-5,-5,1
171811,-631,-8099,2188,-4,-6,-5,1
171817,-621,-8100,2168,-4,-8,-5,1
171822,-595,-8103,2142,-5,-8,-5,1
171827,-581,-8105,2120,-5,-7,-5,1
171832,-567,-8107,2079,-5,-8,-5,1
171836,-539,-8106,2027,-4,-9,-5,1
171842,-495,-8109,1953,-4,-9,-5,1
171847,-496,-8114,1916,-4,-9,-5,1
171852,-509,-8117,1912,-5,-12,-5,1
171857,-522,-8118,1933,-5,-13,-6,1
171861,-570,-8118,2015,-6,-12,-6,1
171867,-613,-8114,2111,-6,-12,-6,1
171872,-628,-8111,2167,-6,-12,-6,1
171876,-619,-8103,2221,-6,-11,-6,1
171881,-590,-8095,2265,-6,-10,-6,1
171886,-533,-8093,2271,-6,-10,-6,1
171891,-463,-8092,2251,-6,-11,-6,1
171896,-415,-8092,2226,-6,-12,-6,1
171901,-382,-8096,2194,-6,-14,-7,1
171907,-373,-8100,2172,-6,-16,-7,1
171911,-402,-8102,2169,-7,-18,-7,1
171917,-433,-8105,2168,-7,-19,-7,1
171921,-458,-8104,2169,-7,-19,-7,1
171926,-467,-8103,2181,-7,-19,-7,1
171931,-444,-8102,2190,-7,-19,-6,1
171936,-406,-8104,2196,-7,-19,-7,1
171941,-366,-8104,2196,-7,-20,-7,1
171946,-313,-8102,2177,-7,-21,-7,1
171951,-270,-8102,2156,-7,-22,-7,1
171956,-243,-8103,2141,-8,-23,-7,1
171961,-217,-8106,2117,-8,-24,-7,1
171966,-199,-8107,2093,-8,-24,-7,1
171971,-186,-8107,2073,-8,-24,-7,1
171977,-160,-8107,2049,-8,-24,-7,1
171981,-128,-8110,2028,-8,-23,-7,1
171986,-92,-8115,2016,-8,-23,-7,1
171991,-41,-8117,2001,-8,-23,-7,1
171996,6,-8118,1986,-8,-24,-7,1
172001,49,-8117,1975,-9,-24,-7,1
172006,90,-8113,1973,-9,-24,-7,1
172011,123,-8109,1976,-9,-25,-7,1
172016,156,-8106,1966,-9,-25,-7,1
172021,189,-8105,1965,-9,-26,-6,1
172026,215,-8103,1957,-9,-26,-6,1
172031,242,-8106,1934,-9,-26,-6,1
172036,271,-8109,1901,-9,-26,-6,1
172041,293,-8113,1859,-9,-26,-6,1
172046,309,-8117,1820,-9,-27,-6,1
172051,323,-8120,1780,-9,-27,-6,1
172056,331,-8123,1755,-9,-27,-6,1
172061,334,-8124,1730,-9,-27,-6,1
172066,336,-8128,1707,-9,-27,-6,1
172071,341,-8131,1692,-9,-27,-6,1
172076,351,-8135,1679,-9,-26,-6,1
172081,363,-8137,1667,-9,-26,-5,1
172086,372,-8140,1648,-9,-25,-5,1
172091,380,-8143,1636,-9,-25,-5,1
172096,380,-8144,1626,-10,-25,-5,1
172101,374,-8146,1615,-10,-25,-5,1
172106,359,-8146,1604,-10,-25,-5,1
172111,344,-8147,1589,-10,-25,-5,1
172116,327,-8149,1574,-10,-25,-5,1
172121,312,-8151,1555,-10,-25,-5,1
172126,299,-8152,1534,-10,-25,-5,1
172131,287,-8155,1513,-10,-26,-5,1
172136,278,-8158,1489,-10,-26,-5,1
172141,273,-8162,1469,-10,-27,-5,1
172146,266,-8161,1457,-10,-28,-5,1
172151,258,-8159,1447,-10,-29,-5,1
172156,245,-8161,1438,-10,-30,-5,1
172161,228,-8165,1436,-10,-32,-5,1
172166,215,-8166,1426,-10,-34,-5,1
172171,208,-8165,1419,-10,-36,-5,1
172176,201,-8168,1414,-10,-39,-5,1
172181,196,-8171,1407,-10,-42,-5,1
172186,190,-8172,1389,-10,-44,-5,1
172191,183,-8175,1370,-10,-45,-5,1
172196,179,-8175,1344,-10,-45,-5,1
172201,181,-8176,1314,-10,-43,-5,1
172206,183,-8181,1286,-10,-41,-5,1
172211,190,-8184,1256,-10,-39,-5,1
172216,200,-8186,1233,-10,-36,-5,1
172221,212,-8186,1209,-10,-34,-6,1
172226,225,-8187,1187,-10,-30,-6,1
172231,233,-8191,1169,-10,-27,-6,1
172236,242,-8190,1150,-10,-25,-6,1
172241,254,-8188,1129,-9,-23,-6,1
172246,266,-8191,1111,-9,-22,-6,1
172251,284,-8195,1092,-9,-21,-6,1
172256,303,-8199,1071,-9,-21,-6,1
172261,318,-8202,1047,-9,-22,-6,1
172266,336,-8203,1027,-9,-23,-6,1
172271,353,-8203,1023,-9,-25,-6,1
172276,362,-8201,1036,-9,-27,-6,1
172281,363,-8203,1052,-9,-29,-6,1
172286,358,-8202,1083,-9,-30,-6,1
172291,349,-8202,1114,-9,-30,-6,1
172296,345,-8200,1136,-9,-30,-6,1
172301,346,-8199,1156,-9,-29,-6,1
172306,347,-8196,1170,-9,-28,-6,1
172311,356,-8195,1167,-9,-27,-6,1
