millis,ax,ay,az,gx,gy,gz,label
398777,795,-8280,216,-1,-2,-2,0
398782,796,-8279,212,-1,-2,-2,1
398787,798,-8280,200,-1,-2,-2,1
398792,799,-8278,192,-1,-2,-2,1
398797,801,-8278,185,-1,-2,-2,1
398802,804,-8276,183,-1,-2,-2,1
398807,805,-8278,186,-1,-1,-2,1
398812,807,-8276,183,-1,-1,-2,1
398817,811,-8271,183,-1,-1,-2,1
398822,812,-8269,182,-1,-2,-2,1
398827,814,-8270,180,-1,-2,-2,1
398832,812,-8272,181,-1,-2,-2,1
398837,810,-8273,180,-1,-1,-2,1
398842,808,-8272,175,-1,-1,-2,1
398847,811,-8273,177,-1,-1,-2,1
398852,813,-8271,179,-1,-1,-2,1
398857,817,-8271,181,-1,-1,-2,1
398862,823,-8270,187,-1,-1,-2,1
398867,828,-8272,193,-1,-2,-2,1
398872,832,-8271,195,-1,-2,-2,1
398877,832,-8273,194,-1,-2,-2,1
398882,833,-8274,191,-1,-2,-2,1
398887,830,-8274,187,-1,-2,-2,1
398892,827,-8272,185,-1,-2,-2,1
398897,824,-8274,182,-1,-2,-2,1
398902,824,-8276,180,-1,-2,-2,1
398907,825,-8275,180,-1,-2,-2,1
398912,827,-8274,178,-1,-2,-2,1
398917,827,-8277,183,-1,-2,-2,1
398922,832,-8280,189,-1,-2,-2,1
398927,831,-8283,191,-1,-2,-2,1
398932,833,-8285,193,-1,-2,-2,1
398937,832,-8283,193,-1,-2,-2,1
398942,832,-8281,194,-1,-2,-2,1
398947,829,-8278,193,-1,-2,-2,1
398952,830,-8280,191,-1,-2,-2,1
398957,831,-8281,190,-1,-2,-2,1
398962,832,-8282,191,-1,-2,-2,1
398967,831,-8282,187,-1,-2,-2,1
398972,835,-8280,191,-1,-2,-2,1
398977,837,-8282,193,-1,-2,-2,1
398982,841,-8280,191,-1,-3,-2,1
398987,842,-8277,194,-1,-3,-2,1
398992,842,-8280,196,-1,-3,-2,1
398997,845,-8282,204,-1,-3,-2,1
399002,846,-8281,217,-1,-3,-2,1
399007,843,-8278,229,-1,-3,-2,1
399012,837,-8280,240,-1,-4,-2,1
399017,829,-8282,245,-1,-4,-2,1
399022,819,-8282,248,-1,-4,-2,1
399027,812,-8282,242,-1,-3,-2,1
399032,802,-8281,235,-1,-3,-2,1
399037,795,-8282,224,-1,-3,-2,1
399042,790,-8282,215,-1,-2,-2,1
399047,788,-8283,204,-1,-2,-2,1
399052,794,-8284,197,-1,-2,-2,1
399057,801,-8282,189,-1,-2,-2,1
399062,809,-8280,180,-1,-2,-2,1
399067,819,-8279,171,-1,-2,-2,1
399072,826,-8277,162,-1,-2,-2,1
399077,831,-8278,154,-1,-2,-2,1
399082,833,-8278,148,-1,-2,-2,1
399087,833,-8279,147,-1,-3,-2,1
399092,833,-8282,148,-1,-3,-2,1
399097,831,-8284,150,-1,-2,-2,1
399102,831,-8285,156,-1,-2,-2,1
399107,828,-8286,155,-1,-2,-2,1
399112,827,-8285,158,-1,-2,-2,1
399117,829,-8286,158,-1,-2,-2,1
399122,833,-8287,161,-1,-2,-2,1
399127,836,-8289,165,-1,-2,-2,1
399132,839,-8287,170,-1,-2,-2,1
399137,840,-8285,172,-1,-3,-2,1
399142,840,-8286,173,-1,-3,-2,1
399147,842,-8285,171,-1,-3,-2,1
399152,843,-8284,166,-1,-3,-2,1
399157,845,-8283,160,-1,-3,-2,1
399162,851,-8284,155,-1,-3,-2,1
399167,859,-8286,157,-1,-4,-2,1
399172,867,-8287,162,-1,-4,-2,1
399177,871,-8287,164,-1,-4,-2,1
399182,873,-8283,172,-1,-5,-2,1
399187,870,-8280,170,-1,-5,-2,1
399192,864,-8279,177,-1,-5,-2,1
399197,858,-8280,180,-1,-5,-2,1
399202,852,-8282,180,-1,-5,-2,1
399207,846,-8284,180,-1,-5,-2,1
399212,842,-8284,178,-1,-5,-2,1
399217,841,-8285,173,-1,-5,-2,1
399222,840,-8284,178,-1,-5,-2,1
399227,839,-8283,180,-1,-5,-2,1
399232,842,-8284,184,-1,-5,-2,1
399237,841,-8281,183,-1,-6,-2,1
399242,840,-8277,185,-1,-6,-2,1
399247,838,-8276,180,-1,-6,-2,1
399252,832,-8275,178,-1,-6,-2,1
399257,823,-8275,180,-1,-7,-2,1
399262,813,-8276,181,-1,-6,-2,1
399267,801,-8277,171,-1,-7,-2,1
399272,785,-8278,167,-1,-6,-2,1
399277,770,-8278,164,-1,-6,-2,1
399282,755,-8278,157,-1,-5,-2,1
399287,736,-8278,156,-1,-5,-2,1
399292,721,-8279,155,-1,-4,-2,1
399297,712,-8280,161,-1,-3,-2,1
399302,707,-8279,174,-1,-3,-2,1
399307,704,-8278,181,-1,-3,-2,1
399312,702,-8279,185,-1,-3,-2,1
399317,700,-8276,189,-1,-3,-2,1
399322,698,-8276,190,-1,-3,-2,1
399327,694,-8276,189,-1,-2,-2,1
399332,690,-8276,188,-1,-2,-2,1
399337,693,-8277,184,-1,-2,-2,1
399342,698,-8277,180,-1,-2,-2,1
399347,704,-8277,184,-1,-2,-2,1
399352,717,-8278,184,-1,-2,-2,1
399357,730,-8277,186,-1,-1,-2,1
399361,746,-8276,180,-1,-2,-2,1
399367,754,-8276,172,-1,-2,-2,1
399371,764,-8276,158,-1,-2,-2,1
399377,774,-8277,142,-1,-2,-2,1
399381,783,-8277,133,-1,-2,-2,1
399387,796,-8279,130,-1,-2,-2,1
399391,805,-8277,136,-1,-2,-2,1
399396,814,-8275,141,-1,-2,-2,1
399401,823,-8274,142,-1,-2,-2,1
399407,832,-8274,142,-1,-2,-2,1
399411,838,-8272,140,-1,-2,-2,1
399416,841,-8275,138,-1,-3,-2,1
399421,843,-8277,137,-1,-3,-2,1
399426,840,-8276,133,-1,-3,-2,1
399432,843,-8276,131,-1,-2,-2,1
399436,851,-8279,130,-1,-2,-2,1
399441,860,-8280,128,-1,-3,-2,1
399446,872,-8280,128,-1,-3,-2,1
399451,882,-8280,128,-1,-3,-2,1
399457,893,-8280,133,0,-3,-2,1
399461,904,-8279,140,0,-4,-2,1
399466,910,-8279,144,-1,-4,-2,1
399471,910,-8278,146,0,-4,-2,1
399476,908,-8280,152,0,-4,-2,1
399481,905,-8283,151,0,-4,-2,1
399486,904,-8282,152,0,-4,-2,1
399491,906,-8283,153,0,-4,-2,1
399496,908,-8281,157,0,-5,-2,1
399501,910,-8277,157,0,-5,-1,1
399506,911,-8275,158,0,-5,-2,1
399511,911,-8276,163,0,-5,-2,1
399516,909,-8274,167,0,-5,-1,1
399521,910,-8271,174,0,-5,-1,1
399526,910,-8272,177,0,-5,-1,1
399531,908,-8273,180,0,-6,-1,1
399536,907,-8276,182,0,-6,-1,1
399541,906,-8277,189,0,-6,-1,1
399546,905,-8279,190,0,-6,-1,1
399551,902,-8276,193,0,-6,-1,1
399556,897,-8276,199,0,-6,-1,1
399561,892,-8277,209,0,-7,-1,1
399566,879,-8280,222,0,-7,-1,1
399571,868,-8282,225,0,-7,-1,1
399576,857,-8281,224,0,-7,-1,1
399581,850,-8280,224,0,-7,-1,1
399586,841,-8280,219,0,-7,-1,1
399591,829,-8280,207,0,-7,-1,1
399596,822,-8278,204,0,-7,-1,1
399601,823,-8276,206,0,-7,-1,1
399606,825,-8277,212,0,-7,-1,1
399611,833,-8276,219,0,-8,-1,1
399616,841,-8275,237,0,-9,-1,1
399621,845,-8276,253,0,-10,-1,1
399626,845,-8277,269,0,-11,-1,1
399631,832,-8275,285,0,-12,-1,1
399636,815,-8276,305,0,-13,-1,1
399641,796,-8280,311,0,-13,-1,1
399646,769,-8281,310,0,-13,-1,1
399651,743,-8282,307,0,-13,-1,1
399656,717,-8281,305,0,-12,-1,1
399661,691,-8282,304,0,-11,-1,1
399666,671,-8282,299,0,-10,-2,1
399671,653,-8281,292,0,-9,-2,1
399676,641,-8284,292,-1,-8,-2,1
399681,625,-8286,277,-1,-7,-2,1
399686,615,-8289,276,-1,-6,-2,1
399691,609,-8290,265,-1,-5,-2,1
399696,609,-8290,251,-1,-4,-2,1
399701,620,-8292,250,-1,-3,-2,1
399706,633,-8293,242,-1,-3,-2,1
399711,650,-8289,251,-1,-3,-2,1
399716,664,-8285,253,-1,-3,-2,1
399721,675,-8285,253,-1,-3,-2,1
399726,687,-8284,263,-1,-4,-2,1
399731,698,-8283,264,-1,-4,-2,1
399736,706,-8283,267,-1,-4,-2,1
399741,714,-8282,271,-1,-4,-2,1
399746,716,-8281,276,-1,-3,-2,1
399751,721,-8284,292,-1,-3,-2,1
399756,729,-8286,294,-1,-3,-2,1
399761,740,-8288,302,-1,-3,-2,1
399766,748,-8285,301,-1,-3,-2,1
399771,754,-8284,299,-1,-3,-2,1
399776,763,-8285,296,-1,-3,-2,1
399781,768,-8282,288,-1,-3,-2,1
399786,775,-8284,280,-1,-3,-2,1
399791,779,-8282,271,-1,-3,-2,1
399796,779,-8281,263,-1,-3,-2,1
399801,783,-8280,260,-1,-3,-2,1
399806,788,-8280,262,-1,-3,-2,1
399811,799,-8280,263,-1,-3,-2,1
399816,813,-8278,262,-1,-3,-2,1
399821,824,-8275,264,-1,-3,-2,1
399826,836,-8276,270,-1,-3,-2,1
399831,844,-8276,273,-1,-3,-2,1
399836,850,-8276,283,-1,-3,-2,1
399841,853,-8276,283,-1,-3,-2,1
399846,857,-8279,291,-1,-3,-2,1
399851,863,-8278,303,-1,-3,-2,1
399856,863,-8278,306,-1,-3,-2,1
399861,866,-8279,313,-1,-3,-2,1
399866,864,-8279,308,-1,-3,-2,1
399871,864,-8281,308,-1,-3,-2,1
399876,860,-8281,305,-1,-3,-2,1
399881,855,-8279,299,-1,-3,-2,1
399886,850,-8279,295,-1,-3,-2,1
399891,846,-8279,285,-1,-3,-2,1
399896,842,-8280,279,-1,-3,-2,1
399901,835,-8283,274,-1,-3,-2,1
399906,825,-8281,272,-1,-3,-2,1
399911,814,-8282,268,-1,-3,-2,1
399916,800,-8284,265,-1,-3,-2,1
399921,791,-8286,264,-1,-3,-2,1
399926,784,-8287,268,-1,-3,-2,1
399931,780,-8287,266,-1,-3,-2,1
399936,775,-8285,266,-1,-3,-2,1
399941,775,-8285,262,-1,-3,-2,1
399946,773,-8284,261,-1,-3,-2,1
399951,765,-8285,262,-1,-3,-2,1
399956,758,-8283,260,-1,-3,-2,1
399961,754,-8283,256,-1,-3,-2,1
399966,750,-8285,255,-1,-3,-2,1
399971,745,-8288,260,-1,-3,-2,1
399976,742,-8287,255,-1,-3,-2,1
399981,737,-8284,250,-1,-3,-2,1
399986,730,-8287,241,-1,-3,-2,1
399991,718,-8289,234,-1,-3,-2,1
399996,708,-8291,228,-1,-3,-2,1
400001,698,-8289,224,-1,-3,-2,1
400006,690,-8290,226,-1,-3,-2,1
400011,688,-8291,232,-1,-3,-2,1
400016,689,-8293,235,-1,-2,-2,1
400021,694,-8289,235,-1,-2,-2,1
400026,695,-8288,235,-1,-2,-2,1
400031,695,-8285,235,-1,-2,-2,1
400036,696,-8282,231,-1,-2,-2,1
400041,698,-8284,225,-1,-2,-2,1
400046,699,-8285,225,-1,-2,-2,1
400051,700,-8286,218,-1,-2,-2,1
400056,710,-8286,214,-1,-2,-2,1
400061,720,-8288,211,-1,-2,-2,1
400066,733,-8287,209,-1,-2,-2,1
400071,748,-8286,215,-1,-2,-2,1
400076,761,-8283,221,-1,-2,-2,1
400081,768,-8281,228,-1,-2,-2,1
400086,774,-8279,234,-1,-2,-2,1
400091,781,-8278,245,-1,-2,-2,1
400096,788,-8281,255,-1,-2,-2,1
400101,791,-8283,257,-1,-2,-2,1
400106,796,-8283,258,-1,-2,-2,1
400111,800,-8283,258,-1,-2,-2,1
400116,802,-8283,256,-1,-2,-2,1
400121,807,-8282,249,-1,-2,-2,1
400126,812,-8282,247,-1,-1,-2,1
400131,820,-8283,245,-1,-2,-2,1
400136,830,-8281,241,-1,-2,-2,1
400141,837,-8279,242,-1,-2,-2,1
400146,839,-8278,237,-1,-2,-2,1
400151,842,-8279,235,-1,-2,-2,1
400156,847,-8282,233,-1,-2,-2,1
400161,848,-8281,228,-1,-2,-2,1
400166,844,-8280,221,-1,-2,-2,1
400171,839,-8280,221,-1,-2,-2,1
400176,838,-8279,226,-1,-2,-2,1
400181,837,-8276,232,-1,-2,-2,1
400186,836,-8276,241,-1,-2,-2,1
400191,837,-8275,247,-1,-2,-2,1
400196,838,-8277,252,-1,-2,-2,1
400201,836,-8277,251,-1,-2,-2,1
400206,832,-8279,252,-1,-2,-2,1
400211,822,-8282,251,-1,-3,-2,1
400216,811,-8278,251,-1,-3,-2,1
400221,800,-8279,254,-1,-3,-2,1
400226,791,-8279,255,-1,-3,-2,1
400231,783,-8280,252,-1,-3,-2,1
400236,779,-8283,255,-1,-2,-2,1
400241,775,-8286,256,-1,-3,-2,1
400246,771,-8286,258,-1,-3,-2,1
400251,767,-8285,263,-1,-3,-2,1
400256,763,-8285,264,-1,-3,-2,1
400261,758,-8286,265,-1,-3,-2,1
400266,752,-8285,268,-1,-4,-2,1
400271,744,-8283,276,-1,-4,-2,1
400276,734,-8282,282,-1,-4,-2,1
400281,727,-8282,284,-1,-4,-2,1
400286,722,-8280,287,-1,-4,-2,1
400291,716,-8280,289,-1,-4,-2,1
400296,709,-8279,289,-1,-4,-2,1
400301,703,-8278,287,-1,-3,-2,1
400306,702,-8280,288,-1,-3,-2,1
400311,703,-8283,279,-1,-2,-2,1
400316,702,-8283,274,-1,-2,-2,1
400321,704,-8285,273,-1,-2,-2,1
400326,711,-8285,279,-1,-2,-2,1
400331,723,-8284,281,-1,-2,-2,1
400336,740,-8285,290,-1,-2,-2,1
400341,755,-8285,293,-1,-2,-2,1
400346,768,-8283,291,-1,-2,-2,1
400351,779,-8280,297,-1,-2,-2,1
400356,785,-8278,302,-1,-2,-2,1
400361,782,-8274,304,-1,-2,-2,1
400366,778,-8274,303,-1,-2,-2,1
400371,778,-8273,303,-1,-1,-2,1
400376,782,-8272,302,-1,-1,-2,1
400381,789,-8272,299,-2,-1,-2,1
400386,799,-8271,297,-2,-1,-2,1
400391,808,-8273,295,-2,-1,-2,1
400396,815,-8276,288,-2,-1,-2,1
400401,821,-8274,282,-2,-1,-2,1
400406,825,-8275,275,-2,-1,-2,1
400411,823,-8273,273,-2,-2,-2,1
400416,822,-8275,266,-2,-1,-2,1
400421,820,-8274,257,-2,-2,-2,1
400425,816,-8275,250,-2,-2,-2,1
400431,823,-8274,254,-2,-1,-2,1
400436,828,-8273,256,-2,-2,-2,1
400441,828,-8273,258,-2,-2,-2,1
400445,828,-8271,251,-2,-2,-2,1
400450,826,-8270,240,-1,-2,-2,1
400456,822,-8269,237,-1,-3,-2,1
400460,817,-8268,234,-1,-3,-2,1
400465,809,-8270,229,-1,-3,-2,1
400470,800,-8271,225,-1,-3,-2,1
400475,791,-8272,217,-1,-3,-2,1
400481,788,-8273,210,-1,-3,-2,1
400486,782,-8273,206,-1,-3,-2,1
400491,776,-8277,197,-1,-3,-2,1
400496,771,-8281,188,-1,-3,-2,1
400501,769,-8280,181,-1,-3,-2,1
400506,767,-8280,177,-1,-3,-2,1
400510,766,-8282,170,-1,-3,-2,1
400516,763,-8284,167,-1,-3,-2,1
400521,766,-8283,164,-1,-3,-2,1
400525,766,-8283,164,-1,-3,-2,1
400530,773,-8280,164,-1,-3,-2,1
400535,779,-8278,161,-1,-3,-2,1
400540,785,-8276,165,-1,-4,-2,1
400545,786,-8278,167,-1,-4,-2,1
400550,782,-8278,167,-1,-4,-2,1
400555,777,-8278,169,-1,-4,-2,1
400560,774,-8278,173,-1,-4,-2,1
400565,774,-8277,172,-1,-4,-2,1
400570,779,-8277,176,-1,-3,-2,1
400575,782,-8279,176,-1,-3,-2,1
400580,784,-8278,181,-1,-3,-2,1
400585,786,-8281,182,-1,-3,-2,1
400590,791,-8284,187,-1,-3,-2,1
400595,795,-8283,187,-1,-2,-2,1
400600,801,-8281,191,-1,-3,-2,1
400605,807,-8280,202,-1,-2,-2,1
400610,813,-8279,211,-1,-2,-2,1
400615,820,-8275,220,-1,-2,-2,1
400620,826,-8271,220,-1,-2,-2,1
400625,834,-8271,224,-1,-2,-2,1
400630,839,-8271,223,-1,-2,-2,1
400635,848,-8272,223,-1,-2,-2,1
400640,858,-8275,222,-1,-2,-2,1
400645,869,-8275,228,-1,-2,-2,1
400650,880,-8274,233,-1,-2,-2,1
400655,887,-8272,236,-1,-2,-2,1
400660,888,-8273,233,-1,-2,-2,1
400665,886,-8274,228,-1,-2,-2,1
400670,880,-8275,230,-1,-2,-2,1
400675,874,-8276,226,-1,-2,-2,1
400680,867,-8278,226,-1,-2,-2,1
400685,860,-8279,231,-1,-2,-2,1
400690,856,-8280,240,-1,-2,-2,1
400695,848,-8281,255,-1,-2,-2,1
400700,838,-8278,267,-1,-2,-2,1
400705,824,-8277,274,-1,-2,-2,1
400710,813,-8275,275,-1,-2,-2,1
400715,799,-8274,281,-1,-2,-2,1
400720,786,-8275,282,-1,-2,-2,1
400725,775,-8275,277,-1,-2,-2,1
400730,768,-8276,280,-1,-2,-2,1
400735,762,-8277,283,-1,-2,-2,1
400740,756,-8277,289,-1,-2,-2,1
400745,751,-8276,294,-1,-2,-2,1
400750,747,-8277,292,-1,-2,-2,1
400755,736,-8278,288,-1,-2,-2,1
400760,719,-8279,279,-1,-2,-2,1
400765,707,-8278,275,-1,-2,-2,1
400770,695,-8277,270,-1,-2,-2,1
400775,687,-8276,269,-1,-2,-2,1
400780,681,-8277,269,-1,-2,-2,1
400785,681,-8279,271,-1,-2,-2,1
400790,682,-8278,278,-1,-2,-2,1
400795,682,-8279,274,-1,-2,-2,1
400800,686,-8282,271,-1,-2,-2,1
400805,689,-8283,267,-1,-2,-2,1
400810,690,-8281,267,-1,-2,-2,1
400815,694,-8280,266,-1,-2,-2,1
400820,701,-8279,264,-1,-2,-2,1
400825,709,-8281,263,-1,-2,-2,1
400830,716,-8281,266,-1,-3,-2,1
400835,724,-8278,268,-1,-3,-2,1
400840,727,-8278,263,-1,-3,-2,1
400845,726,-8278,257,-1,-2,-2,1
400850,728,-8277,251,-1,-2,-2,1
400855,729,-8277,242,-1,-2,-2,1
400860,731,-8275,228,-1,-2,-2,1
400865,735,-8275,226,-2,-2,-2,1
400870,744,-8275,229,-1,-1,-2,1
400875,756,-8276,231,-1,-1,-2,1
400880,768,-8278,229,-1,-1,-2,1
400885,777,-8278,224,-1,-1,-2,1
400890,784,-8280,221,-1,-1,-2,1
400895,790,-8280,211,-1,-1,-2,1
400900,802,-8283,198,-1,-1,-2,1
400905,812,-8284,191,-1,-1,-2,1
400910,827,-8284,186,-1,-1,-2,1
400915,841,-8282,179,-1,-1,-2,1
400920,856,-8281,173,-1,-1,-2,1
400925,868,-8281,162,-1,-2,-2,1
400930,874,-8281,152,-1,-2,-2,1
400935,882,-8279,145,-1,-2,-2,1
400940,886,-8280,140,-1,-2,-2,1
400945,888,-8279,137,-1,-2,-2,1
400950,892,-8279,142,-1,-2,-2,1
400955,895,-8279,154,-1,-2,-2,1
400960,897,-8280,156,-1,-2,-2,1
400965,902,-8281,166,-1,-2,-2,1
400970,908,-8281,170,-1,-2,-2,1
400975,904,-8280,173,-1,-2,-2,1
400980,898,-8280,176,-1,-2,-2,1
400985,888,-8278,173,-1,-2,-2,1
400990,877,-8278,174,-1,-2,-2,1
400995,864,-8276,171,-1,-2,-2,1
401000,855,-8274,167,-1,-2,-2,1
401005,846,-8275,161,-1,-2,-2,1
401010,836,-8279,165,-1,-2,-2,1
401015,827,-8279,165,-1,-2,-2,1
401020,820,-8278,167,-1,-2,-2,1
401025,810,-8276,165,-1,-2,-2,1
401030,801,-8272,168,-1,-2,-2,1
401035,795,-8271,172,-1,-2,-2,1
401040,790,-8270,171,-1,-3,-2,1
401045,785,-8274,176,-1,-3,-2,1
401050,784,-8273,183,-1,-3,-2,1
401055,784,-8274,190,-1,-3,-2,1
401060,785,-8276,194,-1,-3,-2,1
401065,789,-8277,202,-1,-3,-2,1
401070,787,-8276,207,-1,-3,-2,1
401075,784,-8276,208,-1,-4,-2,1
401080,780,-8277,220,-1,-4,-2,1
401085,777,-8278,230,-1,-4,-2,1
401090,774,-8278,238,-1,-4,-2,1
401095,771,-8277,247,-1,-4,-2,1
401100,763,-8278,248,-1,-4,-2,1
401105,758,-8278,253,-1,-4,-2,1
401110,755,-8279,259,-1,-4,-2,1
401115,752,-8277,257,-1,-4,-2,1
401120,742,-8279,251,-1,-4,-2,1
401125,734,-8280,244,-1,-4,-2,1
401130,722,-8279,239,-1,-3,-2,1
401135,712,-8282,231,-1,-3,-2,1
401140,701,-8283,220,-1,-3,-2,1
401145,693,-8283,213,-1,-3,-2,1
401150,691,-8280,205,-1,-2,-2,1
401155,691,-8278,206,-1,-2,-2,1
401160,697,-8279,205,-1,-2,-2,1
401165,709,-8281,208,-1,-2,-2,1
401170,725,-8281,213,-1,-2,-2,1
401175,741,-8282,213,-1,-3,-2,1
401180,757,-8281,222,-1,-3,-2,1
401185,772,-8276,231,-1,-3,-2,1
401190,784,-8277,245,-1,-4,-2,1
401195,794,-8279,257,-1,-4,-2,1
401200,797,-8280,261,-1,-4,-2,1
401205,796,-8281,271,-1,-4,-2,1
401210,791,-8281,277,-1,-4,-2,1
401215,778,-8281,268,-1,-4,-2,1
401220,763,-8281,260,-1,-4,-2,1
401225,754,-8283,252,-1,-3,-2,1
401230,747,-8282,248,-1,-2,-2,1
401235,747,-8284,240,-1,-2,-2,1
401240,751,-8284,240,-1,-2,-2,1
401245,757,-8280,243,-1,-2,-2,1
401250,771,-8278,248,-1,-2,-2,1
401255,782,-8275,244,-1,-2,-2,1
401260,789,-8274,238,-1,-2,-2,1
401265,794,-8275,232,-1,-2,-2,1
401270,795,-8274,227,-1,-3,-2,1
401275,796,-8272,223,-1,-3,-2,1
401280,799,-8271,223,-1,-3,-2,1
401285,803,-8272,226,-1,-3,-2,1
401290,810,-8272,236,-1,-3,-2,1
401295,815,-8272,252,-1,-3,-2,1
401300,818,-8272,262,-1,-3,-2,1
401305,819,-8271,272,-1,-3,-2,1
401310,814,-8271,272,-1,-4,-2,1
401315,807,-8274,278,-1,-4,-2,1
401320,799,-8276,275,-1,-4,-2,1
401325,792,-8276,274,-1,-4,-2,1
401330,788,-8277,279,-1,-3,-2,1
401335,787,-8275,282,-1,-3,-2,1
401340,788,-8274,280,-1,-3,-2,1
401345,789,-8272,280,-1,-3,-2,1
401350,791,-8271,281,-1,-3,-2,1
401355,790,-8271,276,-1,-3,-2,1
401360,786,-8271,268,-1,-3,-2,1
401365,783,-8273,262,-1,-3,-2,1
401370,779,-8275,264,-1,-3,-2,1
401375,776,-8275,264,-1,-3,-2,1
401380,773,-8276,267,-1,-3,-2,1
401385,767,-8274,271,-1,-3,-2,1
401390,762,-8276,280,-1,-3,-2,1
401395,759,-8276,291,-1,-3,-2,1
401400,757,-8275,296,-1,-3,-2,1
401405,756,-8276,299,-1,-3,-2,1
401410,759,-8275,300,-1,-3,-2,1
401415,760,-8277,294,-1,-3,-2,1
401420,763,-8280,280,-1,-3,-2,1
401425,768,-8283,274,-1,-3,-2,1
401430,772,-8283,272,-1,-3,-2,1
401435,774,-8282,273,-1,-3,-2,1
401440,774,-8279,271,-1,-3,-2,1
401445,771,-8278,270,-1,-3,-2,1
401450,763,-8277,263,-1,-3,-2,1
401455,755,-8281,255,-1,-3,-2,1
401460,749,-8281,250,-1,-2,-2,1
401465,744,-8281,248,-1,-2,-2,1
401470,743,-8281,247,-1,-2,-2,1
401475,746,-8282,250,-1,-2,-2,1
401480,753,-8282,258,-1,-2,-2,1
401485,759,-8283,258,-1,-2,-2,1
401490,765,-8280,251,-1,-2,-2,1
401495,768,-8278,242,-1,-3,-2,1
401500,770,-8278,235,-1,-3,-2,1
401505,767,-8279,228,-1,-3,-2,1
401510,767,-8279,220,-1,-3,-2,1
401515,765,-8275,213,-1,-3,-2,1
401520,765,-8275,211,-1,-3,-2,1
401525,767,-8274,211,-1,-2,-2,1
401530,772,-8275,212,-1,-2,-2,1
401535,772,-8276,212,-1,-2,-2,1
401540,771,-8276,220,-1,-2,-2,1
401545,772,-8277,221,-1,-3,-2,1
401550,775,-8277,225,-1,-3,-2,1
401555,776,-8275,229,-1,-3,-2,1
401560,773,-8273,236,-1,-3,-2,1
401565,773,-8273,244,-1,-3,-2,1
401570,769,-8273,253,-1,-3,-2,1
401575,762,-8275,256,-1,-3,-2,1
401580,760,-8278,253,-1,-3,-2,1
401585,755,-8280,246,-1,-3,-2,1
401590,757,-8280,240,-1,-3,-2,1
401595,761,-8278,239,-1,-2,-2,1
401600,767,-8276,240,-1,-2,-2,1
401605,774,-8277,241,-1,-3,-2,1
401610,780,-8276,244,-1,-3,-2,1
401615,782,-8273,245,-1,-3,-2,1
401620,780,-8274,245,-1,-3,-2,1
401625,775,-8275,243,-1,-3,-2,1
401630,771,-8274,240,-1,-3,-2,1
401634,772,-8273,238,-1,-3,-2,1
401640,769,-8271,235,-1,-3,-2,1
401645,769,-8267,234,-1,-3,-2,1
401650,768,-8269,238,-1,-3,-2,1
401655,770,-8270,242,-1,-2,-2,1
401659,773,-8273,246,-1,-2,-2,1
401665,777,-8275,249,-1,-2,-2,1
401670,781,-8276,246,-1,-3,-2,1
401674,783,-8277,245,-1,-3,-2,1
401680,785,-8278,244,-1,-3,-2,1
401685,787,-8276,241,-1,-3,-2,1
401689,787,-8275,245,-1,-3,-2,1
401694,786,-8276,246,-1,-3,-2,1
401700,790,-8275,249,-1,-3,-2,1
401704,792,-8276,247,-1,-3,-2,1
401710,790,-8276,241,-1,-3,-2,1
401714,788,-8277,241,-1,-3,-2,1
401720,785,-8280,236,-1,-3,-2,1
401724,779,-8284,232,-1,-3,-2,1
401729,778,-8285,228,-1,-3,-2,1
401734,776,-8286,220,-1,-3,-2,1
401739,778,-8285,218,-1,-3,-2,1
401744,778,-8282,217,-1,-3,-2,1
401749,775,-8283,220,-1,-3,-2,1
401754,772,-8286,218,-1,-3,-2,1
401759,769,-8283,214,-1,-3,-2,1
401764,762,-8283,208,-1,-3,-2,1
401769,758,-8283,205,-1,-3,-2,1
401775,757,-8282,204,-1,-2,-2,1
401780,758,-8278,199,-1,-2,-2,1
401784,761,-8278,196,-1,-2,-2,1
401789,763,-8280,194,-1,-2,-2,1
401794,766,-8283,199,-1,-2,-2,1
401799,765,-8286,203,-1,-2,-2,1
401804,766,-8284,204,-1,-2,-2,1
401809,767,-8282,204,-1,-2,-2,1
401814,770,-8283,206,-1,-2,-2,1
401819,771,-8282,208,-1,-2,-2,1
401824,773,-8277,213,-1,-2,-2,1
401829,773,-8274,218,-1,-2,-2,1
401834,774,-8275,220,-1,-2,-2,1
401839,776,-8281,221,-1,-2,-2,1
401844,778,-8285,222,-1,-2,-2,1
401849,780,-8285,225,-1,-2,-2,1
401854,781,-8285,227,-1,-2,-2,1
401859,779,-8286,230,-1,-2,-2,1
401864,778,-8288,232,-1,-2,-2,1
401869,775,-8286,232,-1,-2,-2,1
401874,772,-8288,230,-1,-2,-2,1
401879,768,-8289,222,-1,-2,-2,1
401884,766,-8288,215,-1,-2,-2,1
401889,764,-8286,206,-1,-2,-2,1
401894,766,-8285,199,-1,-2,-2,1
401899,768,-8284,193,-1,-2,-2,1
401904,769,-8284,185,-1,-2,-2,1
401909,771,-8285,180,-1,-2,-2,1
401914,774,-8284,177,-1,-2,-2,1
401919,776,-8281,171,-1,-2,-2,1
401924,778,-8281,171,-1,-2,-2,1
401929,776,-8280,172,-1,-2,-2,1
401934,781,-8282,179,-1,-2,-2,1
401939,790,-8282,188,-1,-3,-2,1
401944,795,-8280,202,-1,-3,-2,1
401949,794,-8280,212,-1,-3,-2,1
401954,791,-8281,217,-1,-2,-2,1
401959,786,-8280,220,-1,-2,-2,1
401964,780,-8279,224,-1,-2,-2,1
401969,778,-8281,227,-1,-2,-2,1
401974,776,-8280,229,-1,-2,-2,1
401979,777,-8279,229,-1,-2,-2,1
401984,780,-8279,236,-1,-1,-2,1
401989,785,-8281,237,-1,-1,-2,1
401994,789,-8282,236,-1,-2,-2,1
401999,790,-8283,233,-1,-2,-2,1
402004,789,-8280,229,-1,-2,-2,1
402009,788,-8279,226,-1,-2,-2,1
402014,789,-8277,221,-1,-2,-2,1
402019,791,-8275,217,-1,-2,-2,1
402024,793,-8276,213,-1,-2,-2,1
402029,792,-8278,215,-1,-2,-2,1
402034,791,-8278,217,-1,-2,-2,1
402039,789,-8279,215,-1,-3,-2,1
402044,785,-8278,213,-1,-3,-2,1
402049,783,-8276,210,-1,-3,-2,1
402054,784,-8276,203,-1,-2,-2,1
402059,789,-8277,197,-1,-2,-2,1
402064,793,-8275,196,-1,-2,-2,1
402069,793,-8275,188,-1,-2,-2,1
402074,786,-8274,178,-1,-2,-2,1
402079,777,-8273,168,-1,-1,-2,1
402084,758,-8274,153,-1,-1,-2,1
402089,739,-8278,142,-1,0,-2,1
402094,729,-8278,132,-1,0,-2,1
402099,731,-8276,126,-1,0,-2,1
402104,741,-8274,124,-1,0,-2,1
402109,754,-8272,128,-1,0,-2,1
402114,766,-8270,132,-1,0,-2,1
402119,783,-8267,139,-1,0,-2,1
402124,798,-8265,144,-1,0,-2,1
402129,810,-8265,143,-1,-1,-2,1
402134,821,-8268,140,-1,-2,-2,1
402139,832,-8269,131,-1,-3,-2,1
402144,848,-8271,126,0,-3,-2,1
402149,861,-8272,125,0,-4,-2,1
402154,867,-8273,124,0,-4,-2,1
402159,867,-8272,118,0,-5,-2,1
402164,853,-8271,106,0,-5,-2,1
402169,837,-8274,90,0,-5,-2,1
402174,820,-8280,72,0,-5,-2,1
402179,801,-8282,48,0,-5,-2,1
402184,782,-8281,31,0,-5,-2,1
402189,765,-8280,23,0,-5,-2,1
402194,739,-8278,27,0,-4,-2,1
402199,706,-8276,38,0,-2,-2,1
402204,664,-8276,56,0,-1,-2,1
402209,603,-8280,92,0,1,-2,1
402214,498,-8282,158,0,4,-2,1
402219,290,-8291,287,0,11,-3,1
402224,-91,-8298,508,-1,29,-3,1
402229,-774,-8314,836,-2,64,-4,1
402234,-1767,-8342,1294,-4,127,-6,1
402239,-3000,-8384,1958,-8,220,-7,1
402244,-4410,-8440,2846,-12,341,-9,1
402249,-5712,-8498,3965,-18,485,-9,1
402254,-6599,-8546,5334,-25,639,-9,1
402259,-6820,-8559,6912,-32,785,-8,1
402264,-6295,-8522,8264,-39,907,-6,1
402269,-5219,-8447,9424,-45,988,-7,1
402274,-4077,-8389,10417,-49,996,-9,1
402279,-1616,-8301,11269,-49,923,-11,1
402284,954,-8208,12000,-47,842,2,1
402289,3157,-8094,11965,-40,731,4,1
402294,5046,-7956,11618,-31,598,3,1
402299,6665,-7798,9882,-22,488,2,1
402304,8053,-7755,7397,-12,365,0,1
402309,8409,-7711,4181,-7,284,-1,1
402314,8661,-7749,1244,-5,235,-3,1
402319,8038,-7878,-1273,-4,234,-2,1
402324,7579,-7997,-3425,-7,234,-3,1
402329,7248,-8085,-4793,-8,230,-3,1
402334,6947,-8116,-5589,-11,200,-3,1
402339,6351,-8121,-4959,-10,157,-4,1
402344,5645,-8103,-4144,-7,109,-4,1
402349,4901,-8086,-3233,-2,79,-3,1
402354,4304,-8084,-2223,3,63,-2,1
402359,3876,-8097,-1417,6,55,-2,1
402364,3571,-8125,-856,7,43,-2,1
402369,3306,-8161,-455,6,32,-3,1
402374,3059,-8193,-232,4,23,-4,1
402379,2725,-8212,-54,1,17,-4,1
402384,2385,-8224,234,-1,13,-4,1
402389,2128,-8229,522,-2,11,-3,1
402394,2009,-8225,761,-2,8,-1,1
402399,2037,-8218,956,0,4,0,1
402404,2165,-8211,982,1,-2,1,1
402409,2377,-8214,856,1,-5,0,1
402414,2524,-8225,688,0,-8,-1,1
402419,2552,-8241,512,-1,-12,-2,1
402424,2422,-8251,436,-1,-15,-2,1
402429,2207,-8255,442,-2,-18,-1,1
402434,2031,-8258,458,-1,-19,1,1
402439,1911,-8255,519,-1,-18,2,1
402444,1848,-8248,566,0,-17,3,1
402449,1815,-8244,571,0,-16,4,1
402454,1806,-8246,504,0,-15,3,1
402459,1757,-8248,372,0,-13,2,1
402464,1607,-8254,275,0,-12,2,1
402469,1398,-8259,200,-1,-13,2,1
402474,1128,-8262,170,-1,-13,2,1
402479,897,-8268,160,0,-14,2,1
402484,718,-8271,156,0,-14,3,1
402489,609,-8273,150,0,-15,3,1
402494,568,-8275,123,0,-15,3,1
402499,551,-8275,67,0,-16,2,1
402504,520,-8276,18,0,-16,1,1
402509,453,-8280,-9,0,-17,0,1
402514,347,-8281,-11,0,-17,0,1
402519,248,-8283,2,1,-18,0,1
402524,180,-8286,30,1,-17,1,1
402529,156,-8289,76,1,-16,1,1
402534,185,-8291,108,1,-14,1,1
402539,241,-8291,140,1,-13,1,1
402544,304,-8289,178,1,-11,0,1
402549,338,-8288,214,1,-10,0,1
402554,332,-8287,275,0,-10,0,1
402559,314,-8286,333,0,-10,0,1
402564,292,-8288,395,1,-10,0,1
402569,281,-8289,451,1,-9,0,1
402574,297,-8291,494,0,-9,0,1
402579,330,-8291,541,0,-8,0,1
402584,360,-8290,596,0,-8,0,1
402589,382,-8288,658,-1,-7,0,1
402594,377,-8286,725,-1,-6,0,1
402599,346,-8286,784,-1,-6,-1,1
402604,313,-8285,823,-1,-5,-1,1
402609,292,-8289,828,-1,-5,-1,1
402614,286,-8291,796,-1,-4,0,1
402619,311,-8293,738,-2,-3,-1,1
402624,351,-8293,671,-2,-2,-1,1
402629,385,-8292,607,-2,-3,-1,1
402634,420,-8289,564,-2,-3,-1,1
402639,442,-8286,526,-2,-3,-1,1
402644,460,-8285,488,-2,-4,-1,1
402649,482,-8287,446,-2,-5,-1,1
402654,506,-8289,391,-1,-5,-1,1
402659,522,-8286,325,-1,-5,-1,1
402664,547,-8287,273,-1,-4,-1,1
402669,578,-8287,242,-2,-3,-1,1
402674,599,-8288,226,-2,-3,-1,1
402679,618,-8286,216,-1,-3,-1,1
402684,621,-8285,209,-1,-3,-1,1
402689,617,-8285,209,-1,-4,-1,1
402694,615,-8284,203,-1,-5,-1,1
402699,602,-8287,190,-1,-5,-1,1
402704,588,-8288,184,-1,-6,-1,1
402709,573,-8288,174,-1,-6,-1,1
402714,547,-8285,167,-1,-6,-1,1
402719,521,-8282,168,-1,-6,-1,1
402724,503,-8279,167,-1,-6,-1,1
402729,481,-8280,171,-1,-6,-1,1
402734,455,-8283,177,-1,-6,-1,1
402739,431,-8281,181,-1,-6,-1,1
402744,408,-8283,200,-1,-5,-1,1
402749,389,-8286,222,-1,-4,-1,1
402754,374,-8288,238,-1,-3,-1,1
402759,362,-8291,255,-1,-3,-1,1
402764,361,-8294,271,-1,-4,-1,1
402769,372,-8294,291,-1,-4,-1,1
402774,381,-8297,304,-1,-4,-2,1
402779,385,-8295,309,-1,-4,-2,1
402784,389,-8292,316,-1,-4,-2,1
402789,390,-8293,319,-1,-4,-2,1
402794,383,-8293,328,-1,-4,-2,1
402799,377,-8293,334,-1,-5,-2,1
402804,368,-8293,331,-1,-5,-2,1
402809,371,-8293,327,-1,-5,-2,1
402813,376,-8294,313,-1,-4,-2,1
402819,381,-8296,311,-1,-4,-2,1
402824,390,-8292,305,-1,-4,-2,1
402829,394,-8289,305,-1,-3,-2,1
402833,395,-8286,305,-1,-3,-3,1
402839,399,-8285,306,-1,-3,-2,1
402843,402,-8285,308,-1,-2,-2,1
402849,405,-8286,306,-1,-2,-2,1
402854,418,-8287,299,-1,-1,-2,1
402859,426,-8286,291,-1,-1,-3,1
402864,437,-8286,278,-1,-1,-3,1
402868,453,-8286,264,-1,-1,-3,1
402874,462,-8287,246,-1,-1,-3,1
402879,470,-8283,228,-1,-1,-3,1
402884,485,-8286,209,-1,-1,-3,1
402888,498,-8288,185,-1,-2,-3,1
402893,512,-8289,165,-1,-2,-3,1
402898,528,-8285,153,-1,-2,-3,1
402903,539,-8283,147,-1,-2,-3,1
402908,547,-8281,153,-1,-3,-3,1
402913,547,-8278,171,-1,-3,-3,1
402919,541,-8281,197,-1,-2,-3,1
402923,536,-8282,229,-1,-2,-3,1
402929,532,-8283,260,-1,-1,-3,1
402933,534,-8285,283,-1,-1,-3,1
402938,547,-8287,297,-1,-1,-3,1
402943,559,-8285,301,-1,0,-3,1
402948,574,-8288,302,-1,0,-3,1
402953,595,-8288,297,-1,0,-3,1
402958,615,-8287,296,-1,0,-3,1
402964,630,-8288,300,-1,-1,-3,1
402968,644,-8288,302,-1,-1,-3,1
402973,655,-8287,311,-1,-1,-3,1
402978,665,-8290,316,-1,-1,-3,1
402983,675,-8290,328,-1,-1,-2,1
402988,684,-8290,340,-1,-2,-2,1
402993,688,-8287,346,-1,-2,-3,1
402998,689,-8284,356,-1,-2,-2,1
403003,689,-8286,359,-1,-2,-2,1
403008,690,-8286,370,-1,-2,-2,1
403013,692,-8287,374,-1,-2,-2,1
403018,699,-8285,371,-1,-1,-2,1
403023,709,-8285,366,-1,-1,-2,1
403028,726,-8287,351,-1,-1,-2,1
403033,738,-8289,335,-1,-1,-2,1
403038,749,-8289,319,-1,-2,-2,1
403043,757,-8289,313,-1,-2,-2,1
403048,761,-8288,311,-1,-2,-2,1
403053,759,-8287,312,-1,-2,-2,1
403058,754,-8286,311,-1,-3,-2,1
403063,747,-8286,316,-1,-3,-2,1
403068,741,-8288,319,-1,-3,-2,1
403073,739,-8290,326,-1,-3,-2,1
403078,740,-8290,329,-1,-3,-2,1
403083,741,-8291,325,-1,-3,-2,1
403088,744,-8292,328,-1,-2,-2,1
403093,744,-8294,334,-1,-2,-1,1
403098,745,-8294,338,-1,-2,-1,1
403103,745,-8292,334,-1,-2,-2,1
403108,748,-8291,323,-1,-2,-1,1
403113,753,-8289,310,-1,-2,-1,1
403118,757,-8288,293,-1,-2,-1,1
403123,761,-8290,282,-1,-2,-1,1
403128,762,-8288,276,-1,-2,-1,1
403133,753,-8287,264,-1,-2,-1,1
403138,742,-8284,261,-1,-2,-1,1
403143,727,-8286,258,-1,-2,-1,1
403148,704,-8290,261,-1,-3,-1,1
403153,682,-8292,266,-1,-2,-1,1
403158,662,-8291,273,-1,-2,-1,1
403163,640,-8292,284,-1,-2,-1,1
403168,617,-8292,294,-1,-2,-1,1
403173,601,-8292,301,-1,-2,-1,1
403178,587,-8290,309,-1,-2,-1,1
403183,576,-8288,305,-1,-2,-1,1
403188,574,-8285,299,-1,-1,-1,1
403193,570,-8285,283,-1,-1,-1,1
403198,562,-8287,273,-1,-1,-1,1
403203,554,-8291,266,-1,-1,-1,1
403208,544,-8295,259,-1,-1,-1,1
403213,536,-8292,250,-1,-1,-1,1
403218,529,-8288,246,-1,-1,-1,1
403223,521,-8287,242,-1,-1,-1,1
403228,516,-8288,230,-1,-1,-1,1
403233,513,-8286,216,-1,-2,-2,1
403238,512,-8288,202,-1,-2,-2,1
403243,510,-8290,188,-1,-2,-2,1
403248,508,-8291,178,-1,-2,-2,1
403253,498,-8289,174,-1,-2,-2,1
403258,492,-8289,181,-1,-2,-2,1
403263,490,-8288,194,-1,-2,-2,1
403268,493,-8287,202,-1,-2,-2,1
403273,505,-8289,210,-1,-2,-2,1
403278,524,-8287,215,-1,-2,-2,1
403283,537,-8285,217,-1,-2,-2,1
403288,548,-8284,222,-1,-2,-2,1
403293,547,-8282,235,-1,-2,-2,1
403298,540,-8284,251,-1,-2,-2,1
403303,532,-8284,269,-1,-2,-2,1
403308,523,-8283,280,-1,-2,-2,1
403313,516,-8284,285,-1,-2,-2,1
403318,512,-8281,287,-1,-2,-2,1
403323,515,-8280,289,-1,-2,-2,1
403328,518,-8279,288,-1,-2,-2,1
403333,522,-8280,290,-1,-2,-2,1
403338,521,-8280,296,-1,-2,-2,1
403343,521,-8283,307,-1,-1,-2,1
403348,524,-8280,315,-1,-1,-2,1
403353,530,-8279,321,-1,-1,-2,1
403358,540,-8278,323,-1,-1,-2,1
403363,551,-8279,318,-1,-1,-2,1
403368,559,-8282,311,-1,-1,-2,1
403373,558,-8282,307,-1,-1,-2,1
403378,554,-8283,303,-1,-1,-2,1
403383,542,-8284,300,-1,-1,-2,1
403388,533,-8285,303,-1,-1,-2,1
403393,528,-8287,304,-1,-1,-2,1
403398,526,-8286,308,-1,-1,-2,1
403403,527,-8286,311,-1,-1,-2,1
403408,533,-8288,319,-1,-1,-2,1
403413,542,-8287,318,-1,-2,-2,1
403418,551,-8285,324,-1,-2,-2,1
403423,560,-8283,325,-1,-2,-2,1
403428,569,-8285,323,-1,-2,-2,1
403433,579,-8288,323,-1,-2,-2,1
403438,590,-8290,316,-1,-2,-2,1
403443,602,-8289,305,-1,-2,-2,1
403448,616,-8289,293,-1,-2,-2,1
403453,623,-8289,281,-1,-2,-2,1
403458,618,-8294,276,-1,-2,-2,1
403463,609,-8295,281,-1,-2,-2,1
403468,596,-8294,294,-1,-2,-2,1
403473,582,-8294,311,-1,-2,-2,1
403478,571,-8293,326,-1,-1,-2,1
403483,566,-8296,331,-1,-1,-2,1
403488,565,-8297,327,-1,-1,-2,1
403493,568,-8296,321,-1,-1,-2,1
403498,576,-8296,305,-1,-2,-2,1
403503,580,-8296,297,-1,-2,-2,1
403508,580,-8292,291,-1,-2,-2,1
403513,580,-8292,296,-1,-2,-2,1
403518,577,-8290,303,-1,-2,-2,1
403523,575,-8288,308,-1,-2,-2,1
403528,576,-8288,307,-1,-2,-2,1
403533,580,-8288,306,-1,-1,-2,1
403538,591,-8291,296,-1,-1,-2,1
403543,599,-8292,290,-1,-2,-2,1
403548,603,-8287,285,-1,-2,-2,1
403553,603,-8284,281,-1,-2,-2,1
403558,593,-8286,280,-1,-2,-2,1
403563,583,-8289,281,-1,-1,-2,1
403568,571,-8286,284,-1,-1,-2,1
403573,559,-8287,288,-1,-1,-2,1
403578,556,-8289,296,-1,-1,-2,1
403583,556,-8290,300,-1,-1,-2,1
403588,554,-8290,296,-1,-1,-2,1
403593,555,-8286,293,-1,0,-2,1
403598,558,-8285,291,-1,-1,-2,1
403603,561,-8287,288,-1,-1,-2,1
403608,561,-8288,274,-1,-1,-2,1
403613,564,-8286,256,-1,-1,-2,1
403618,571,-8283,234,-1,-2,-2,1
403623,577,-8287,216,-1,-2,-2,1
403628,581,-8288,208,-1,-2,-2,1
403633,579,-8292,205,-1,-2,-2,1
403638,571,-8294,208,-1,-2,-2,1
403643,557,-8295,222,-1,-2,-2,1
403648,540,-8297,234,-1,-2,-2,1
403653,532,-8299,251,-1,-2,-2,1
403658,530,-8299,264,-1,-2,-2,1
403663,534,-8299,270,-1,-1,-2,1
403668,541,-8299,274,-1,-1,-2,1
403673,548,-8295,283,-1,-1,-2,1
403678,546,-8297,295,-1,-1,-2,1
403683,544,-8293,310,-1,-1,-2,1
403688,541,-8290,323,-1,-1,-2,1
403693,538,-8287,335,-1,-1,-2,1
403698,538,-8286,346,-1,-1,-2,1
403703,541,-8286,351,-1,-1,-2,1
403708,554,-8285,351,-1,-1,-2,1
403713,566,-8286,347,-1,-1,-2,1
403718,576,-8288,335,-1,-2,-2,1
403723,579,-8286,325,-1,-2,-2,1
403728,581,-8284,320,-1,-1,-2,1
403733,582,-8289,315,-1,-1,-2,1
403738,587,-8291,312,-1,-2,-2,1
403743,597,-8293,305,-1,-2,-2,1
403748,612,-8290,296,-1,-2,-2,1
403753,625,-8286,289,-1,-2,-2,1
403758,636,-8285,279,-1,-2,-2,1
403763,642,-8284,272,-1,-3,-2,1
403768,643,-8285,271,-1,-3,-2,1
403773,636,-8286,284,-1,-3,-2,1
403778,626,-8285,298,-1,-3,-2,1
403783,619,-8281,305,-1,-3,-2,1
403788,616,-8279,314,-1,-3,-2,1
403793,621,-8279,316,-1,-3,-2,1
403798,626,-8279,321,-1,-3,-2,1
403803,633,-8279,320,-1,-3,-2,1
403808,634,-8280,315,-1,-3,-2,1
403813,635,-8283,313,-1,-3,-2,1
403818,627,-8283,314,-1,-3,-2,1
403823,622,-8285,315,-1,-2,-2,1
403828,619,-8287,314,-1,-2,-2,1
403833,614,-8286,310,-1,-2,-2,1
403838,610,-8288,310,-1,-2,-2,1
403843,607,-8292,305,-1,-2,-2,1
403848,605,-8293,297,-1,-2,-2,1
403853,600,-8291,287,-1,-3,-2,1
403858,594,-8290,275,-1,-3,-2,1
403863,593,-8291,267,-1,-3,-2,1
403868,588,-8291,265,-1,-3,-2,1
403873,583,-8290,262,-1,-3,-2,1
403878,578,-8288,260,-1,-3,-2,1
403883,574,-8287,268,-1,-3,-2,1
403888,569,-8288,284,-1,-3,-2,1
403893,562,-8289,294,-1,-3,-2,1
403898,558,-8290,302,-1,-2,-2,1
403903,559,-8292,301,-1,-2,-2,1
403908,563,-8291,293,-1,-2,-2,1
403913,570,-8289,283,-1,-2,-2,1
403918,581,-8287,274,-1,-2,-2,1
403923,587,-8286,271,-1,-2,-2,1
403928,590,-8285,275,-1,-3,-2,1
403933,588,-8286,284,-1,-3,-2,1
403938,584,-8288,292,-1,-3,-2,1
403943,580,-8288,298,-1,-3,-2,1
403948,577,-8285,300,-1,-3,-2,1
403953,574,-8285,293,-1,-4,-2,1
403958,575,-8283,285,-1,-4,-2,1
403963,578,-8283,281,-1,-4,-2,1
403968,578,-8284,283,-1,-4,-2,1
403973,573,-8282,291,-1,-4,-2,1
403978,564,-8281,302,-1,-3,-2,1
403983,562,-8283,307,-1,-3,-2,1
403988,564,-8282,309,-1,-3,-2,1
403993,569,-8282,312,-1,-3,-2,1
403998,578,-8285,310,-1,-2,-2,1
404003,590,-8287,304,-1,-2,-2,1
404007,595,-8288,300,-1,-2,-2,1
404013,590,-8289,299,-1,-2,-2,1
404018,582,-8291,299,-1,-3,-2,1
404022,571,-8292,295,-1,-3,-2,1
404028,565,-8295,295,-1,-3,-2,1
404033,566,-8296,294,-1,-3,-2,1
404038,569,-8295,288,-1,-3,-2,1
404043,574,-8296,282,-1,-3,-2,1
404048,574,-8294,279,-1,-3,-2,1
404053,571,-8290,279,-1,-3,-2,1
404057,566,-8289,277,-1,-3,-2,1
404063,563,-8288,277,-1,-3,-2,1
404068,562,-8288,277,-1,-3,-2,1
404073,566,-8288,268,-1,-4,-2,1
404077,575,-8285,250,-1,-4,-2,1
404083,586,-8284,238,-1,-4,-2,1
404087,592,-8283,229,-1,-4,-2,1
404092,589,-8284,226,-1,-4,-2,1
404097,575,-8282,235,-1,-3,-2,1
404103,555,-8280,250,-1,-3,-2,1
404107,535,-8280,265,-1,-3,-2,1
404112,523,-8279,273,-1,-2,-2,1
404117,514,-8279,285,-1,-2,-2,1
404122,514,-8283,286,-1,-2,-2,1
404128,521,-8282,288,-1,-2,-2,1
404132,528,-8284,288,-1,-2,-2,1
404137,532,-8286,287,-1,-2,-2,1
404142,530,-8288,285,-1,-2,-2,1
404148,523,-8288,282,-1,-2,-2,1
404152,522,-8289,278,-1,-2,-2,1
404157,521,-8290,272,-1,-2,-2,1
404162,525,-8289,268,-1,-2,-2,1
404167,526,-8287,262,-1,-2,-2,1
404172,527,-8286,260,-1,-2,-2,1
404177,526,-8288,268,-1,-2,-2,1
404182,523,-8285,279,-1,-2,-2,1
404187,518,-8285,289,-1,-2,-2,1
404192,518,-8285,298,-1,-2,-2,1
404197,519,-8282,306,-1,-2,-2,1
404202,520,-8282,309,-1,-2,-2,1
404207,528,-8284,309,-1,-1,-2,1
404212,529,-8284,311,-1,-1,-2,1
404217,532,-8284,311,-1,-1,-2,1
404222,538,-8284,306,-1,-1,-2,1
404227,542,-8285,299,-1,-2,-2,1
404232,545,-8288,287,-1,-2,-2,1
404237,557,-8289,273,-1,-2,-2,1
404242,561,-8288,270,-1,-2,-2,1
404247,562,-8289,267,-1,-2,-2,1
404252,557,-8288,272,-1,-2,-2,1
404257,552,-8289,282,-1,-2,-2,1
404262,546,-8286,289,-1,-2,-2,1
404267,538,-8286,297,-1,-2,-2,1
404272,533,-8287,301,-1,-2,-2,1
404277,534,-8288,303,-1,-2,-2,1
404282,538,-8286,300,-1,-2,-2,1
404287,542,-8287,294,-1,-2,-2,1
404292,549,-8286,288,-1,-2,-2,1
404297,554,-8287,276,-1,-2,-2,1
404302,553,-8287,268,-1,-2,-2,1
404307,551,-8286,264,-1,-2,-2,1
404312,550,-8288,265,-1,-2,-2,1
404317,548,-8289,264,-1,-2,-2,1
404322,549,-8289,268,-1,-2,-2,1
404327,554,-8291,266,-1,-2,-2,1
404332,561,-8292,267,-1,-2,-2,1
404337,569,-8291,274,-1,-2,-2,1
404342,575,-8290,280,-1,-2,-2,1
404347,578,-8290,280,-1,-2,-2,1
404352,576,-8290,282,-1,-2,-2,1
404357,573,-8288,289,-1,-2,-2,1
404362,572,-8285,300,-1,-2,-2,1
404367,572,-8284,309,-1,-2,-2,1
404372,574,-8284,317,-1,-2,-2,1
404377,577,-8285,322,-1,-2,-2,1
404382,584,-8286,320,-1,-2,-2,1
404387,588,-8285,312,-1,-2,-2,1
404392,592,-8287,301,-1,-2,-2,1
404397,597,-8287,298,-1,-2,-2,1
404402,601,-8285,297,-1,-2,-2,1
404407,600,-8285,293,-1,-2,-2,1
404412,601,-8288,292,-1,-2,-2,1
404417,601,-8290,289,-1,-2,-2,1
404422,600,-8289,289,-1,-2,-2,1
404427,598,-8288,282,-1,-2,-2,1
404432,595,-8287,275,-1,-2,-2,1
404437,593,-8285,274,-1,-2,-2,1
404442,584,-8285,273,-1,-2,-2,1
404447,579,-8285,277,-1,-2,-2,1
404452,576,-8287,281,-1,-2,-2,1
404457,572,-8286,281,-1,-2,-2,1
404462,573,-8287,285,-1,-2,-2,1
404467,578,-8289,284,-1,-2,-2,1
404472,582,-8292,281,-1,-2,-2,1
404477,583,-8293,275,-1,-2,-2,1
404482,586,-8292,270,-1,-2,-2,1
404487,586,-8294,273,-1,-2,-2,1
404492,585,-8294,274,-1,-2,-2,1
404497,585,-8292,272,-1,-2,-2,1
404502,583,-8290,274,-1,-2,-2,1
404507,578,-8289,272,-1,-2,-2,1
404512,577,-8289,269,-1,-3,-2,1
404517,572,-8288,277,-1,-3,-2,1
404522,567,-8287,283,-1,-3,-2,1
404527,560,-8288,290,-1,-2,-2,1
404532,551,-8286,295,-1,-2,-2,1
404537,547,-8287,295,-1,-2,-2,1
404542,550,-8289,293,-1,-2,-2,1
404547,555,-8288,294,-1,-2,-2,1
404552,558,-8285,287,-1,-2,-2,1
404557,564,-8286,288,-1,-2,-2,1
404562,566,-8289,288,-1,-2,-2,1
404567,568,-8287,279,-1,-3,-2,1
404572,567,-8289,276,-1,-3,-2,1
404577,569,-8291,277,-1,-3,-2,1
404582,571,-8290,278,-1,-3,-2,1
404587,573,-8288,279,-1,-3,-2,1
404592,573,-8285,280,-1,-3,-2,1
404597,570,-8284,280,-1,-3,-2,1
404602,564,-8285,289,-1,-2,-2,1
404607,560,-8280,300,-1,-2,-2,1
404612,557,-8281,300,-1,-2,-2,1
404617,558,-8280,303,-1,-2,-2,1
404622,557,-8279,302,-1,-2,-2,1
404627,558,-8282,302,-1,-2,-2,1
404632,563,-8285,312,-1,-2,-2,1
404637,564,-8287,308,-1,-2,-2,1
404642,564,-8290,306,-1,-2,-2,1
404647,563,-8290,299,-1,-2,-2,1
404652,561,-8288,298,-1,-2,-2,1
404657,562,-8287,291,-1,-2,-2,1
404662,566,-8288,281,-1,-2,-2,1
404667,566,-8290,271,-1,-2,-2,1
404672,571,-8291,260,-1,-2,-2,1
404677,573,-8292,252,-1,-2,-2,1
404682,572,-8290,248,-1,-2,-2,1
404687,569,-8288,248,-1,-2,-2,1
404692,564,-8287,252,-1,-2,-2,1
404697,561,-8286,259,-1,-2,-2,1
404702,555,-8286,271,-1,-2,-2,1
404707,553,-8287,282,-1,-2,-2,1
404712,553,-8286,292,-1,-2,-2,1
404717,551,-8288,306,-1,-1,-2,1
404722,547,-8288,315,-1,-1,-2,1
404727,545,-8285,321,-1,-1,-2,1
404732,544,-8284,327,-1,-1,-2,1
404737,545,-8284,324,-1,-2,-2,1
404742,550,-8284,314,-1,-2,-2,1
404747,553,-8284,297,-1,-2,-2,1
404752,557,-8285,286,-1,-2,-2,1
404757,561,-8285,279,-1,-2,-2,1
404762,558,-8285,279,-1,-2,-2,1
404767,555,-8283,280,-1,-3,-2,1
404772,557,-8283,282,-1,-3,-2,1
404777,559,-8281,289,-1,-3,-2,1
404782,560,-8280,291,-1,-3,-2,1
404787,560,-8279,293,-1,-3,-2,1
404792,560,-8282,299,-1,-3,-2,1
404797,559,-8285,304,-1,-2,-2,1
404802,557,-8286,305,-1,-2,-2,1
404807,552,-8285,306,-1,-2,-2,1
404812,550,-8283,302,-1,-2,-2,1
404817,549,-8283,303,-1,-1,-2,1
404822,547,-8284,302,-1,-1,-2,1
404827,543,-8287,300,-1,-1,-2,1
404832,542,-8288,297,-1,-1,-2,1
404837,544,-8285,292,-1,-1,-2,1
404842,547,-8285,284,-1,-2,-2,1
404847,548,-8285,276,-1,-2,-2,1
404852,552,-8285,274,-1,-2,-2,1
404857,556,-8285,271,-1,-2,-2,1
404862,561,-8286,267,-1,-2,-2,1
404867,569,-8285,263,-1,-2,-2,1
404872,577,-8285,257,-1,-3,-2,1
404877,585,-8286,248,-1,-3,-2,1
404882,589,-8285,249,-1,-3,-2,1
404887,593,-8283,257,-1,-3,-2,1
404892,597,-8285,264,-1,-3,-2,1
404897,600,-8284,273,-1,-3,-2,1
404902,599,-8285,279,-1,-3,-2,1
404907,592,-8285,290,-1,-2,-2,1
404912,590,-8286,290,-1,-2,-2,1
404917,590,-8286,287,-1,-2,-2,1
404922,591,-8287,287,-1,-2,-2,1
404927,590,-8288,278,-1,-2,-2,1
404932,595,-8286,271,-1,-2,-2,1
404937,601,-8286,259,-1,-2,-2,1
404942,608,-8287,250,-1,-2,-2,1
404947,607,-8287,246,-1,-2,-2,1
404952,603,-8287,247,-1,-2,-2,1
404957,596,-8289,252,-1,-2,-2,1
404962,586,-8291,261,-1,-2,-2,1
404967,578,-8291,273,-1,-2,-2,1
404972,570,-8290,284,-1,-2,-2,1
404977,565,-8290,294,-1,-1,-2,1
404982,566,-8288,298,-1,-1,-2,1
404987,566,-8286,297,-1,-1,-2,1
404992,563,-8288,302,-1,-2,-2,1
404997,557,-8291,305,-1,-2,-2,1
405002,552,-8294,313,-1,-2,-2,1
405007,546,-8294,322,-1,-2,-2,1
405012,542,-8292,329,-1,-2,-2,1
405017,540,-8290,332,-1,-2,-2,1
405022,540,-8289,332,-1,-2,-2,1
405027,541,-8292,331,-1,-2,-2,1
405032,546,-8294,322,-1,-1,-2,1
405037,553,-8292,315,-1,-1,-2,1
405042,554,-8293,312,-1,-1,-2,1
405047,553,-8290,308,-1,-2,-2,1
405052,557,-8289,311,-1,-1,-2,1
405057,561,-8288,310,-1,-2,-2,1
405062,565,-8287,305,-1,-2,-2,1
405067,568,-8285,298,-1,-2,-2,1
405072,571,-8288,285,-1,-2,-2,1
405077,574,-8289,276,-1,-2,-2,1
405082,568,-8290,271,-1,-2,-2,1
405087,560,-8290,265,-1,-2,-2,1
405092,552,-8287,263,-1,-2,-2,1
405097,546,-8285,261,-1,-2,-2,1
405102,542,-8282,259,-1,-2,-2,1
405107,543,-8280,255,-1,-2,-2,1
405112,544,-8282,254,-1,-2,-2,1
405117,545,-8282,257,-1,-2,-2,1
405121,543,-8281,264,-1,-2,-2,1
405127,537,-8282,275,-1,-2,-2,1
405132,529,-8283,288,-1,-2,-2,1
405137,523,-8283,300,-1,-2,-2,1
405142,523,-8285,312,-1,-2,-2,1
405147,525,-8285,315,-1,-2,-2,1
405152,531,-8286,315,-1,-2,-2,1
405156,531,-8284,309,-1,-2,-2,1
405161,532,-8283,306,-1,-2,-2,1
405167,531,-8283,299,-1,-2,-2,1
405171,526,-8286,296,-1,-2,-2,1
405177,519,-8289,293,-1,-2,-2,1
405182,517,-8289,295,-1,-2,-2,1
405187,520,-8290,299,-1,-2,-2,1
405191,522,-8287,301,-1,-2,-2,1
405197,526,-8287,300,-1,-2,-2,1
405201,530,-8291,300,-1,-2,-2,1
405207,535,-8291,304,-1,-2,-2,1
405211,543,-8291,303,-1,-2,-2,1
405217,548,-8293,303,-1,-2,-2,1
405222,557,-8288,302,-1,-2,-2,1
405226,569,-8285,304,-1,-2,-2,1
405232,580,-8283,299,-1,-2,-2,1
405236,587,-8281,294,-1,-2,-2,1
405241,595,-8279,290,-1,-2,-2,1
405246,600,-8279,285,-1,-3,-2,1
405251,600,-8280,286,-1,-3,-2,1
405256,596,-8281,285,-1,-3,-2,1
405261,600,-8283,281,-1,-3,-2,1
405266,604,-8283,281,-1,-2,-2,1
405271,611,-8282,281,-1,-3,-2,1
405276,619,-8283,281,-1,-2,-2,1
405281,626,-8283,284,-1,-2,-2,1
405286,632,-8284,288,-1,-2,-2,1
405291,638,-8283,299,-1,-2,-2,1
405296,644,-8282,304,-1,-2,-2,1
405301,645,-8282,310,-1,-2,-2,1
405306,648,-8283,309,-1,-2,-2,1
405311,650,-8283,310,-1,-2,-2,1
405316,650,-8283,303,-1,-2,-2,1
405321,646,-8285,296,-1,-2,-2,1
405326,640,-8288,293,-1,-2,-2,1
405331,625,-8286,292,-1,-2,-2,1
405336,611,-8289,298,-1,-2,-2,1
405341,598,-8290,307,-1,-3,-2,1
405346,585,-8290,314,-1,-3,-2,1
405351,576,-8288,322,-1,-3,-2,1
405356,573,-8289,331,-1,-3,-2,1
405361,577,-8288,336,-1,-2,-2,1
405366,587,-8287,339,-1,-2,-2,1
405371,594,-8286,342,-1,-2,-2,1
405376,602,-8288,351,-1,-2,-2,1
405381,610,-8289,354,-1,-3,-2,1
405386,625,-8286,352,-1,-3,-2,1
405391,644,-8287,340,-1,-3,-2,1
405396,664,-8287,323,-1,-4,-1,1
405401,676,-8288,300,-1,-4,-2,1
405406,678,-8289,280,-1,-4,-2,1
405411,678,-8287,263,-1,-4,-1,1
405416,672,-8288,249,-1,-4,-1,1
405421,667,-8286,240,-1,-4,-1,1
405426,662,-8285,228,-1,-3,-1,1
405431,660,-8283,212,-1,-3,-1,1
405436,667,-8282,196,-1,-3,-1,1
405441,683,-8280,177,-1,-3,-1,1
405446,702,-8282,159,-1,-3,-1,1
405451,719,-8283,144,-1,-3,-1,1
405456,734,-8285,134,-1,-3,-1,1
405461,747,-8284,128,-1,-3,-1,1
405466,763,-8283,121,-1,-3,-1,1
405471,787,-8281,111,-1,-4,-1,1
405476,807,-8281,105,0,-4,0,1
405481,824,-8279,100,0,-5,0,1
405486,838,-8279,101,0,-5,0,1
405491,847,-8279,114,0,-5,0,1
405496,846,-8280,141,0,-5,0,1
405501,838,-8280,174,0,-6,0,1
405506,825,-8280,211,0,-6,0,1
405511,812,-8277,247,0,-6,0,1
405516,808,-8275,281,0,-6,0,1
405521,810,-8275,313,0,-6,0,1
405526,813,-8277,342,-1,-6,0,1
405531,814,-8276,373,-1,-7,0,1
405536,810,-8279,406,-1,-8,0,1
405541,800,-8281,445,-1,-8,0,1
405546,785,-8282,486,-1,-9,0,1
405551,765,-8281,517,-1,-10,0,1
405556,744,-8281,540,-1,-11,1,1
405561,727,-8281,557,-1,-11,1,1
405566,712,-8282,569,-1,-12,1,1
405571,697,-8282,578,-1,-12,1,1
405576,675,-8283,585,-1,-13,1,1
405581,655,-8282,589,-1,-14,0,1
405586,631,-8281,581,-1,-15,1,1
405591,601,-8280,571,-2,-16,1,1
405596,570,-8278,555,-1,-17,0,1
405601,547,-8281,533,-1,-18,0,1
405606,525,-8281,508,-2,-18,1,1
405611,506,-8280,482,-2,-18,0,1
405616,489,-8281,456,-2,-18,0,1
405621,473,-8284,429,-2,-18,0,1
405626,457,-8284,404,-2,-19,0,1
405631,438,-8284,375,-2,-19,0,1
405636,421,-8282,345,-1,-19,0,1
405641,405,-8282,309,-1,-18,0,1
405646,387,-8284,273,-1,-18,0,1
405651,371,-8284,240,-1,-17,0,1
405656,353,-8286,220,-1,-18,0,1
405661,329,-8290,216,-1,-18,0,1
405666,309,-8289,226,-1,-18,0,1
405671,292,-8288,240,-1,-18,0,1
405676,273,-8287,252,-1,-18,0,1
405681,256,-8288,263,-1,-18,0,1
405686,236,-8288,274,-1,-18,-1,1
405691,214,-8288,284,-1,-16,-1,1
405696,189,-8289,307,-1,-14,-1,1
405701,162,-8288,327,-1,-12,-1,1
405706,142,-8289,343,-2,-10,-1,1
405711,128,-8294,352,-2,-8,-1,1
405716,127,-8294,350,-2,-6,-1,1
405721,141,-8292,341,-2,-5,-1,1
405726,161,-8291,324,-2,-5,-1,1
405731,182,-8291,305,-2,-5,-1,1
405736,202,-8291,285,-2,-5,-1,1
405741,215,-8290,278,-2,-5,-1,1
405746,226,-8291,278,-2,-5,-1,1
405751,236,-8290,284,-2,-5,-1,1
405756,252,-8291,294,-2,-6,-1,1
405761,278,-8293,299,-2,-6,-1,1
405766,315,-8293,294,-2,-7,-1,1
405771,353,-8290,282,-2,-8,-1,1
405776,397,-8288,272,-2,-8,-1,1
405781,439,-8287,258,-2,-10,-2,1
405786,472,-8288,242,-2,-11,-1,1
405791,493,-8287,232,-2,-13,-2,1
405796,507,-8285,220,-1,-14,-1,1
405801,514,-8286,216,-1,-14,-1,1
405806,522,-8287,217,-1,-15,-1,1
405811,533,-8287,223,-1,-15,-1,1
405816,547,-8288,233,-1,-15,-1,1
405821,564,-8286,237,-1,-15,-1,1
405826,595,-8286,236,-1,-15,-1,1
405831,628,-8284,218,-1,-16,-1,1
405836,577,-8279,182,-1,-11,-1,1
405841,485,-8272,183,-1,3,-3,1
405846,432,-8283,320,-1,-7,-6,1
405851,270,-8266,598,-1,-37,-9,1
405856,149,-8232,390,2,-67,-8,1
405861,-391,-8244,80,5,-83,-8,1
405866,-1000,-8298,-405,7,-90,-8,1
405871,-1476,-8364,-1128,5,-83,-9,1
405876,-1844,-8435,-1318,0,-70,-8,1
405881,-2084,-8435,-1231,-5,-54,-7,1
405886,-1997,-8386,-615,-7,-33,-6,1
405891,-1692,-8337,183,-5,-12,-6,1
405896,-1272,-8283,698,-2,-4,-7,1
405901,-861,-8262,1117,1,-5,-7,1
405906,-385,-8244,1371,2,0,-6,1
405911,-56,-8231,1307,4,8,-4,1
405916,274,-8246,1017,4,12,-2,1
405921,811,-8273,402,3,17,-1,1
405926,1410,-8295,-223,1,21,-2,1
405931,1979,-8303,-618,-2,23,-3,1
405936,2394,-8288,-774,-4,27,-5,1
405941,2557,-8269,-576,-4,27,-5,1
405946,2545,-8245,-281,-2,22,-5,1
405951,2406,-8228,24,0,15,-4,1
405956,2191,-8229,158,2,8,-2,1
405961,1947,-8235,29,4,5,-1,1
405966,1764,-8251,-281,4,9,0,1
405971,1616,-8272,-680,3,17,0,1
405976,1505,-8284,-982,1,28,-1,1
405981,1385,-8287,-1072,0,39,-1,1
405986,1260,-8274,-956,0,50,-1,1
405991,1173,-8261,-649,1,56,-1,1
405996,1090,-8248,-342,2,56,0,1
406001,1003,-8237,-139,3,52,0,1
406006,930,-8235,-8,4,45,1,1
406011,859,-8247,41,5,39,1,1
406016,785,-8259,-43,5,33,1,1
406021,757,-8273,-155,4,30,2,1
406026,705,-8281,-203,3,35,2,1
406031,677,-8286,-148,2,40,1,1
406036,843,-8271,119,2,42,1,1
406041,941,-8259,388,1,25,0,1
406046,804,-8258,677,2,7,0,1
406051,609,-8263,953,2,6,0,1
406056,589,-8268,1166,2,3,0,1
406061,502,-8268,1316,2,-11,0,1
406066,345,-8276,1372,2,-16,0,1
406071,184,-8285,1433,1,-12,-1,1
406076,134,-8292,1488,0,-7,-1,1
406081,184,-8292,1506,-1,-5,-2,1
406086,243,-8289,1487,-1,-2,-2,1
406091,213,-8295,1511,-2,1,-3,1
406096,254,-8294,1530,-3,5,-6,1
406101,418,-8292,1500,-4,7,-8,1
406106,385,-8292,1549,-4,16,-6,1
406111,60,-8306,1677,-4,26,-5,1
406116,-557,-8309,1837,-5,28,-6,1
406121,-831,-8316,1864,-4,22,-5,1
406126,-1015,-8315,1683,-4,27,-3,1
406131,-1112,-8318,1595,-4,22,-1,1
406136,-911,-8313,1481,-4,22,0,1
406141,-558,-8295,1307,-4,23,0,1
406146,-83,-8284,1264,-4,23,-1,1
406151,297,-8270,1119,-4,24,-2,1
406156,628,-8264,933,-4,20,-4,1
406161,829,-8267,721,-4,19,-4,1
406166,821,-8271,450,-3,15,-4,1
406171,829,-8275,176,-3,10,-4,1
406176,800,-8279,-86,-3,8,-2,1
406181,794,-8285,-235,-3,2,-1,1
406186,945,-8280,-345,-3,1,0,1
406191,1108,-8271,-342,-3,-1,0,1
406196,1256,-8261,-245,-2,-4,0,1
406201,1408,-8248,-206,-2,-4,-1,1
406206,1444,-8247,-119,-1,-6,-1,1
406211,1350,-8249,-111,-1,-8,-2,1
406216,1218,-8255,-181,0,-9,-1,1
406221,1027,-8268,-233,0,-9,-1,1
406226,817,-8275,-313,-1,-9,0,1
406231,701,-8279,-342,-1,-7,0,1
406235,638,-8282,-298,-1,-5,1,1
406240,644,-8280,-212,-1,-4,1,1
406246,711,-8272,-82,-1,-2,0,1
406251,752,-8264,40,0,-2,0,1
406255,758,-8261,126,0,-2,0,1
406260,717,-8262,157,0,-2,-1,1
406265,623,-8271,150,0,-2,-1,1
406270,509,-8281,120,0,-2,-1,1
406275,405,-8288,87,0,-2,0,1
406281,332,-8292,108,-1,-1,0,1
406286,308,-8293,180,-1,0,0,1
406291,322,-8290,287,-1,0,0,1
406296,340,-8284,428,-1,0,0,1
406301,347,-8283,559,-1,0,-1,1
406306,326,-8283,651,-1,0,-1,1
406311,255,-8285,689,-1,-1,-2,1
406316,161,-8291,679,-1,-1,-2,1
406320,77,-8299,644,-1,0,-1,1
406325,20,-8304,607,-1,0,-1,1
406331,19,-8303,587,-2,1,-1,1
406335,74,-8300,601,-2,2,-1,1
406340,172,-8296,641,-2,3,-1,1
406345,272,-8291,688,-2,3,-1,1
406350,349,-8288,721,-2,2,-2,1
406355,377,-8286,716,-2,2,-2,1
406360,354,-8289,672,-1,1,-2,1
406365,295,-8293,595,-1,2,-2,1
406370,222,-8297,497,-2,2,-2,1
406375,160,-8300,409,-2,2,-2,1
406380,128,-8303,352,-2,2,-2,1
406385,133,-8302,342,-2,2,-2,1
406390,167,-8296,369,-2,2,-2,1
406395,209,-8291,411,-2,1,-2,1
406400,248,-8288,455,-2,0,-2,1
406405,267,-8288,469,-2,-1,-3,1
406410,261,-8287,457,-1,-2,-3,1
406415,239,-8288,422,-1,-3,-3,1
406420,226,-8291,374,-2,-3,-3,1
406425,223,-8290,332,-2,-3,-3,1
406430,243,-8288,305,-2,-3,-2,1
406435,290,-8285,296,-2,-2,-2,1
406440,355,-8286,302,-2,-3,-2,1
406445,413,-8284,313,-2,-3,-3,1
406450,458,-8281,307,-1,-4,-3,1
406455,479,-8279,281,-1,-5,-3,1
406460,472,-8280,235,-1,-5,-3,1
406465,453,-8283,176,-1,-5,-3,1
406470,432,-8286,133,-1,-4,-3,1
406475,411,-8289,115,-1,-4,-3,1
406480,408,-8286,131,-1,-3,-2,1
406485,427,-8284,177,-2,-2,-2,1
406490,455,-8284,241,-1,-2,-2,1
406495,483,-8286,298,-1,-1,-2,1
406500,512,-8272,350,-1,-1,-3,1
406505,532,-8257,475,-1,-1,-3,1
406510,530,-8247,429,-1,0,-3,1
406515,575,-8255,386,0,0,-2,1
406520,536,-8270,329,0,-4,-2,1
406525,460,-8272,196,-1,-3,-2,1
406530,483,-8274,194,-2,2,-2,1
406535,524,-8276,233,-2,3,-2,1
406540,546,-8273,274,-2,-1,-2,1
406545,579,-8271,326,-1,-1,-2,1
406550,597,-8266,298,0,-2,-2,1
406555,599,-8267,262,0,-3,-2,1
406560,610,-8271,156,0,-3,-2,1
406565,603,-8275,56,0,-3,-2,1
406570,577,-8279,-2,-1,-2,-2,1
406575,594,-8279,-34,-1,-1,-2,1
406580,619,-8282,19,-1,-1,-2,1
406585,643,-8280,96,-1,-2,-1,1
406590,681,-8280,202,-1,-2,-1,1
406595,701,-8277,319,-1,-2,-2,1
406600,699,-8274,389,0,-3,-2,1
406605,672,-8277,455,0,-3,-2,1
406610,632,-8280,472,0,-2,-2,1
406615,584,-8283,478,0,-1,-1,1
406620,538,-8290,479,-1,0,-1,1
406625,493,-8296,477,-1,2,-1,1
406630,446,-8299,531,-2,4,-2,1
406635,404,-8300,620,-2,7,-2,1
406640,365,-8298,738,-2,9,-2,1
406645,322,-8295,864,-2,12,-2,1
406650,289,-8292,955,-2,14,-2,1
406655,247,-8290,1010,-2,15,-2,1
406660,218,-8290,1020,-2,16,-2,1
406665,215,-8296,987,-2,17,-2,1
406670,216,-8300,950,-3,18,-2,1
406675,247,-8302,911,-3,18,-2,1
406680,290,-8301,888,-4,18,-2,1
406685,336,-8297,890,-4,17,-2,1
406690,374,-8294,887,-4,15,-2,1
406695,404,-8287,879,-4,13,-3,1
406700,422,-8283,841,-3,11,-2,1
406705,424,-8282,757,-3,9,-2,1
406710,428,-8281,640,-3,8,-2,1
406715,428,-8279,505,-3,7,-2,1
406720,420,-8281,384,-3,8,-2,1
406725,437,-8282,279,-3,9,-3,1
406730,455,-8284,207,-4,7,-3,1
406735,429,-8282,160,-4,4,-3,1
406740,414,-8279,163,-3,4,-2,1
406745,412,-8279,181,-3,4,-3,1
406750,416,-8281,200,-3,4,-3,1
406755,403,-8281,208,-3,3,-3,1
406760,367,-8280,179,-2,3,-3,1
406765,334,-8281,142,-2,5,-3,1
406770,288,-8284,82,-2,8,-3,1
406775,266,-8289,13,-2,10,-3,1
406780,254,-8295,-24,-3,11,-3,1
406785,242,-8296,-57,-3,12,-3,1
406790,225,-8302,-26,-3,15,-3,1
406795,193,-8303,137,-4,18,-4,1
406800,190,-8290,185,-3,20,-4,1
406805,208,-8286,275,-3,23,-4,1
406810,197,-8294,377,-2,21,-4,1
406815,170,-8294,312,-2,16,-3,1
406820,146,-8299,286,-2,16,-3,1
406825,113,-8304,222,-2,18,-3,1
406830,81,-8300,184,-3,19,-4,1
406835,83,-8288,184,-3,24,-4,1
406840,228,-8266,78,-1,29,-3,1
406845,533,-8256,-89,1,23,-2,1
406850,814,-8263,-310,3,11,0,1
406855,1040,-8275,-667,4,-2,0,1
406860,1132,-8297,-1024,3,-8,0,1
406865,1156,-8318,-1326,1,-7,-2,1
406870,1085,-8323,-1391,-1,-1,-3,1
406875,884,-8323,-1155,-2,6,-5,1
406880,756,-8313,-777,-3,11,-5,1
406885,619,-8298,-315,-3,18,-6,1
406890,347,-8290,189,-2,21,-5,1
406895,89,-8284,592,-1,24,-5,1
406900,-149,-8283,901,-1,30,-4,1
406905,-333,-8283,1087,0,33,-3,1
406910,-424,-8286,1132,0,37,-2,1
406915,-419,-8287,1066,0,46,-2,1
406920,-302,-8288,908,0,57,-2,1
406925,-114,-8290,710,0,72,-2,1
406930,119,-8294,568,-1,84,-2,1
406935,380,-8292,430,-2,91,-3,1
406940,619,-8295,374,-3,93,-3,1
406945,810,-8294,391,-3,91,-3,1
406950,911,-8290,440,-3,87,-4,1
406955,926,-8287,546,-3,82,-4,1
406960,883,-8284,629,-3,78,-4,1
406965,780,-8282,694,-3,74,-4,1
406970,670,-8284,719,-2,69,-4,1
406975,606,-8288,660,-2,59,-3,1
406980,568,-8287,516,-1,29,-4,1
406985,445,-8292,318,0,-16,-4,1
406990,167,-8300,112,0,-45,-4,1
406995,-150,-8303,-113,0,-52,-4,1
407000,-450,-8309,-283,0,-37,-5,1
407005,-659,-8312,-415,0,-8,-5,1
407010,-751,-8312,-500,0,20,-5,1
407015,-746,-8312,-548,0,41,-6,1
407020,-683,-8310,-558,0,56,-6,1
407025,-595,-8308,-497,0,66,-6,1
407030,-474,-8304,-400,0,73,-6,1
407035,-360,-8299,-257,0,82,-6,1
407040,-264,-8292,-77,-1,93,-6,1
407045,-169,-8288,95,-1,109,-6,1
407050,-81,-8284,263,-1,130,-6,1
407055,0,-8276,423,-1,155,-5,1
407060,108,-8269,551,-1,179,-5,1
407065,231,-8266,646,-2,200,-5,1
407070,365,-8262,690,-2,214,-5,1
407075,488,-8262,687,-2,218,-5,1
407080,562,-8265,646,-1,216,-5,1
407085,572,-8266,560,-1,209,-5,1
407090,522,-8269,454,-1,203,-5,1
407095,381,-8276,322,-1,201,-5,1
407100,158,-8278,167,-1,207,-5,1
407105,-106,-8278,17,-1,226,-5,1
407110,-401,-8279,-129,-1,257,-5,1
407115,-643,-8280,-261,-1,297,-5,1
407120,-827,-8280,-373,-1,342,-4,1
407125,-973,-8281,-439,-1,389,-4,1
407130,-1104,-8279,-456,-2,440,-4,1
407135,-1282,-8280,-424,-2,500,-3,1
407140,-1506,-8280,-300,-3,574,-3,1
407145,-1781,-8278,-109,-3,659,-3,1
407150,-2170,-8282,201,-5,754,-3,1
407155,-2631,-8301,641,-6,854,-3,1
407160,-3086,-8303,1219,-8,950,-3,1
407165,-3586,-8322,1927,-11,1024,-3,1
407170,-4209,-8337,2623,-13,1076,-3,1
407175,-5005,-8356,3205,-14,1115,-2,1
407180,-5533,-8383,3968,-14,1129,0,1
407185,-5602,-8395,4711,-15,1103,4,1
407190,-5137,-8365,5168,-15,1040,7,1
407195,-4322,-8339,5448,-11,949,8,1
407200,-3855,-8355,6189,-10,856,6,1
407205,-3357,-8346,6730,-13,790,3,1
407210,-2611,-8321,6886,-12,752,3,1
407215,-1971,-8284,7127,-9,695,5,1
407220,-1116,-8282,7199,-6,601,5,1
407225,-271,-8288,7136,-4,510,6,1
407230,599,-8312,6798,-3,440,5,1
407235,1355,-8294,6283,-2,397,4,1
407240,1931,-8274,5618,-1,375,3,1
407245,2478,-8263,4859,0,352,1,1
407250,2792,-8263,4154,0,330,0,1
407255,2947,-8269,3503,-1,305,0,1
407260,2877,-8273,2838,-2,284,0,1
407265,2563,-8269,2239,-3,281,0,1
407270,2172,-8270,1717,-3,288,0,1
407275,1903,-8268,1313,-3,300,0,1
407280,1645,-8277,1131,-4,306,1,1
407285,1442,-8285,1055,-4,289,1,1
407290,1292,-8286,1026,-5,257,2,1
407295,1066,-8289,1076,-4,224,2,1
407300,879,-8287,1090,-4,197,2,1
407305,653,-8281,1186,-3,177,2,1
407310,430,-8282,1248,-2,158,1,1
407314,295,-8284,1163,-1,140,0,1
407319,183,-8288,996,0,122,0,1
407325,155,-8291,757,1,101,-1,1
407329,171,-8292,495,1,84,-1,1
407334,176,-8294,237,0,72,-2,1
407339,180,-8293,19,0,64,-2,1
407344,190,-8292,-151,0,61,-2,1
407350,220,-8289,-256,-1,62,-2,1
407354,320,-8281,-324,-1,68,-2,1
407360,468,-8283,-328,-1,92,-1,1
407364,594,-8288,-192,-1,119,-1,1
407370,814,-8292,58,-2,113,-2,1
407375,1054,-8289,241,-2,84,-2,1
407379,994,-8282,480,-1,52,-1,1
407385,837,-8281,638,0,34,-1,1
407389,758,-8279,665,0,40,-1,1
407394,744,-8278,596,1,50,-1,1
407399,795,-8277,440,1,52,-1,1
407404,867,-8276,214,1,50,0,1
407409,921,-8272,-25,1,45,-1,1
407414,953,-8270,-228,1,41,-1,1
407419,982,-8268,-387,1,38,-2,1
407424,990,-8267,-491,1,35,-2,1
407429,952,-8266,-540,1,30,-2,1
407434,838,-8269,-516,1,23,-3,1
407439,658,-8273,-445,1,14,-3,1
407444,435,-8280,-364,1,6,-2,1
407449,225,-8285,-292,2,1,-2,1
407454,69,-8291,-241,2,-1,-1,1
407459,15,-8292,-200,2,-3,0,1
407464,76,-8295,-174,1,-5,0,1
407469,211,-8293,-148,1,-6,0,1
407474,402,-8289,-129,1,-8,-1,1
407479,606,-8284,-107,1,-11,-1,1
407484,721,-8277,-26,1,-17,-1,1
407489,842,-8287,225,1,-24,-2,1
407494,1068,-8291,661,0,-38,-2,1
407499,1147,-8289,1106,0,-59,-1,1
407504,1046,-8282,1393,0,-63,-1,1
407509,852,-8277,1495,1,-40,-1,1
407514,658,-8275,1347,1,-5,-1,1
407519,477,-8274,1031,2,19,-1,1
407524,268,-8301,673,2,37,-1,1
407529,-28,-8319,227,0,55,-1,1
407534,-364,-8328,-185,-1,76,0,1
407539,-650,-8333,-465,-2,99,0,1
407544,-874,-8332,-646,-3,122,1,1
407549,-966,-8330,-690,-4,145,1,1
407554,-919,-8323,-585,-4,165,1,1
407559,-883,-8320,-457,-4,184,1,1
407564,-1031,-8317,-278,-5,218,0,1
407569,-1010,-8314,-74,-5,252,-2,1
407574,-981,-8316,88,-5,271,-3,1
407579,-1044,-8320,147,-4,263,-2,1
407584,-1139,-8333,70,-4,250,0,1
407589,-1187,-8321,17,-5,265,2,1
407594,-933,-8315,-84,-5,289,2,1
407599,-501,-8305,45,-6,300,1,1
407604,-19,-8294,256,-6,289,0,1
407609,435,-8287,422,-6,260,-1,1
407614,626,-8282,654,-5,231,-1,1
407619,698,-8280,831,-4,206,-1,1
407624,622,-8281,935,-4,192,-1,1
407629,466,-8289,926,-3,188,-1,1
407634,360,-8295,827,-4,188,-1,1
407639,239,-8302,733,-4,186,-1,1
407644,234,-8303,605,-4,179,-1,1
407649,207,-8300,500,-5,174,-1,1
407654,207,-8294,447,-5,171,-1,1
407659,242,-8288,429,-5,173,-2,1
407664,221,-8286,425,-5,177,-2,1
407669,217,-8288,416,-5,178,-3,1
407674,158,-8289,373,-5,176,-3,1
407679,109,-8290,286,-4,176,-2,1
407684,154,-8294,203,-4,176,-2,1
407689,313,-8292,117,-5,171,-1,1
407694,523,-8286,27,-5,165,-1,1
407699,755,-8279,-3,-5,160,-1,1
407704,990,-8270,9,-4,151,-2,1
407709,1177,-8265,20,-4,140,-2,1
407714,1295,-8263,43,-3,124,-2,1
407719,1327,-8263,58,-3,110,-2,1
407724,1290,-8263,44,-3,99,-1,1
407729,1224,-8265,3,-2,97,-1,1
407734,1147,-8266,-68,-2,102,-1,1
407739,1089,-8267,-135,-2,109,-1,1
407744,1043,-8268,-197,-3,112,-1,1
407749,965,-8271,-253,-3,111,-1,1
407754,844,-8273,-267,-3,111,-1,1
407759,728,-8280,-257,-3,113,-1,1
407764,623,-8283,-220,-3,117,-1,1
407769,551,-8285,-179,-3,118,-1,1
407774,509,-8286,-165,-3,121,-1,1
407779,530,-8288,-156,-2,127,0,1
407784,552,-8281,-172,-2,128,0,1
407789,609,-8278,-227,-2,122,-2,1
407794,640,-8283,-281,-2,112,-2,1
407799,606,-8293,-308,-2,100,-2,1
407804,540,-8298,-307,-2,88,-2,1
407809,414,-8294,-292,-2,82,-2,1
407814,340,-8293,-263,-2,83,-2,1
407819,341,-8299,-189,-2,86,-2,1
407824,397,-8297,-83,-2,86,-1,1
407829,425,-8291,-51,-2,90,-1,1
407834,471,-8289,-19,-2,98,-2,1
407839,536,-8285,57,-2,105,-2,1
407844,543,-8285,80,-2,108,-2,1
407849,512,-8286,91,-2,110,-2,1
407854,461,-8288,69,-2,113,-2,1
407859,397,-8292,8,-2,118,-2,1
407864,358,-8292,-57,-2,123,-2,1
407869,334,-8292,-127,-2,128,-2,1
407874,323,-8294,-186,-2,134,-2,1
407879,341,-8295,-211,-2,138,-1,1
407884,360,-8296,-219,-3,144,-1,1
407889,376,-8291,-187,-3,151,-1,1
407894,394,-8286,-137,-3,158,-1,1
407899,388,-8289,-85,-3,168,-1,1
407904,363,-8293,-25,-4,180,-1,1
407909,398,-8301,25,-4,193,-1,1
407914,456,-8292,109,-4,201,-1,1
407919,434,-8278,88,-4,202,-2,1
407924,463,-8270,5,-4,208,-2,1
407929,467,-8272,-79,-3,209,-3,1
407934,420,-8279,-203,-2,198,-3,1
407939,372,-8292,-321,-2,183,-2,1
407944,305,-8300,-422,-3,173,-2,1
407949,281,-8301,-498,-3,170,-1,1
407954,346,-8293,-499,-3,173,-1,1
407959,482,-8288,-435,-3,175,-1,1
407964,630,-8284,-311,-3,176,-1,1
407969,746,-8281,-124,-4,178,-1,1
407974,830,-8280,87,-4,183,-1,1
407979,851,-8278,321,-4,190,-1,1
407984,850,-8279,538,-4,195,-1,1
407989,809,-8281,717,-4,200,-1,1
407994,728,-8285,842,-4,204,-1,1
407999,629,-8291,870,-4,210,-1,1
408004,532,-8296,826,-4,220,-1,1
408009,453,-8298,734,-5,232,-1,1
408014,403,-8296,600,-5,246,-1,1
408019,370,-8296,467,-6,260,-1,1
408024,370,-8295,348,-6,273,-1,1
408029,407,-8294,236,-6,280,-1,1
408034,442,-8295,153,-6,280,-1,1
408039,437,-8297,111,-6,275,-1,1
408044,347,-8298,84,-6,273,-1,1
408049,193,-8295,69,-6,283,-1,1
408054,1,-8295,42,-6,304,-1,1
408059,-217,-8293,-7,-6,337,-1,1
408064,-410,-8298,-40,-7,376,-1,1
408069,-567,-8313,-45,-8,419,-1,1
408074,-718,-8319,-50,-9,463,0,1
408079,-872,-8320,-38,-10,508,0,1
408084,-993,-8319,10,-10,552,0,1
408089,-1086,-8317,67,-11,586,0,1
408094,-1044,-8324,255,-11,611,-1,1
408099,-938,-8325,526,-11,624,-1,1
408104,-756,-8315,801,-12,614,-2,1
408109,-513,-8310,1150,-11,585,-2,1
408114,-245,-8305,1493,-9,540,-2,1
408119,47,-8293,1793,-8,483,-1,1
408124,347,-8272,2020,-6,424,-1,1
408129,703,-8253,2117,-4,365,-1,1
408134,1070,-8240,2108,-2,305,-2,1
408139,1406,-8233,1984,-1,245,-2,1
408144,1633,-8233,1779,0,193,-3,1
408149,1720,-8238,1551,1,153,-3,1
408154,1670,-8247,1336,1,127,-3,1
408159,1489,-8258,1126,1,115,-4,1
408164,1207,-8269,953,0,113,-4,1
408169,888,-8281,842,0,119,-4,1
408174,590,-8290,798,-1,129,-3,1
408179,370,-8296,818,-1,140,-3,1
408184,253,-8298,878,-2,151,-2,1
408189,251,-8294,972,-2,162,-2,1
408194,360,-8292,1076,-2,173,-2,1
408199,557,-8291,1166,-2,183,-2,1
408204,786,-8287,1257,-3,190,-2,1
408209,993,-8285,1359,-3,197,-2,1
408214,1164,-8282,1468,-4,202,-2,1
408219,1307,-8281,1636,-4,204,-2,1
408224,1372,-8283,1841,-5,198,-2,1
408229,1349,-8277,1996,-6,196,-2,1
408234,1238,-8273,2165,-6,200,-1,1
408239,1126,-8270,2298,-6,205,0,1
408244,1033,-8266,2335,-6,212,0,1
408249,972,-8262,2257,-6,214,0,1
408254,938,-8268,2079,-6,211,-1,1
408259,888,-8268,1828,-6,205,-1,1
408264,814,-8274,1565,-6,201,-1,1
408269,758,-8283,1322,-6,199,-1,1
408274,723,-8287,1114,-6,194,-1,1
408279,726,-8290,922,-6,185,-1,1
408284,698,-8294,797,-6,173,-1,1
408289,667,-8294,735,-6,161,-1,1
408294,621,-8295,701,-6,154,-2,1
408299,544,-8292,707,-6,152,-2,1
408304,473,-8291,732,-6,155,-2,1
408309,393,-8290,856,-6,161,-2,1
408314,280,-8283,922,-7,170,-2,1
408319,212,-8274,957,-6,176,-3,1
408324,105,-8278,987,-6,183,-3,1
408329,-29,-8280,968,-6,192,-3,1
408334,-155,-8285,912,-6,206,-3,1
408339,-261,-8286,837,-7,225,-3,1
408344,-312,-8288,745,-7,244,-3,1
408349,-262,-8289,664,-7,255,-3,1
408354,-144,-8283,579,-7,254,-3,1
408358,-10,-8282,512,-7,244,-3,1
408364,121,-8279,453,-6,231,-3,1
408369,263,-8272,396,-6,219,-3,1
408374,662,-8267,333,-5,206,-3,1
408378,1577,-8254,209,-4,176,-1,1
408384,2242,-8235,0,-3,116,1,1
408388,2322,-8235,-110,-1,63,2,1
408394,2126,-8237,-188,-1,69,1,1
408398,1936,-8238,-225,-2,116,-1,1
408403,1730,-8241,-185,-2,154,-3,1
408408,1586,-8240,-156,-1,171,-5,1
408413,1300,-8240,-185,-1,180,-6,1
408418,934,-8273,-129,-1,183,-5,1
408423,515,-8300,-87,-2,185,-4,1
408428,-158,-8333,-259,-3,181,-2,1
408433,-427,-8346,-177,-2,170,-1,1
408438,-654,-8355,-197,-2,171,0,1
408443,-605,-8350,-200,-2,170,0,1
408448,-377,-8339,-113,-1,181,0,1
408453,-136,-8325,-145,-1,193,-1,1
408458,169,-8314,-104,-1,197,-2,1
408463,388,-8304,-22,-1,194,-3,1
408468,488,-8301,36,-1,180,-4,1
408473,491,-8304,178,-1,168,-4,1
408478,368,-8308,352,-2,161,-3,1
408483,271,-8306,537,-2,154,-2,1
408488,224,-8300,748,-2,150,-1,1
408493,297,-8294,900,-1,145,0,1
408498,421,-8287,1013,-1,142,0,1
408503,542,-8284,994,-1,150,0,1
408508,687,-8284,945,0,162,-1,1
408513,822,-8284,835,0,170,-1,1
408518,869,-8283,645,0,170,-2,1
408523,853,-8286,482,0,166,-2,1
408528,727,-8291,339,-1,166,-2,1
408533,518,-8291,263,-2,173,-1,1
408538,305,-8289,226,-2,191,0,1
408543,126,-8290,251,-2,212,1,1
408548,68,-8287,293,-2,229,1,1
408553,100,-8285,294,-2,243,1,1
408558,167,-8279,282,-1,252,1,1
408563,225,-8270,183,-1,262,1,1
408568,294,-8268,115,-1,268,1,1
408573,344,-8273,88,-1,268,1,1
408578,293,-8274,69,-2,266,1,1
408583,179,-8275,135,-2,267,1,1
408588,37,-8281,300,-3,272,1,1
408593,-86,-8285,499,-3,274,1,1
408598,-198,-8286,722,-3,275,2,1
408603,-298,-8289,959,-3,278,2,1
408608,-302,-8291,1147,-3,279,2,1
408613,-251,-8293,1282,-3,277,2,1
408618,-177,-8292,1375,-3,267,1,1
408623,-117,-8292,1429,-3,253,1,1
408628,-146,-8297,1392,-3,243,0,1
408633,-240,-8304,1335,-4,240,0,1
408638,-353,-8311,1305,-4,243,0,1
408643,-440,-8314,1273,-5,246,0,1
408648,-485,-8317,1264,-5,244,0,1
408653,-472,-8310,1253,-5,238,0,1
408658,-410,-8304,1235,-5,232,0,1
408663,-327,-8300,1216,-5,229,0,1
408668,-176,-8295,1151,-5,227,0,1
408673,-11,-8291,1074,-5,220,-1,1
408678,151,-8287,1001,-4,207,-1,1
408683,260,-8286,925,-5,189,-1,1
408688,312,-8285,861,-5,172,-2,1
408693,338,-8287,806,-4,156,-2,1
408698,338,-8285,774,-4,144,-2,1
408703,307,-8285,742,-4,133,-2,1
408708,234,-8288,704,-4,130,-2,1
408713,181,-8289,649,-4,132,-2,1
408718,174,-8290,582,-4,132,-3,1
408723,202,-8291,521,-4,126,-2,1
408728,259,-8292,458,-3,114,-2,1
408733,337,-8290,406,-3,101,-2,1
408738,430,-8286,339,-3,88,-2,1
408743,481,-8284,313,-3,80,-3,1
408748,535,-8283,264,-3,73,-3,1
408753,530,-8281,222,-3,68,-3,1
408758,496,-8275,153,-2,62,-3,1
408763,406,-8277,88,-2,60,-3,1
408768,313,-8278,53,-2,60,-3,1
408773,310,-8277,-10,-2,60,-3,1
408778,295,-8279,-15,-2,59,-2,1
408783,341,-8279,-33,-2,58,-3,1
408788,420,-8276,-39,-2,58,-3,1
408793,510,-8277,-21,-2,55,-3,1
408798,601,-8276,-28,-2,49,-3,1
408803,663,-8274,-32,-2,45,-2,1
408808,717,-8269,-61,-1,43,-2,1
408813,705,-8269,-93,-1,43,-2,1
408818,680,-8269,-130,-1,46,-2,1
408823,667,-8269,-172,-1,50,-2,1
408828,642,-8269,-177,-1,48,-2,1
408833,630,-8270,-179,-1,45,-2,1
408838,618,-8274,-168,-1,42,-1,1
408843,607,-8277,-113,-2,41,-1,1
408848,610,-8280,-15,-2,39,-2,1
408853,592,-8283,125,-3,33,-3,1
408858,503,-8285,313,-3,21,-3,1
408863,306,-8289,534,-3,9,-3,1
408868,72,-8298,746,-3,4,-3,1
408873,-107,-8303,935,-3,3,-3,1
408878,-213,-8308,1063,-2,1,-3,1
408883,-225,-8304,1087,-2,-4,-2,1
408888,-160,-8303,1004,-2,-8,-2,1
408893,-56,-8300,894,-2,-12,-3,1
408898,104,-8296,700,-2,-15,-3,1
408903,215,-8292,519,-2,-18,-4,1
408908,305,-8287,345,-2,-20,-4,1
408913,375,-8282,141,-2,-19,-4,1
408918,434,-8280,-43,-2,-18,-3,1
408923,488,-8277,-191,-2,-17,-3,1
408928,543,-8279,-327,-2,-14,-3,1
408933,617,-8281,-417,-2,-11,-3,1
408938,652,-8281,-472,-2,-9,-3,1
408943,647,-8280,-495,-2,-6,-3,1
408948,629,-8278,-490,-2,-2,-3,1
408953,576,-8279,-444,-2,1,-3,1
408958,500,-8279,-390,-2,1,-2,1
408963,404,-8280,-352,-2,2,-2,1
408968,322,-8278,-309,-2,5,-2,1
408973,286,-8280,-284,-1,7,-2,1
408978,270,-8282,-252,-1,7,-2,1
408983,283,-8285,-225,-1,6,-2,1
408988,308,-8284,-196,-1,4,-2,1
408993,328,-8283,-179,-1,2,-2,1
408998,322,-8280,-178,-1,2,-2,1
409003,333,-8279,-181,-1,3,-2,1
409008,346,-8279,-208,-1,3,-2,1
409013,345,-8281,-242,-1,1,-2,1
409018,352,-8281,-283,-1,0,-2,1
409023,354,-8281,-324,-1,0,-2,1
409028,359,-8283,-352,-1,-1,-2,1
409033,380,-8284,-369,-1,-1,-2,1
409038,381,-8283,-361,-1,-2,-2,1
409043,369,-8280,-337,-1,-2,-2,1
409048,362,-8281,-308,-1,-2,-2,1
409053,317,-8282,-269,-1,-2,-2,1
409058,252,-8282,-225,-1,-1,-2,1
409063,195,-8282,-187,-1,2,-2,1
409068,136,-8285,-138,0,4,-2,1
409073,91,-8289,-98,0,5,-2,1
409078,68,-8294,-76,0,6,-2,1
409083,50,-8293,-44,0,7,-2,1
409088,79,-8294,-19,0,8,-2,1
409093,126,-8293,7,0,8,-2,1
409098,167,-8292,35,-1,7,-2,1
409103,211,-8291,57,-1,5,-2,1
409108,245,-8290,70,-1,4,-2,1
409113,269,-8289,80,-1,3,-2,1
409118,288,-8286,71,-1,2,-2,1
409123,298,-8284,58,-1,2,-2,1
409128,304,-8284,47,-1,2,-2,1
409133,315,-8284,43,-1,2,-2,1
409138,319,-8284,41,-1,2,-2,1
409143,319,-8284,48,-1,3,-2,1
409148,328,-8284,59,-1,3,-2,1
409153,343,-8285,76,-1,3,-2,1
409158,348,-8286,96,-1,2,-2,1
409163,345,-8287,112,-1,1,-2,1
409168,335,-8286,123,-1,3,-2,1
409173,312,-8288,133,-1,4,-2,1
409178,296,-8289,138,-1,5,-2,1
409183,276,-8289,140,-1,5,-2,1
409188,255,-8288,144,-1,5,-2,1
409193,250,-8289,148,-1,5,-2,1
409198,249,-8288,154,-1,5,-2,1
409203,255,-8288,159,-1,4,-2,1
409208,268,-8287,159,-1,3,-2,1
409213,278,-8284,151,-1,4,-2,1
409218,301,-8283,140,-1,4,-2,1
409223,323,-8279,114,-1,4,-2,1
409228,342,-8279,83,-1,3,-2,1
409233,362,-8279,53,-1,2,-2,1
409238,384,-8283,28,-1,1,-2,1
409243,392,-8283,19,-1,0,-2,1
409248,389,-8279,16,-1,-1,-2,1
409253,366,-8277,18,-1,-1,-2,1
409258,338,-8277,33,-1,1,-2,1
409263,320,-8279,42,-1,2,-2,1
409268,301,-8277,45,-1,2,-2,1
409273,279,-8279,41,-1,2,-2,1
409278,267,-8283,35,-1,3,-2,1
409283,265,-8284,27,-1,3,-2,1
409288,263,-8283,20,-1,3,-2,1
409293,265,-8283,13,-1,1,-2,1
409298,268,-8281,17,-1,1,-2,1
409303,273,-8278,26,-1,0,-2,1
409308,281,-8275,29,-1,-1,-2,1
409313,283,-8274,27,-1,-2,-2,1
409318,283,-8278,16,-1,-2,-2,1
409322,290,-8280,-10,-1,-2,-2,1
409328,289,-8277,-37,-1,-2,-2,1
409333,289,-8276,-67,-1,-3,-2,1
409338,283,-8278,-84,-1,-3,-2,1
409343,266,-8278,-97,-1,-3,-2,1
409348,260,-8280,-106,-1,-2,-2,1
409353,263,-8279,-105,-1,-2,-2,1
409358,267,-8279,-106,-1,-2,-2,1
409363,262,-8279,-100,-1,-1,-2,1
409368,264,-8276,-100,-1,0,-2,1
409372,266,-8274,-101,-1,0,-2,1
409378,265,-8274,-99,-1,0,-2,1
409383,257,-8275,-97,-1,-1,-2,1
409388,236,-8275,-97,-1,0,-2,1
409392,222,-8278,-93,-1,1,-2,1
409398,207,-8281,-83,-1,1,-2,1
409402,192,-8282,-77,-1,2,-2,1
409408,188,-8282,-71,-1,3,-2,1
409412,196,-8280,-61,-1,4,-2,1
409417,204,-8281,-47,-1,4,-2,1
409422,212,-8281,-40,-1,4,-2,1
409427,222,-8282,-30,-1,4,-2,1
409432,226,-8283,-20,-1,4,-2,1
409437,223,-8284,-14,-1,4,-2,1
409442,221,-8282,2,-1,4,-2,1
409447,227,-8283,11,-1,5,-2,1
409452,237,-8285,17,-1,4,-2,1
409457,239,-8282,18,-1,3,-2,1
409462,246,-8280,18,-1,3,-2,1
409467,257,-8283,22,-1,3,-2,1
409472,267,-8283,25,-1,2,-2,1
409477,276,-8283,24,-1,2,-2,1
409482,280,-8284,24,-1,1,-2,1
409487,278,-8285,33,-1,1,-2,1
409492,270,-8287,40,-1,2,-2,1
409497,255,-8287,52,-1,2,-2,1
409502,246,-8287,65,-1,2,-2,1
409507,242,-8288,78,-1,3,-2,1
409512,236,-8290,93,-1,2,-2,1
409517,231,-8290,101,-1,2,-2,1
409522,229,-8290,100,-1,3,-2,1
409527,237,-8289,99,-1,3,-2,1
409532,244,-8289,95,-1,3,-2,1
409537,250,-8287,92,-1,2,-2,1
409542,248,-8286,87,-1,2,-2,1
409547,246,-8285,88,-1,1,-2,1
409552,245,-8286,93,-1,0,-2,1
409557,243,-8285,101,-1,0,-2,1
409562,245,-8283,102,-1,-1,-2,1
409567,255,-8282,101,-1,-1,-2,1
409572,262,-8280,95,-1,-2,-2,1
409577,271,-8281,80,-1,-2,-2,1
409582,282,-8284,61,-1,-2,-2,1
409587,293,-8284,38,-1,-2,-2,1
409592,297,-8284,12,-1,-2,-2,1
409597,297,-8285,-7,-1,-2,-2,1
409602,287,-8284,-19,-1,-2,-2,1
409607,277,-8286,-22,-1,-2,-2,1
409612,271,-8288,-12,-1,-1,-2,1
409617,258,-8291,6,-1,-1,-2,1
409622,246,-8291,29,-1,-2,-2,1
409627,232,-8291,52,-1,-2,-2,1
409632,222,-8290,79,-1,-1,-2,1
409637,213,-8292,106,-1,-1,-2,1
409642,210,-8292,114,-1,-2,-2,1
409647,203,-8294,118,-1,-3,-2,1
409652,202,-8292,117,-1,-4,-2,1
409657,201,-8290,110,-1,-4,-2,1
409662,198,-8291,99,-1,-5,-2,1
409667,201,-8291,95,-2,-5,-2,1
409672,206,-8288,87,-2,-6,-2,1
409677,205,-8287,74,-2,-7,-2,1
409682,205,-8286,66,-2,-6,-2,1
409687,209,-8286,58,-2,-6,-2,1
409692,219,-8286,47,-2,-6,-2,1
409697,222,-8288,35,-2,-6,-2,1
409702,222,-8289,25,-1,-7,-2,1
409707,224,-8291,11,-1,-7,-2,1
409712,229,-8290,-5,-1,-7,-2,1
409717,234,-8287,-22,-1,-7,-2,1
409722,240,-8286,-34,-1,-7,-2,1
409727,247,-8284,-44,-1,-6,-2,1
409732,255,-8284,-53,-1,-5,-2,1
409737,260,-8284,-66,-1,-5,-2,1
409742,260,-8286,-81,-1,-4,-2,1
409747,264,-8283,-93,-1,-4,-2,1
409752,271,-8283,-101,-1,-4,-2,1
409757,281,-8286,-103,-1,-3,-2,1
409762,288,-8289,-92,-1,-3,-2,1
409767,296,-8289,-77,-1,-3,-2,1
409772,299,-8287,-65,-1,-3,-2,1
409777,303,-8287,-56,-1,-3,-2,1
409782,301,-8288,-59,-1,-3,-2,1
409787,290,-8288,-62,-1,-3,-2,1
409792,279,-8288,-72,-1,-2,-2,1
409797,268,-8286,-83,-1,-2,-2,1
409802,255,-8285,-90,-1,-1,-2,1
409807,246,-8288,-94,-1,-1,-2,1
409812,241,-8292,-87,-1,0,-2,1
409817,243,-8290,-82,-1,1,-2,1
409822,248,-8289,-66,-1,2,-2,1
409827,258,-8292,-56,-1,2,-2,1
409832,271,-8289,-41,-1,2,-2,1
409837,287,-8291,-31,-1,2,-2,1
409842,304,-8290,-15,-1,1,-2,1
409847,320,-8289,-8,-1,0,-2,1
409852,324,-8288,1,-1,0,-2,1
409857,330,-8288,6,-1,0,-2,1
409862,332,-8288,6,-1,0,-2,1
409867,328,-8292,17,-1,0,-2,1
409872,318,-8297,32,-1,0,-2,1
409877,304,-8297,49,-1,0,-2,1
409882,293,-8295,63,-1,0,-2,1
409887,280,-8295,75,-1,0,-2,1
409892,268,-8294,88,-1,-1,-2,1
409897,253,-8291,92,-1,-1,-2,1
409902,242,-8292,94,-1,-1,-2,1
409907,246,-8292,89,-1,-2,-2,1
409912,250,-8292,77,-1,-2,-2,1
409917,252,-8292,64,-1,-3,-2,1
409922,255,-8290,50,-1,-3,-2,1
409927,260,-8289,38,-1,-3,-2,1
409932,259,-8289,32,-1,-2,-2,1
409937,257,-8290,29,-1,-2,-2,1
409942,253,-8292,33,-1,-2,-2,1
409947,252,-8294,31,-1,-2,-2,1
409952,249,-8294,33,-1,-2,-2,1
409957,248,-8296,27,-1,-1,-2,1
409962,253,-8294,23,-1,-1,-2,1
409967,264,-8292,18,-1,-2,-2,1
409972,273,-8293,10,-1,-2,-2,1
409977,277,-8296,2,-1,-3,-2,1
409982,280,-8296,-11,-1,-2,-2,1
409987,285,-8295,-25,-1,-2,-2,1
409992,284,-8296,-30,-1,-2,-2,1
409997,274,-8293,-36,-1,-3,-2,1
410002,266,-8291,-38,-1,-3,-2,1
410007,262,-8291,-44,-1,-2,-2,1
410012,258,-8292,-44,-1,-2,-2,1
410017,251,-8292,-42,-1,-2,-2,1
410022,255,-8293,-46,-1,-2,-2,1
410027,261,-8294,-52,-1,-2,-2,1
410032,262,-8293,-52,-1,-2,-2,1
410037,266,-8291,-50,-1,-2,-2,1
410042,278,-8288,-46,-1,-1,-2,1
410047,288,-8286,-36,-1,-2,-2,1
410052,296,-8287,-34,-1,-2,-2,1
410057,292,-8287,-31,-1,-2,-2,1
410062,289,-8288,-32,-1,-1,-2,1
410067,288,-8288,-35,-1,-1,-2,1
410072,285,-8290,-36,-1,-1,-2,1
410077,280,-8289,-33,-1,-1,-2,1
410082,273,-8287,-33,-1,-2,-2,1
410087,265,-8286,-32,-1,-2,-2,1
410092,259,-8287,-28,-1,-2,-2,1
410097,250,-8287,-27,-1,-2,-2,1
410102,239,-8286,-31,-1,-2,-2,1
410107,229,-8287,-32,-1,-2,-2,1
410112,221,-8287,-39,-1,-2,-2,1
410117,211,-8288,-44,-1,-2,-2,1
410122,203,-8288,-45,-1,-2,-2,1
410127,200,-8288,-45,-1,-2,-2,1
410132,201,-8286,-40,-1,-2,-2,1
410137,209,-8286,-36,-1,-1,-2,1
410142,215,-8286,-29,-1,-1,-2,1
410147,220,-8289,-32,-1,-1,-2,1
410152,234,-8289,-37,-1,0,-2,1
410157,244,-8290,-44,-1,0,-2,1
410162,250,-8288,-53,-1,0,-2,1
410167,259,-8285,-65,-1,0,-2,1
410172,270,-8284,-73,-1,0,-2,1
410177,282,-8284,-76,-1,0,-2,1
410182,285,-8283,-71,-1,0,-2,1
410187,281,-8284,-60,-1,0,-2,1
410192,274,-8284,-52,-1,0,-2,1
410197,264,-8285,-39,-1,0,-2,1
410202,247,-8284,-32,-1,0,-2,1
410207,231,-8284,-30,-1,1,-2,1
410212,214,-8284,-35,-1,2,-2,1
410217,212,-8283,-39,-1,3,-2,1
410222,216,-8285,-42,-1,3,-2,1
410227,225,-8288,-48,-1,2,-2,1
410232,239,-8289,-44,-1,2,-2,1
410237,247,-8287,-39,-1,2,-2,1
410242,253,-8285,-24,-1,1,-2,1
410247,254,-8286,-10,-1,1,-2,1
410252,248,-8286,3,-1,0,-2,1
410257,233,-8285,11,-1,-1,-2,1
410262,219,-8282,17,-1,-1,-2,1
410267,211,-8281,15,-1,-1,-2,1
410272,208,-8280,14,-1,-1,-2,1
410277,216,-8279,11,-1,-1,-2,1
410282,230,-8279,10,-1,-1,-2,1
410287,246,-8280,8,-1,-2,-2,1
410292,257,-8282,2,-1,-2,-2,1
410297,268,-8282,6,-1,-3,-2,1
410302,277,-8281,11,-1,-3,-2,1
410307,274,-8283,15,-1,-4,-2,1
410312,268,-8283,23,-1,-4,-2,1
410317,261,-8282,34,-1,-4,-2,1
410322,255,-8282,36,-1,-4,-2,1
410327,253,-8283,29,-1,-4,-2,1
410332,263,-8282,17,-1,-4,-2,1
410337,282,-8281,3,-1,-5,-2,1
410342,308,-8279,-16,-1,-7,-2,1
410347,336,-8280,-26,-1,-8,-2,1
410352,366,-8283,-38,-1,-10,-2,1
410357,387,-8283,-41,-1,-13,-2,1
410362,399,-8282,-39,-1,-15,-2,1
410367,396,-8282,-37,-1,-17,-2,1
410372,395,-8277,-26,-1,-19,-2,1
410377,365,-8278,-5,-1,-23,-2,1
410382,312,-8277,20,-1,-26,-2,1
410386,229,-8278,50,-1,-28,-3,1
410392,178,-8284,73,-1,-30,-3,1
410396,33,-8289,162,-1,-36,-3,1
410401,-96,-8288,171,-1,-34,-3,1
410407,-216,-8291,245,-1,-28,-3,1
410412,-240,-8287,263,-1,-27,-3,1
410417,-215,-8291,257,-1,-35,-2,1
410421,-277,-8295,274,-2,-36,-2,1
410427,-176,-8290,276,-2,-30,-3,1
410432,-102,-8289,346,-2,-22,-3,1
410437,11,-8283,395,-3,-23,-4,1
410442,45,-8281,463,-2,-27,-4,1
410446,14,-8280,505,-2,-30,-4,1
410451,4,-8281,446,-2,-30,-4,1
410456,-77,-8284,406,-2,-26,-4,1
410462,-46,-8286,277,-2,-24,-4,1
410466,-59,-8286,175,-2,-20,-4,1
410471,-9,-8287,109,-3,-20,-4,1
410476,66,-8284,45,-3,-19,-3,1
410482,112,-8280,63,-3,-18,-4,1
410486,210,-8279,57,-3,-19,-4,1
410491,251,-8277,54,-2,-18,-4,1
410496,308,-8274,34,-2,-20,-4,1
410501,327,-8275,-36,-2,-19,-4,1
410506,344,-8279,-126,-2,-19,-3,1
410511,365,-8279,-223,-2,-18,-3,1
410516,358,-8280,-300,-2,-18,-3,1
410521,386,-8281,-367,-2,-18,-3,1
410526,383,-8281,-383,-2,-16,-3,1
410531,418,-8279,-375,-2,-15,-3,1
410536,462,-8278,-369,-2,-14,-3,1
410541,498,-8276,-351,-1,-14,-2,1
410546,567,-8273,-364,-1,-16,-2,1
410551,617,-8272,-391,-1,-18,-2,1
410556,674,-8271,-424,-1,-22,-2,1
410561,712,-8271,-462,0,-26,-2,1
410566,749,-8270,-478,0,-30,-2,1
410571,781,-8268,-470,0,-34,-2,1
410576,825,-8268,-446,0,-39,-2,1
410581,898,-8268,-400,0,-47,-2,1
410586,974,-8268,-339,1,-57,-1,1
410591,1074,-8267,-297,1,-71,-1,1
410596,1132,-8265,-257,1,-84,-1,1
410601,1152,-8267,-209,2,-97,-2,1
410606,1170,-8269,-151,2,-109,-2,1
410611,1171,-8269,-59,2,-125,-2,1
410616,1184,-8268,66,2,-146,-2,1
410621,1183,-8270,220,2,-171,-2,1
410626,1164,-8272,394,2,-193,-2,1
410631,1103,-8276,577,2,-211,-2,1
410636,980,-8280,751,2,-221,-3,1
410641,838,-8286,910,2,-226,-3,1
410646,685,-8290,1062,2,-230,-4,1
410651,523,-8294,1156,2,-237,-3,1
410656,347,-8298,1210,2,-242,-3,1
410661,158,-8298,1213,2,-240,-3,1
410666,44,-8298,1148,1,-228,-3,1
410671,-36,-8303,1086,1,-215,-3,1
410676,-111,-8303,1030,0,-204,-3,1
410681,-155,-8304,974,-1,-193,-3,1
410686,-164,-8305,967,-1,-185,-3,1
410691,-110,-8302,964,-1,-184,-3,1
410696,-33,-8294,958,-1,-190,-3,1
410701,137,-8285,932,0,-200,-2,1
410706,323,-8280,866,0,-213,-2,1
410711,478,-8275,774,0,-228,-2,1
410716,646,-8272,648,0,-241,-3,1
410721,761,-8271,576,0,-255,-3,1
410726,855,-8269,491,0,-271,-3,1
410731,877,-8268,459,1,-286,-3,1
410736,889,-8264,438,1,-302,-2,1
410741,895,-8261,411,2,-318,-2,1
410746,895,-8256,420,3,-338,-2,1
410751,918,-8256,379,3,-359,-3,1
410756,910,-8256,362,4,-383,-3,1
410761,850,-8260,378,5,-411,-4,1
410766,687,-8266,381,5,-431,-4,1
410771,397,-8273,457,5,-439,-4,1
410776,-83,-8283,527,5,-426,-4,1
410781,-763,-8299,556,4,-370,-3,1
410786,-1380,-8319,591,3,-258,-1,1
410791,-1546,-8332,669,0,-128,1,1
410796,-1140,-8322,620,-2,-46,2,1
410801,-571,-8306,589,-2,-36,2,1
410806,-131,-8297,593,-2,-74,1,1
410811,137,-8292,606,-1,-118,0,1
410816,285,-8295,672,-1,-146,0,1
410821,378,-8295,800,-2,-162,0,1
410826,475,-8284,960,-2,-178,0,1
410831,625,-8272,1139,-1,-195,-1,1
410836,749,-8262,1320,0,-214,-1,1
410841,813,-8257,1399,1,-232,-2,1
410846,831,-8258,1397,2,-248,-3,1
410851,758,-8262,1333,2,-262,-3,1
410856,605,-8271,1232,2,-275,-4,1
410861,418,-8279,1129,2,-284,-4,1
410866,170,-8289,1084,1,-289,-4,1
410871,-65,-8296,1056,1,-289,-3,1
410876,-276,-8304,1054,1,-284,-3,1
410881,-470,-8306,1080,1,-272,-3,1
410886,-582,-8306,1066,1,-255,-3,1
410891,-629,-8304,1040,0,-232,-3,1
410896,-602,-8303,1007,0,-207,-2,1
410901,-506,-8305,947,0,-184,-2,1
410906,-392,-8303,888,-1,-167,-3,1
410911,-292,-8301,850,-1,-156,-3,1
410916,-198,-8301,817,-1,-152,-3,1
410921,-120,-8298,794,-1,-152,-3,1
410926,-48,-8298,802,-1,-157,-3,1
410931,77,-8296,840,-1,-165,-2,1
410936,219,-8294,861,-1,-176,-2,1
410941,392,-8285,857,-1,-189,-2,1
410946,623,-8277,851,0,-205,-2,1
410951,843,-8270,825,0,-229,-3,1
410956,1073,-8269,807,1,-259,-2,1
410961,1254,-8261,825,1,-296,-2,1
410966,1343,-8254,820,1,-328,-2,1
410971,1368,-8249,871,2,-357,-3,1
410976,1327,-8254,970,2,-378,-3,1
410981,1238,-8257,1046,3,-394,-3,1
410986,1119,-8260,1124,4,-406,-3,1
410991,968,-8262,1162,4,-414,-3,1
410996,813,-8265,1189,4,-420,-3,1
411001,641,-8268,1193,4,-423,-3,1
411006,491,-8274,1251,4,-423,-2,1
411011,368,-8279,1320,4,-418,-2,1
411016,270,-8280,1357,4,-410,-2,1
411021,185,-8278,1382,4,-398,-2,1
411026,105,-8278,1354,4,-381,-3,1
411031,38,-8281,1292,4,-364,-3,1
411036,-26,-8285,1216,4,-346,-3,1
411041,-65,-8290,1130,3,-331,-3,1
411046,-74,-8294,1060,3,-319,-2,1
411051,-45,-8296,1009,3,-310,-2,1
411056,22,-8291,971,2,-303,-2,1
411061,136,-8287,975,2,-299,-2,1
411066,273,-8280,1002,2,-298,-2,1
411071,413,-8278,1027,3,-299,-2,1
411076,552,-8276,1047,3,-304,-2,1
411081,662,-8278,1056,3,-311,-2,1
411086,750,-8276,1070,3,-321,-2,1
411091,820,-8274,1092,3,-331,-2,1
411096,863,-8273,1117,3,-341,-2,1
411101,902,-8272,1146,4,-350,-2,1
411106,946,-8270,1173,4,-357,-2,1
411111,984,-8267,1194,4,-363,-2,1
411116,1007,-8270,1207,4,-368,-2,1
411121,1007,-8273,1206,4,-371,-2,1
411126,968,-8271,1188,5,-372,-2,1
411131,912,-8270,1166,5,-371,-2,1
411136,842,-8268,1129,5,-367,-2,1
411141,756,-8267,1085,5,-360,-2,1
411146,685,-8270,1035,5,-352,-2,1
411151,585,-8270,970,5,-344,-2,1
411156,464,-8275,899,5,-335,-2,1
411161,339,-8282,811,5,-324,-2,1
411166,157,-8289,714,5,-311,-2,1
411171,-109,-8299,703,4,-293,-2,1
411176,-422,-8312,794,3,-265,-3,1
411181,-697,-8318,821,2,-229,-3,1
411186,-853,-8320,861,2,-197,-3,1
411191,-844,-8324,908,2,-176,-3,1
411196,-722,-8326,900,2,-166,-3,1
411201,-490,-8324,861,1,-164,-2,1
411206,-213,-8315,788,1,-169,-3,1
411211,69,-8309,698,1,-178,-3,1
411216,320,-8303,606,1,-187,-3,1
411221,514,-8294,525,1,-195,-3,1
411226,659,-8290,453,1,-201,-3,1
411231,753,-8284,395,1,-204,-3,1
411236,814,-8282,344,1,-206,-3,1
411241,851,-8281,315,1,-207,-3,1
411246,880,-8283,324,1,-210,-3,1
411251,899,-8283,355,1,-215,-3,1
411256,918,-8283,430,1,-223,-3,1
411261,1000,-8282,545,1,-234,-2,1
411266,1151,-8280,673,1,-251,-2,1
411271,1303,-8276,838,1,-274,-2,1
411276,1460,-8271,979,2,-303,-3,1
411281,1611,-8271,1078,3,-336,-4,1
411286,1622,-8262,1115,4,-369,-5,1
411291,1586,-8261,1111,5,-400,-5,1
411296,1479,-8265,1046,6,-424,-6,1
411301,1300,-8268,967,7,-435,-6,1
411306,1105,-8266,913,7,-434,-7,1
411311,845,-8274,862,7,-424,-7,1
411316,581,-8285,740,6,-412,-6,1
411321,285,-8288,631,6,-403,-5,1
411326,-5,-8286,511,6,-393,-4,1
411331,-199,-8289,394,5,-374,-4,1
411336,-311,-8288,303,5,-350,-4,1
411341,-330,-8289,223,4,-324,-4,1
411346,-311,-8291,163,4,-299,-4,1
411351,-244,-8292,169,3,-279,-4,1
411356,-128,-8291,191,3,-265,-4,1
411361,9,-8292,239,2,-257,-3,1
411366,187,-8285,297,3,-252,-3,1
411371,385,-8276,323,3,-247,-2,1
411376,582,-8271,332,3,-242,-2,1
411381,758,-8267,325,3,-239,-2,1
411386,896,-8261,285,3,-239,-3,1
411391,976,-8265,236,3,-243,-3,1
411396,1002,-8266,215,3,-250,-3,1
411401,959,-8271,218,3,-255,-2,1
411406,874,-8274,265,3,-258,-2,1
411411,786,-8272,336,3,-258,-2,1
411416,759,-8269,388,3,-257,-1,1
411421,747,-8266,469,3,-257,-1,1
411426,734,-8267,419,3,-253,-1,1
411431,774,-8272,362,3,-250,-1,1
411436,742,-8275,338,3,-246,-1,1
411441,627,-8278,245,3,-240,-2,1
411446,402,-8278,209,2,-225,-2,1
411451,177,-8284,180,2,-206,-2,1
411456,-50,-8288,167,2,-189,-2,1
411461,-226,-8288,152,2,-176,-1,1
411466,-287,-8290,63,3,-163,0,1
411471,-249,-8289,-28,3,-151,0,1
411476,-52,-8285,-134,3,-141,0,1
411481,167,-8284,-220,2,-136,0,1
411486,398,-8279,-225,2,-140,-1,1
411491,633,-8275,-199,1,-151,-1,1
411496,820,-8271,-116,2,-167,-1,1
411501,962,-8266,25,2,-189,-1,1
411506,1046,-8263,176,3,-213,-1,1
411511,1107,-8263,314,4,-237,-1,1
411516,1104,-8264,415,4,-258,-1,1
411521,1071,-8261,484,5,-273,-1,1
411526,1016,-8262,516,5,-283,-2,1
411531,950,-8265,513,5,-292,-2,1
411536,878,-8262,493,5,-302,-2,1
411541,780,-8263,455,5,-311,-2,1
411546,673,-8268,403,6,-319,-2,1
411551,523,-8274,415,5,-322,-2,1
411556,413,-8280,418,5,-321,-3,1
411561,318,-8281,469,5,-322,-3,1
411566,274,-8283,537,5,-326,-3,1
411571,338,-8286,631,6,-341,-4,1
411575,384,-8286,763,6,-361,-3,1
411581,430,-8286,859,6,-381,-4,1
411586,457,-8288,937,6,-396,-4,1
411590,459,-8291,1033,6,-405,-5,1
411595,421,-8292,1129,6,-409,-5,1
411600,291,-8292,1215,6,-405,-5,1
411605,129,-8293,1254,5,-392,-5,1
411611,-59,-8294,1241,5,-371,-5,1
411615,-228,-8294,1155,5,-343,-4,1
411620,-334,-8298,1004,5,-311,-4,1
411625,-398,-8301,859,4,-279,-3,1
411630,-400,-8302,690,4,-249,-3,1
411635,-377,-8302,547,3,-222,-3,1
411640,-364,-8302,453,2,-199,-3,1
411645,-372,-8298,374,2,-176,-2,1
411650,-400,-8305,343,1,-144,-2,1
411655,-480,-8308,342,0,-102,-1,1
411660,-449,-8301,348,-1,-68,-1,1
411665,-338,-8288,347,-1,-51,-2,1
411670,-246,-8286,345,0,-52,-2,1
411675,-120,-8285,391,1,-67,-3,1
411680,-69,-8294,440,1,-86,-3,1
411685,-75,-8298,510,1,-101,-2,1
411690,-63,-8299,636,0,-109,-2,1
411695,-9,-8293,725,0,-113,-2,1
411700,63,-8289,824,0,-118,-3,1
411705,139,-8289,959,0,-128,-3,1
411710,224,-8289,1053,1,-143,-3,1
411715,266,-8290,1133,1,-162,-4,1
411720,276,-8292,1201,1,-182,-4,1
411725,270,-8291,1212,1,-199,-4,1
411730,236,-8293,1188,1,-210,-4,1
411735,222,-8294,1132,1,-218,-5,1
411740,223,-8297,1021,1,-221,-4,1
411745,201,-8302,895,1,-220,-4,1
411750,179,-8303,772,0,-216,-4,1
411755,167,-8303,654,0,-209,-4,1
411760,131,-8305,553,0,-201,-4,1
411765,70,-8305,482,-1,-194,-5,1
411770,8,-8305,414,-1,-187,-5,1
411775,-85,-8307,371,-1,-180,-5,1
411780,-167,-8307,344,-1,-170,-5,1
411785,-209,-8304,310,-1,-160,-4,1
411790,-229,-8304,262,-1,-149,-4,1
411795,-198,-8302,194,0,-137,-4,1
411800,-99,-8300,94,0,-123,-4,1
411805,59,-8296,41,-1,-114,-3,1
411810,278,-8296,26,-1,-116,-4,1
411815,516,-8292,47,-1,-128,-4,1
411820,745,-8286,137,-1,-146,-3,1
411825,962,-8283,265,-1,-166,-3,1
411830,1150,-8282,430,-1,-185,-3,1
411835,1292,-8280,584,-1,-203,-2,1
411840,1413,-8278,738,-1,-220,-2,1
411845,1509,-8273,879,-1,-238,-2,1
411850,1589,-8271,1009,-1,-257,-2,1
411855,1640,-8268,1137,-1,-275,-2,1
411860,1659,-8263,1255,0,-292,-2,1
411865,1639,-8261,1356,0,-307,-2,1
411870,1553,-8258,1420,0,-317,-2,1
411875,1401,-8260,1456,0,-324,-3,1
411880,1194,-8267,1457,0,-325,-3,1
411885,948,-8272,1415,0,-323,-3,1
411890,655,-8279,1370,0,-316,-2,1
411895,378,-8282,1301,1,-307,-2,1
411900,144,-8283,1216,1,-295,-2,1
411905,-45,-8288,1131,1,-283,-2,1
411910,-181,-8292,1048,1,-271,-2,1
411915,-265,-8293,951,0,-259,-2,1
411920,-285,-8297,855,0,-251,-2,1
411925,-257,-8298,773,0,-247,-2,1
411930,-177,-8297,706,0,-249,-2,1
411935,-44,-8292,665,-1,-255,-2,1
411940,125,-8291,652,0,-266,-2,1
411945,320,-8283,690,0,-281,-2,1
411950,527,-8278,748,0,-300,-2,1
411955,729,-8273,836,0,-321,-2,1
411960,913,-8269,945,1,-343,-2,1
411965,1044,-8268,1060,1,-364,-2,1
411970,1125,-8267,1173,1,-384,-2,1
411975,1149,-8267,1267,2,-402,-2,1
411980,1100,-8266,1334,2,-415,-2,1
411985,991,-8269,1366,3,-424,-2,1
411990,802,-8270,1352,3,-426,-2,1
411995,545,-8273,1297,3,-422,-2,1
412000,267,-8280,1209,3,-412,-2,1
412005,4,-8280,1110,3,-398,-2,1
412010,-213,-8281,998,4,-383,-2,1
412015,-364,-8287,911,4,-371,-2,1
412020,-446,-8288,832,4,-363,-2,1
412025,-465,-8293,762,4,-361,-2,1
412030,-432,-8297,726,4,-364,-2,1
412035,-351,-8302,694,4,-372,-2,1
412040,-248,-8305,689,4,-382,-2,1
412045,-138,-8305,712,4,-394,-2,1
412050,-56,-8303,757,4,-403,-3,1
412055,-7,-8303,816,5,-410,-3,1
412060,5,-8301,880,5,-414,-3,1
412065,-42,-8301,952,5,-412,-4,1
412070,-161,-8302,1007,5,-405,-4,1
412075,-279,-8302,1013,5,-389,-3,1
412080,-400,-8302,990,5,-363,-3,1
412085,-480,-8303,909,5,-333,-3,1
412090,-524,-8305,794,4,-302,-3,1
412095,-532,-8307,679,4,-272,-3,1
412100,-516,-8310,549,3,-244,-3,1
412105,-478,-8308,421,3,-219,-3,1
412110,-423,-8312,309,2,-197,-3,1
412115,-365,-8314,224,2,-178,-3,1
412120,-296,-8313,160,2,-162,-3,1
412125,-219,-8312,112,1,-146,-3,1
412130,-147,-8309,85,1,-133,-3,1
412135,-72,-8307,67,1,-122,-3,1
412140,0,-8304,53,1,-113,-3,1
412145,63,-8301,46,1,-105,-3,1
412150,126,-8299,49,1,-98,-2,1
412155,179,-8298,63,0,-92,-3,1
412160,222,-8295,84,0,-87,-3,1
412165,205,-8284,78,0,-81,-3,1
412170,-1,-8279,-79,1,-65,-3,1
412175,-153,-8287,-183,1,-44,-4,1
412180,-216,-8313,-232,1,-37,-4,1
412185,-400,-8320,-306,0,-34,-4,1
412190,-434,-8330,-237,-1,-38,-4,1
412195,-356,-8330,-11,-1,-43,-3,1
412200,-117,-8319,264,-2,-55,-3,1
412205,251,-8305,594,-1,-71,-3,1
412210,618,-8282,848,-1,-93,-3,1
412215,986,-8262,1014,0,-119,-4,1
412220,1273,-8251,1152,1,-145,-5,1
412225,1458,-8252,1202,2,-167,-5,1
412230,1499,-8252,1168,2,-180,-5,1
412235,1419,-8254,1077,2,-180,-4,1
412240,1316,-8263,965,2,-169,-4,1
412245,1183,-8269,810,1,-152,-3,1
412250,1058,-8277,657,1,-142,-3,1
412255,945,-8287,515,0,-139,-3,1
412260,827,-8293,404,0,-140,-3,1
412265,824,-8296,336,-1,-147,-2,1
412270,848,-8291,341,0,-159,-2,1
412275,919,-8279,386,0,-172,-2,1
412280,1068,-8272,458,1,-187,-2,1
412285,1195,-8264,554,1,-202,-3,1
412290,1327,-8261,659,1,-221,-3,1
412295,1377,-8260,804,1,-244,-4,1
412300,1367,-8262,930,2,-268,-4,1
412305,1295,-8263,1036,2,-289,-4,1
412310,1197,-8265,1100,3,-303,-3,1
412315,1094,-8266,1075,3,-308,-3,1
412320,1032,-8265,942,4,-305,-3,1
412325,1011,-8266,692,4,-299,-3,1
412330,962,-8267,360,4,-290,-3,1
412335,849,-8270,57,4,-279,-3,1
412340,702,-8277,-184,4,-269,-4,1
412345,518,-8288,-376,3,-260,-4,1
412350,316,-8295,-422,3,-252,-3,1
412355,165,-8300,-359,2,-242,-3,1
412360,94,-8296,-237,2,-231,-2,1
412365,148,-8294,-70,3,-224,-2,1
412370,292,-8287,85,3,-222,-2,1
412375,551,-8284,259,4,-228,-3,1
412380,725,-8275,383,4,-238,-4,1
412385,833,-8276,442,4,-255,-4,1
412390,940,-8275,508,4,-272,-4,1
412395,925,-8271,525,4,-285,-4,1
412400,978,-8273,561,4,-298,-4,1
412405,972,-8269,612,5,-305,-4,1
412410,967,-8266,645,5,-313,-4,1
412415,987,-8266,701,5,-320,-4,1
412420,993,-8271,706,5,-327,-4,1
412425,1033,-8279,710,5,-337,-4,1
412430,1042,-8279,694,5,-345,-4,1
412435,1074,-8282,672,5,-353,-4,1
412440,1118,-8280,679,5,-362,-4,1
412445,1120,-8276,709,5,-369,-4,1
412450,1145,-8276,729,6,-374,-4,1
412455,1112,-8273,759,6,-375,-4,1
412460,1054,-8273,773,6,-374,-4,1
412465,953,-8275,758,6,-368,-4,1
412470,795,-8277,755,6,-358,-4,1
412475,625,-8283,698,6,-346,-4,1
412480,437,-8287,640,6,-333,-4,1
412485,261,-8291,607,5,-321,-4,1
412490,134,-8297,575,5,-313,-3,1
412495,76,-8300,589,5,-307,-3,1
412500,82,-8297,612,4,-302,-3,1
412505,135,-8295,637,4,-300,-3,1
412510,212,-8296,664,4,-302,-4,1
412515,295,-8296,704,4,-307,-5,1
412520,363,-8293,754,4,-317,-5,1
412525,418,-8292,787,5,-331,-5,1
412530,469,-8291,809,5,-348,-5,1
412535,537,-8289,824,6,-369,-5,1
412540,601,-8289,822,6,-389,-6,1
412545,638,-8289,824,6,-407,-6,1
412550,641,-8286,843,6,-418,-6,1
412555,584,-8288,879,6,-422,-7,1
412560,477,-8297,926,6,-419,-7,1
412565,340,-8304,1012,5,-414,-7,1
412570,162,-8309,1101,5,-407,-7,1
412575,15,-8311,1184,5,-402,-7,1
412580,-42,-8308,1286,5,-401,-7,1
412585,-4,-8310,1325,5,-406,-7,1
412590,87,-8315,1348,5,-419,-6,1
412595,258,-8315,1322,5,-433,-7,1
412600,370,-8311,1296,4,-447,-7,1
412605,388,-8304,1293,3,-447,-8,1
412610,349,-8303,1225,3,-432,-8,1
412615,204,-8300,1150,3,-404,-7,1
412620,33,-8298,1026,3,-367,-7,1
412625,-144,-8298,821,3,-326,-6,1
412630,-278,-8303,588,3,-288,-5,1
412635,-327,-8307,347,2,-256,-4,1
412640,-330,-8309,122,2,-234,-4,1
412644,-282,-8308,-49,1,-220,-4,1
412650,-251,-8296,-132,1,-207,-4,1
412655,-214,-8292,-179,0,-195,-4,1
412660,-103,-8286,-159,0,-186,-4,1
412664,-86,-8282,-110,1,-175,-4,1
412670,-33,-8281,-80,1,-166,-4,1
412675,15,-8281,-43,1,-155,-3,1
412680,64,-8281,-36,1,-147,-3,1
412685,164,-8284,-46,1,-142,-3,1
412690,268,-8284,-45,1,-143,-3,1
412695,390,-8285,-19,1,-149,-3,1
412699,490,-8283,-7,1,-160,-3,1
412704,580,-8284,66,1,-172,-3,1
412709,700,-8280,152,1,-185,-3,1
412714,804,-8276,254,1,-204,-3,1
412719,903,-8276,382,1,-225,-4,1
412724,1004,-8279,516,1,-247,-4,1
412729,1080,-8281,656,1,-269,-4,1
412734,1159,-8277,803,1,-292,-4,1
412739,1223,-8276,962,1,-314,-4,1
412744,1290,-8277,1130,1,-341,-5,1
412749,1354,-8274,1287,1,-368,-5,1
412754,1365,-8273,1455,2,-395,-5,1
412759,1329,-8272,1561,2,-417,-6,1
412764,1278,-8275,1615,2,-431,-6,1
412769,1179,-8279,1641,2,-440,-6,1
412774,1057,-8278,1565,3,-444,-5,1
412779,866,-8274,1404,3,-438,-5,1
412784,589,-8272,1168,3,-419,-4,1
412789,298,-8273,854,3,-387,-4,1
412794,-9,-8274,542,3,-343,-4,1
412799,-278,-8279,257,3,-292,-4,1
412804,-498,-8287,50,3,-237,-4,1
412809,-712,-8295,-165,2,-186,-4,1
412814,-844,-8305,-309,1,-148,-3,1
412819,-957,-8312,-381,0,-123,-2,1
412824,-951,-8312,-411,-1,-110,-1,1
412829,-854,-8310,-345,-1,-100,0,1
412834,-671,-8305,-247,-1,-90,0,1
412839,-436,-8302,-109,-1,-81,-1,1
412844,-179,-8299,83,-1,-78,-2,1
412849,95,-8296,273,-1,-85,-2,1
412854,364,-8299,429,-1,-102,-2,1
412859,625,-8294,538,-1,-130,-2,1
412864,758,-8287,724,-1,-160,-2,1
412869,811,-8279,803,0,-184,-2,1
412874,774,-8274,782,0,-195,-2,1
412879,696,-8274,724,1,-196,-3,1
412884,598,-8275,597,1,-190,-3,1
412889,473,-8280,459,1,-183,-2,1
412894,349,-8286,343,0,-177,-2,1
412899,278,-8285,247,0,-168,-1,1
412904,232,-8270,152,0,-164,-2,1
412909,131,-8266,-123,2,-162,-2,1
412914,-13,-8287,-213,3,-132,0,1
412919,-31,-8300,-160,1,-86,1,1
412924,171,-8308,-219,-1,-60,1,1
412929,490,-8308,-107,-2,-64,0,1
412934,771,-8312,119,-3,-87,0,1
412939,956,-8307,355,-4,-118,-1,1
412944,1083,-8296,607,-4,-151,-1,1
412949,1068,-8285,874,-3,-177,-1,1
412954,936,-8277,1146,-2,-196,-1,1
412959,819,-8268,1272,0,-204,-1,1
412964,642,-8267,1289,1,-203,-2,1
412969,443,-8270,1163,1,-202,-2,1
412974,220,-8277,921,2,-196,-3,1
412979,31,-8285,716,2,-185,-3,1
412984,-71,-8286,545,1,-178,-3,1
412989,-147,-8288,378,1,-176,-3,1
412994,-169,-8293,275,0,-184,-2,1
412999,-104,-8296,208,0,-201,-1,1
413004,70,-8294,169,0,-224,-1,1
413009,314,-8286,190,0,-249,-1,1
413014,579,-8280,261,1,-273,-1,1
413019,848,-8279,333,1,-296,-2,1
413024,1071,-8274,409,2,-319,-2,1
413029,1221,-8273,503,2,-342,-3,1
413034,1275,-8271,586,2,-364,-3,1
413039,1197,-8277,663,3,-384,-4,1
413044,1007,-8278,743,3,-399,-4,1
413049,772,-8280,801,3,-408,-4,1
413054,463,-8280,876,4,-412,-4,1
413059,175,-8286,932,4,-412,-4,1
413064,-113,-8292,963,4,-407,-3,1
413069,-305,-8289,954,5,-399,-3,1
413074,-382,-8285,898,5,-390,-2,1
413079,-378,-8283,837,5,-382,-3,1
413084,-309,-8286,775,4,-378,-3,1
413089,-223,-8290,721,4,-377,-3,1
413094,-130,-8292,708,4,-379,-3,1
413099,-43,-8291,735,4,-386,-4,1
413104,45,-8288,811,4,-396,-4,1
413109,72,-8288,923,4,-410,-4,1
413114,87,-8288,1092,4,-426,-4,1
413119,75,-8284,1268,4,-439,-4,1
413124,85,-8282,1416,5,-451,-4,1
413129,117,-8282,1541,5,-461,-4,1
413134,152,-8280,1627,5,-468,-4,1
413139,189,-8280,1671,5,-473,-4,1
413144,203,-8285,1695,5,-477,-4,1
413149,186,-8288,1682,5,-478,-5,1
413154,129,-8290,1641,5,-474,-4,1
413159,57,-8290,1594,5,-465,-4,1
413164,-13,-8285,1473,5,-448,-3,1
413169,-58,-8281,1319,5,-423,-2,1
413174,-80,-8281,1127,5,-387,-2,1
413179,-116,-8282,870,5,-347,-2,1
413184,-179,-8287,631,4,-305,-2,1
413189,-287,-8297,412,3,-261,-2,1
413194,-425,-8303,218,2,-215,-3,1
413199,-570,-8311,72,1,-170,-2,1
413204,-680,-8319,-26,0,-127,-2,1
413209,-744,-8323,-53,0,-89,-1,1
413214,-696,-8321,-22,-1,-59,-1,1
413219,-542,-8317,65,-1,-39,0,1
413224,-302,-8307,198,-2,-27,0,1
413229,-10,-8298,361,-2,-23,0,1
413234,268,-8287,538,-2,-24,0,1
413239,434,-8288,676,-2,-29,-1,1
413244,463,-8287,811,-2,-40,-2,1
413249,440,-8301,963,-2,-60,-3,1
413254,258,-8306,1065,-2,-77,-2,1
413259,103,-8306,1176,-2,-89,-1,1
413264,52,-8305,1254,-2,-96,0,1
413269,120,-8295,1228,-2,-101,0,1
413274,311,-8285,1159,-1,-107,-1,1
413279,523,-8278,1042,-1,-114,-1,1
413284,721,-8273,850,-1,-124,-2,1
413289,852,-8272,661,-1,-132,-2,1
413294,871,-8273,473,-1,-138,-2,1
413299,809,-8276,289,-1,-141,-2,1
413304,696,-8282,177,-1,-140,-2,1
413309,571,-8284,150,-1,-136,-1,1
413314,469,-8286,173,-1,-129,-1,1
413319,420,-8288,156,-1,-121,-1,1
413324,428,-8290,165,-1,-116,-1,1
413329,459,-8290,171,-1,-115,-1,1
413334,472,-8287,152,-1,-116,-1,1
413339,477,-8284,156,-1,-118,-1,1
413344,464,-8281,157,0,-116,-1,1
413349,449,-8279,163,0,-114,-1,1
413354,461,-8280,184,0,-111,-1,1
413359,489,-8279,207,0,-112,-1,1
413364,542,-8279,254,0,-116,-1,1
413369,589,-8277,318,0,-122,-1,1
413374,623,-8273,387,0,-129,-1,1
413379,632,-8267,459,0,-134,-1,1
413384,612,-8262,499,0,-137,-2,1
413389,579,-8262,500,1,-138,-2,1
413394,537,-8263,445,1,-137,-1,1
413399,475,-8267,344,1,-134,-1,1
413404,391,-8272,225,1,-129,-2,1
413409,307,-8280,100,1,-122,-2,1
413414,216,-8286,2,1,-113,-2,1
413419,141,-8293,-31,0,-104,-2,1
413424,104,-8296,-1,0,-97,-2,1
413429,97,-8296,86,0,-92,-1,1
413434,118,-8294,196,0,-89,-1,1
413439,158,-8289,292,0,-87,-2,1
413444,194,-8287,344,0,-83,-2,1
413449,221,-8285,341,1,-77,-2,1
413454,232,-8287,292,1,-70,-2,1
413459,218,-8293,217,0,-62,-2,1
413464,170,-8297,144,0,-54,-2,1
413469,101,-8301,91,-1,-44,-2,1
413474,30,-8304,87,-1,-35,-2,1
413479,-28,-8305,133,-2,-27,-2,1
413484,-58,-8307,212,-2,-21,-2,1
413489,-59,-8309,307,-2,-18,-2,1
413494,-20,-8309,397,-2,-16,-2,1
413499,46,-8305,466,-2,-16,-2,1
413504,129,-8300,502,-2,-16,-2,1
413509,213,-8295,504,-2,-16,-3,1
413514,284,-8294,476,-2,-17,-3,1
413519,329,-8293,440,-2,-16,-3,1
413524,355,-8291,397,-2,-16,-3,1
413529,359,-8290,364,-2,-15,-3,1
413534,352,-8290,352,-2,-14,-3,1
413539,353,-8291,353,-2,-13,-3,1
413544,362,-8291,361,-2,-14,-3,1
413549,383,-8289,371,-2,-14,-3,1
413554,421,-8287,369,-2,-14,-3,1
413559,479,-8284,366,-2,-13,-3,1
413564,546,-8283,360,-2,-13,-3,1
413569,608,-8282,345,-2,-13,-3,1
413574,652,-8280,326,-2,-13,-3,1
413579,680,-8279,316,-2,-12,-3,1
413584,691,-8279,308,-2,-11,-3,1
413589,687,-8281,307,-2,-11,-3,1
413594,666,-8283,293,-2,-11,-3,1
413599,655,-8285,280,-2,-11,-3,1
413604,649,-8282,260,-2,-11,-2,1
413609,660,-8279,239,-2,-11,-2,1
413614,689,-8278,216,-2,-12,-2,1
413619,720,-8281,179,-2,-12,-2,1
413624,755,-8280,143,-2,-13,-2,1
413629,774,-8281,103,-2,-14,-3,1
413634,772,-8282,69,-2,-14,-3,1
413639,754,-8284,40,-2,-14,-3,1
413644,716,-8285,21,-2,-13,-2,1
413649,674,-8282,10,-2,-12,-2,1
413654,631,-8286,9,-2,-11,-2,1
413659,593,-8288,18,-2,-11,-2,1
413664,561,-8291,35,-2,-10,-2,1
413668,545,-8294,52,-2,-8,-2,1
413673,543,-8293,66,-2,-7,-2,1
413678,553,-8291,78,-1,-6,-2,1
413683,568,-8289,83,-1,-5,-2,1
413688,580,-8286,90,-1,-5,-2,1
413693,590,-8286,97,-1,-4,-2,1
413699,597,-8288,104,-1,-4,-2,1
413704,598,-8290,113,-1,-4,-3,1
413709,587,-8291,130,-1,-4,-3,1
413714,574,-8292,134,-1,-4,-2,1
413719,560,-8293,132,-1,-3,-3,1
413724,545,-8293,124,-1,-3,-2,1
413729,531,-8292,118,-1,-2,-3,1
413734,521,-8292,111,-1,-2,-2,1
413739,511,-8292,112,-1,-2,-2,1
413744,508,-8293,117,-1,-1,-3,1
413748,515,-8292,125,-1,-1,-3,1
413753,524,-8291,137,-1,-1,-2,1
413758,542,-8291,153,-1,-1,-3,1
413764,565,-8290,173,-1,-1,-3,1
413768,583,-8287,184,-1,-2,-3,1
413773,596,-8285,192,-1,-2,-3,1
413778,613,-8283,190,-1,-2,-3,1
413783,621,-8282,181,-1,-2,-3,1
413788,624,-8281,173,-1,-2,-3,1
413793,632,-8283,164,-1,-2,-3,1
413798,637,-8283,162,-1,-1,-3,1
413803,633,-8284,161,-1,-1,-3,1
413808,637,-8285,161,-1,-1,-3,1
413813,634,-8285,165,-1,-1,-3,1
413818,629,-8286,176,-1,-1,-3,1
413823,628,-8286,191,-1,-1,-3,1
413828,625,-8284,209,-1,-1,-3,1
413833,627,-8282,220,-1,0,-3,1
413838,631,-8283,229,-1,0,-3,1
413843,642,-8283,239,-1,0,-3,1
413848,654,-8286,247,-1,0,-3,1
413853,674,-8288,247,-1,0,-3,1
413858,695,-8286,246,-1,0,-3,1
413863,710,-8286,239,-1,0,-3,1
413868,718,-8287,230,-1,-1,-3,1
413873,713,-8286,224,-1,-1,-3,1
413878,705,-8287,220,-1,-2,-3,1
413883,700,-8285,223,-1,-2,-3,1
413888,697,-8284,228,-1,-2,-3,1
413893,695,-8282,228,-1,-2,-2,1
413898,699,-8284,237,-1,-2,-2,1
413903,707,-8283,247,-1,-2,-2,1
413908,710,-8282,255,-1,-2,-2,1
413913,715,-8282,266,-1,-2,-2,1
413918,716,-8282,267,-1,-2,-2,1
413923,724,-8283,271,-1,-2,-2,1
413928,736,-8282,270,-1,-2,-2,1
413933,749,-8283,266,-1,-2,-2,1
413938,765,-8282,265,-1,-2,-2,1
413943,781,-8283,260,-1,-2,-2,1
413948,794,-8283,247,-1,-2,-2,1
413953,803,-8285,234,-1,-2,-2,1
413958,807,-8285,226,-1,-1,-2,1
413963,804,-8286,223,-1,-1,-2,1
413968,793,-8286,225,-1,-1,-2,1
413973,777,-8287,230,-1,-1,-2,1
413978,758,-8289,230,-1,-1,-2,1
413983,733,-8290,242,-1,-1,-2,1
413988,711,-8290,247,-1,-1,-2,1
413993,695,-8290,249,-1,-1,-2,1
413998,692,-8288,257,-1,-1,-2,1
414003,694,-8287,267,-1,-1,-2,1
414008,703,-8286,279,-1,-1,-2,1
414013,711,-8286,291,-1,-1,-2,1
414018,710,-8287,305,-1,-1,-2,1
414023,703,-8286,313,-1,-1,-2,1
414028,691,-8287,313,-1,-1,-2,1
414033,677,-8289,304,-1,-1,-2,1
414038,667,-8287,288,-1,-1,-2,1
414043,668,-8285,277,-1,-1,-2,1
414048,674,-8284,271,-1,-1,-2,1
414053,683,-8284,274,-1,0,-2,1
414058,691,-8282,286,-1,0,-2,1
414063,694,-8282,300,-1,0,-2,1
414068,689,-8280,316,-1,0,-2,1
414073,679,-8278,326,-1,0,-2,1
414078,669,-8278,328,-1,0,-2,1
414083,662,-8278,320,-1,-1,-2,1
414088,657,-8279,313,-1,-1,-2,1
414093,655,-8281,304,-1,-1,-2,1
414098,654,-8283,297,-1,-1,-2,1
414103,655,-8284,286,-1,-1,-2,1
414108,657,-8284,280,-1,-1,-2,1
414113,659,-8282,279,-1,-1,-2,1
414118,658,-8281,269,-1,-1,-2,1
414123,659,-8283,270,-1,-2,-2,1
414128,658,-8286,275,-1,-2,-2,1
414133,660,-8287,274,-1,-2,-2,1
414138,667,-8290,270,-1,-1,-2,1
414143,676,-8287,268,-1,-1,-2,1
414148,684,-8286,266,-1,-1,-2,1
414153,692,-8286,261,-1,-1,-2,1
414158,689,-8284,258,-1,-1,-2,1
414163,681,-8284,251,-1,-1,-2,1
414168,669,-8286,248,-1,0,-2,1
414173,652,-8283,247,-1,0,-2,1
414178,640,-8281,239,-1,0,-2,1
414183,636,-8280,231,-1,0,-2,1
414188,635,-8285,221,-1,1,-2,1
414193,641,-8286,213,-1,1,-2,1
414198,649,-8287,200,-1,1,-2,1
414203,657,-8286,190,-1,2,-2,1
414208,665,-8288,184,-1,2,-2,1
414213,674,-8289,184,-1,3,-2,1
414218,682,-8287,179,-1,4,-2,1
414223,687,-8287,179,-1,4,-2,1
414228,688,-8285,183,-1,4,-2,1
414233,681,-8284,189,-1,4,-2,1
414238,676,-8285,197,-1,4,-2,1
414243,672,-8287,203,-1,3,-1,1
414248,671,-8287,212,-1,3,-1,1
414253,673,-8285,224,-1,3,-2,1
414258,682,-8285,232,-1,4,-1,1
414263,691,-8281,235,-1,4,-1,1
414268,700,-8284,235,-1,4,-1,1
414273,701,-8286,236,-1,4,-1,1
414278,702,-8286,240,-1,4,-2,1
414283,698,-8284,239,-1,3,-2,1
414288,686,-8286,232,-1,3,-2,1
414293,671,-8285,221,-1,2,-2,1
414298,656,-8282,210,-1,1,-1,1
414303,641,-8284,207,-1,1,-1,1
414308,635,-8285,204,-1,0,-1,1
414313,631,-8285,204,-1,0,-1,1
414318,630,-8285,208,-1,0,-1,1
414323,635,-8283,213,-1,0,-2,1
414328,639,-8281,230,-1,0,-2,1
414333,639,-8281,244,-1,0,-2,1
414338,636,-8281,252,-1,0,-2,1
414343,629,-8285,264,-1,0,-2,1
414348,619,-8285,270,-1,-1,-2,1
414353,610,-8287,282,-1,-1,-2,1
414358,603,-8289,287,-1,-1,-2,1
414363,597,-8291,289,-1,-1,-2,1
414368,594,-8294,295,-1,-1,-2,1
414373,593,-8293,294,-1,-1,-2,1
414378,595,-8291,294,-1,-1,-2,1
414383,594,-8293,293,-1,-1,-2,1
414388,592,-8296,287,-1,-1,-2,1
414393,589,-8297,284,-1,-1,-2,1
414398,580,-8295,282,-1,-1,-2,1
414403,570,-8295,285,-1,-1,-2,1
414408,559,-8294,286,-1,-2,-2,1
414413,551,-8295,281,-1,-2,-2,1
414418,550,-8296,276,-1,-2,-2,1
414423,554,-8298,273,-1,-2,-2,1
414428,564,-8297,269,-1,-2,-2,1
414433,579,-8295,266,-1,-2,-2,1
414438,597,-8294,261,-1,-1,-2,1
414443,615,-8295,262,-1,-1,-2,1
414448,629,-8296,268,-1,-1,-2,1
414453,635,-8295,260,-1,-1,-2,1
414458,636,-8294,251,-1,-1,-2,1
414463,629,-8294,243,-1,-1,-2,1
414468,622,-8294,227,-1,-1,-2,1
414473,616,-8293,215,-1,-1,-2,1
414478,614,-8290,203,-1,-1,-2,1
414483,618,-8288,191,-1,-1,-2,1
414488,624,-8288,182,-1,-1,-2,1
414493,630,-8285,183,-1,-2,-2,1
414498,638,-8287,187,-1,-2,-2,1
414503,648,-8287,200,-1,-2,-2,1
414508,662,-8289,208,-1,-2,-2,1
414513,677,-8288,215,-1,-2,-2,1
414518,685,-8285,222,-1,-2,-2,1
414523,683,-8283,221,-1,-2,-2,1
414528,679,-8283,219,-1,-2,-2,1
414533,671,-8285,214,-1,-2,-2,1
414538,658,-8286,216,-1,-2,-2,1
414543,647,-8287,215,-1,-1,-2,1
414548,642,-8288,219,-1,-1,-2,1
414553,639,-8290,230,-1,-1,-2,1
414558,639,-8292,236,-1,-1,-2,1
414563,635,-8291,243,-1,-1,-2,1
414568,635,-8291,253,-1,-1,-2,1
414573,634,-8292,257,-1,-1,-2,1
414578,626,-8293,263,-1,-1,-2,1
414583,620,-8294,262,-1,-1,-2,1
414588,616,-8292,262,-1,-1,-2,1
414593,615,-8291,263,-1,0,-2,1
414598,615,-8292,257,-1,0,-2,1
414603,619,-8292,256,-1,0,-2,1
414608,624,-8289,253,-1,0,-2,1
414613,633,-8290,246,-1,0,-2,1
414618,641,-8292,239,-1,0,-2,1
414623,643,-8292,234,-1,0,-2,1
414628,640,-8292,232,-1,0,-2,1
414633,632,-8296,234,-1,0,-2,1
414638,625,-8297,238,-1,0,-2,1
414643,621,-8296,242,-1,0,-2,1
414648,620,-8292,245,-1,-1,-2,1
414653,618,-8291,240,-1,-1,-2,1
414658,621,-8290,243,-1,-1,-2,1
414663,626,-8290,242,-1,-1,-2,1
414668,631,-8289,233,-1,-1,-2,1
414673,632,-8287,233,-1,-1,-2,1
414678,629,-8287,230,-1,-2,-2,1
414683,624,-8284,228,-1,-2,-2,1
414688,617,-8283,223,-1,-2,-2,1
414693,610,-8281,216,-1,-1,-2,1
414698,609,-8280,208,-1,-2,-2,1
414703,609,-8282,207,-1,-2,-2,1
414708,613,-8285,204,-1,-2,-2,1
414712,617,-8285,197,-1,-2,-2,1
414718,622,-8288,198,-1,-2,-2,1
414723,624,-8290,205,-1,-2,-2,1
414727,620,-8291,210,-1,-2,-2,1
414733,614,-8292,216,-1,-2,-2,1
414737,607,-8293,224,-1,-1,-2,1
414743,601,-8290,231,-1,-1,-2,1
414747,595,-8289,241,-1,-1,-2,1
414753,591,-8291,246,-1,-1,-2,1
414758,599,-8291,244,-1,-1,-2,1
414763,607,-8292,237,-1,-1,-2,1
414767,615,-8294,229,-1,-1,-2,1
414773,622,-8296,224,-1,-1,-2,1
414778,628,-8295,225,-1,-1,-2,1
414782,631,-8296,231,-1,-1,-2,1
414788,626,-8295,239,-1,-1,-2,1
414793,619,-8294,246,-1,-2,-2,1
414798,609,-8296,248,-1,-2,-2,1
414803,599,-8297,246,-1,-2,-2,1
414808,588,-8297,235,-1,-2,-2,1
414812,583,-8297,225,-1,-2,-2,1
414818,581,-8293,216,-1,-2,-2,1
414823,582,-8290,212,-1,-1,-2,1
414827,589,-8290,211,-1,-1,-2,1
414833,600,-8290,212,-1,-1,-2,1
414837,606,-8286,222,-1,-1,-2,1
414843,608,-8282,224,-1,-1,-2,1
414848,612,-8284,227,-1,-1,-2,1
414852,617,-8284,229,-1,-1,-2,1
414858,622,-8283,232,-1,-2,-2,1
414862,628,-8281,231,-1,-2,-2,1
414868,633,-8283,224,-1,-2,-2,1
414872,636,-8285,222,-1,-2,-2,1
414878,636,-8287,219,-1,-2,-2,1
414882,634,-8289,218,-1,-2,-2,1
414887,636,-8291,218,-1,-1,-2,1
414892,637,-8291,219,-1,-1,-2,1
414897,637,-8290,223,-1,-1,-2,1
414902,637,-8288,230,-1,-1,-2,1
414907,636,-8286,233,-1,-1,-2,1
414912,633,-8286,231,-1,-1,-2,1
414917,628,-8288,235,-1,-1,-2,1
414922,623,-8286,235,-1,-1,-2,1
414927,617,-8284,230,-1,-1,-2,1
414932,609,-8281,229,-1,-1,-2,1
414937,607,-8282,230,-1,-1,-2,1
414942,606,-8284,231,-1,-1,-2,1
414947,604,-8285,232,-1,-1,-2,1
414952,605,-8282,230,-1,-1,-2,1
414957,614,-8282,226,-1,-1,-2,1
414962,625,-8284,221,-1,-2,-2,1
414967,634,-8283,216,-1,-2,-2,1
414972,645,-8284,209,-1,-2,-2,1
414977,650,-8287,207,-1,-2,-2,1
414982,649,-8290,204,-1,-2,-2,1
414987,647,-8291,200,-1,-2,-2,1
414992,641,-8290,201,-1,-2,-2,1
414997,632,-8292,200,-1,-2,-2,1
415002,623,-8291,198,-1,-2,-2,1
415007,616,-8289,197,-1,-2,-2,1
415012,612,-8289,202,-1,-2,-2,1
415017,615,-8292,204,-1,-2,-2,1
415022,620,-8292,206,-1,-2,-2,1
415027,628,-8295,209,-1,-1,-2,1
415032,637,-8298,218,-1,-1,-2,1
415037,646,-8298,221,-1,-1,-2,1
415042,654,-8296,224,-1,-1,-2,1
415047,661,-8294,227,-1,-1,-2,1
415052,671,-8292,230,-1,-1,-2,1
415057,674,-8289,230,-1,-1,-2,1
415062,671,-8287,231,-1,-1,-2,1
415067,665,-8290,233,-1,-1,-2,1
415072,655,-8289,240,-1,-1,-2,1
415077,641,-8289,247,-1,-1,-2,1
415082,632,-8290,252,-1,-1,-2,1
415087,621,-8291,261,-1,-1,-2,1
415092,610,-8294,270,-1,-1,-2,1
415097,599,-8293,280,-1,-1,-2,1
415102,590,-8293,294,-1,-1,-2,1
415107,584,-8295,323,-1,-1,-2,1
415112,580,-8296,366,-2,-1,-2,1
415117,575,-8294,414,-2,0,-2,1
415122,564,-8293,470,-2,0,-2,1
415127,545,-8293,530,-2,0,-2,1
415132,514,-8296,592,-2,0,-3,1
415137,485,-8297,636,-2,0,-3,1
415142,456,-8299,660,-2,1,-3,1
415147,440,-8300,652,-2,1,-3,1
415152,440,-8297,626,-2,1,-3,1
415157,447,-8297,583,-3,0,-3,1
415162,462,-8298,544,-3,0,-3,1
415167,486,-8298,513,-3,-1,-3,1
415172,509,-8299,501,-3,-1,-3,1
415177,527,-8297,512,-3,-2,-3,1
415182,542,-8298,524,-3,-3,-3,1
415187,543,-8305,526,-3,-4,-3,1
415192,574,-8303,492,-3,0,-3,1
415197,580,-8297,440,-3,4,-3,1
415202,552,-8296,362,-3,5,-3,1
415207,505,-8300,231,-3,6,-3,1
415212,410,-8297,60,-3,7,-3,1
415217,264,-8307,-100,-2,8,-3,1
415222,104,-8301,-272,-2,18,-2,1
415227,-47,-8299,-412,-3,32,-3,1
415232,-42,-8309,-497,-3,40,-3,1
415237,34,-8305,-540,-3,45,-3,1
415242,217,-8297,-529,-3,45,-2,1
415247,438,-8284,-470,-3,44,-3,1
415252,654,-8271,-397,-3,46,-3,1
415257,868,-8265,-299,-2,47,-3,1
415262,1029,-8260,-167,-2,44,-4,1
415267,1145,-8261,-49,-2,33,-3,1
415272,1196,-8264,89,-2,18,-3,1
415277,1185,-8266,231,-2,4,-3,1
415282,1151,-8267,355,-1,-3,-2,1
415287,1115,-8271,448,-1,-4,-2,1
415292,1120,-8275,508,-1,-4,-2,1
415297,1141,-8277,532,-1,-4,-2,1
415302,1157,-8279,528,-1,-7,-2,1
415307,1164,-8281,512,-1,-10,-2,1
415312,1140,-8280,497,-2,-12,-2,1
415317,1088,-8276,486,-2,-11,-2,1
415322,1026,-8276,472,-2,-11,-2,1
415327,954,-8276,442,-2,-10,-2,1
415332,886,-8277,389,-1,-12,-2,1
415337,832,-8280,295,-1,-14,-2,1
415342,796,-8279,168,-1,-16,-1,1
415347,779,-8278,25,-1,-17,-1,1
415352,781,-8274,-123,0,-16,-1,1
415357,791,-8272,-261,0,-13,-1,1
415362,800,-8270,-393,0,-10,-1,1
415367,819,-8271,-506,0,-8,-1,1
415372,827,-8269,-585,0,-8,-1,1
415377,821,-8267,-617,0,-8,-1,1
415382,802,-8266,-618,0,-9,-1,1
415387,774,-8268,-588,1,-8,-1,1
415392,751,-8271,-536,1,-7,-1,1
415397,727,-8272,-462,1,-7,-1,1
415402,702,-8274,-371,1,-7,-1,1
415407,672,-8277,-264,1,-6,-1,1
415412,635,-8277,-151,1,-5,-1,1
415417,591,-8280,-27,1,-4,-1,1
415422,541,-8282,103,1,-3,-2,1
415427,488,-8285,221,1,-3,-2,1
415432,428,-8289,334,1,-3,-2,1
415437,369,-8296,434,0,-3,-2,1
415442,320,-8299,516,0,-2,-2,1
415447,281,-8301,596,0,-2,-2,1
415452,260,-8300,657,0,-2,-2,1
415457,256,-8300,711,-1,-1,-2,1
415462,270,-8303,757,-1,0,-2,1
415467,297,-8307,798,-1,1,-2,1
415472,331,-8307,832,-1,1,-3,1
415477,365,-8305,864,-1,1,-3,1
415482,391,-8306,885,-2,1,-3,1
415487,414,-8301,881,-2,1,-3,1
415492,433,-8300,856,-2,1,-3,1
415497,454,-8299,801,-2,0,-3,1
415502,468,-8297,706,-2,-1,-3,1
415507,475,-8295,594,-2,-1,-3,1
415512,481,-8295,470,-2,-1,-3,1
415517,489,-8295,338,-2,0,-3,1
415522,495,-8294,207,-2,1,-3,1
415527,510,-8294,83,-1,3,-3,1
415532,534,-8292,-36,-1,4,-3,1
415537,569,-8287,-131,-1,5,-3,1
415542,615,-8287,-212,-1,5,-3,1
415547,665,-8288,-275,-1,4,-3,1
415552,717,-8284,-309,-1,3,-3,1
415557,764,-8279,-318,-1,2,-3,1
415562,813,-8276,-299,0,1,-3,1
415567,858,-8274,-262,0,0,-3,1
415572,893,-8272,-206,0,-1,-2,1
415577,913,-8273,-146,0,-2,-2,1
415582,924,-8274,-89,0,-3,-2,1
415587,934,-8273,-33,0,-3,-2,1
415592,937,-8277,27,0,-2,-2,1
415597,940,-8280,80,0,-2,-2,1
415602,943,-8284,122,0,-2,-2,1
415607,943,-8284,160,0,-2,-2,1
415612,948,-8283,185,0,-2,-2,1
415617,950,-8282,201,0,-2,-2,1
415622,947,-8280,211,0,-2,-2,1
415627,940,-8281,209,0,-2,-1,1
415632,928,-8280,193,0,-3,-1,1
415637,914,-8280,169,0,-3,-1,1
415642,897,-8282,134,0,-3,-1,1
415647,882,-8284,88,1,-3,-1,1
415652,872,-8288,44,1,-4,-1,1
415657,867,-8288,0,1,-4,-1,1
415662,860,-8287,-30,1,-5,-1,1
415667,861,-8288,-47,1,-5,-1,1
415672,860,-8287,-40,1,-4,-1,1
415677,865,-8286,-12,1,-4,-1,1
415682,871,-8283,34,1,-4,-1,1
415687,873,-8282,85,1,-3,-1,1
415692,865,-8279,152,1,-3,-1,1
415697,855,-8280,218,1,-3,-1,1
415702,838,-8282,283,1,-3,-1,1
415707,814,-8282,344,1,-3,-1,1
415712,783,-8283,400,0,-3,-1,1
415717,744,-8283,441,0,-3,-1,1
415722,703,-8286,472,0,-2,-1,1
415727,664,-8289,493,0,-2,-1,1
415732,629,-8290,497,0,-2,-1,1
415737,593,-8291,491,0,-2,-1,1
415742,561,-8293,478,0,-1,-1,1
415747,537,-8291,468,0,-1,-1,1
415752,518,-8291,463,0,-1,-1,1
415757,503,-8293,462,0,-2,-1,1
415762,493,-8294,461,0,-2,-1,1
415767,487,-8294,462,0,-2,-1,1
415772,487,-8295,463,0,-2,-1,1
415777,496,-8294,462,0,-2,-1,1
415782,513,-8293,461,0,-3,-1,1
415787,534,-8291,460,0,-3,-1,1
415792,558,-8289,456,-1,-3,-1,1
415797,579,-8286,453,-1,-3,-1,1
415802,593,-8285,446,-1,-3,-1,1
415807,599,-8285,446,-1,-2,-1,1
415812,597,-8289,439,-1,-2,-1,1
415817,595,-8286,430,-1,-1,-1,1
415822,595,-8286,420,-1,-1,-1,1
415827,595,-8285,405,-1,-1,-1,1
415832,601,-8283,383,-1,-1,-1,1
415837,616,-8281,365,-1,-1,-1,1
415842,633,-8280,352,-1,-1,-1,1
415847,654,-8279,334,-1,-1,-1,1
415852,673,-8279,324,-1,0,-1,1
415857,688,-8279,318,-1,0,-1,1
415862,698,-8280,314,-1,-1,-1,1
415866,704,-8276,312,-1,-2,-1,1
415872,702,-8275,312,-1,-2,-1,1
415876,699,-8276,304,-1,-2,-1,1
415882,701,-8273,295,-1,-2,-1,1
415886,709,-8275,285,-1,-2,-1,1
415891,720,-8275,271,-1,-2,-1,1
415896,734,-8272,255,-1,-2,-1,1
415901,746,-8270,242,-1,-2,-1,1
415907,756,-8270,232,-1,-2,-1,1
415911,767,-8272,229,-1,-1,-1,1
415916,771,-8275,230,-1,-1,-1,1
415921,775,-8276,229,-1,-1,0,1
415926,778,-8277,229,-1,-1,0,1
415931,779,-8280,229,-1,-2,0,1
415936,777,-8283,223,-1,-2,0,1
415941,775,-8284,216,0,-2,0,1
415946,771,-8283,213,0,-2,0,1
415951,762,-8284,206,0,-2,0,1
415956,751,-8285,208,0,-2,0,1
415961,733,-8284,214,0,-3,0,1
415966,711,-8285,218,0,-3,0,1
415971,683,-8285,230,0,-3,0,1
415976,649,-8285,240,0,-3,0,1
415981,615,-8285,242,0,-4,0,1
415986,590,-8285,237,0,-4,0,1
415991,575,-8283,222,0,-5,0,1
415996,571,-8285,203,0,-6,0,1
416001,583,-8286,176,0,-7,0,1
416006,598,-8285,146,0,-9,0,1
416011,615,-8283,108,0,-10,0,1
416016,634,-8279,74,1,-11,0,1
416021,652,-8276,44,1,-12,0,1
416026,667,-8279,22,1,-12,0,1
416031,679,-8278,16,1,-12,0,1
416036,685,-8278,29,1,-12,0,1
416041,684,-8278,63,1,-12,0,1
416046,672,-8280,106,1,-13,0,1
416051,654,-8277,165,1,-13,0,1
416056,628,-8275,229,1,-12,0,1
416061,566,-8279,326,1,-11,0,1
416066,487,-8286,499,0,-3,0,1
416071,485,-8283,631,0,4,-1,1
416076,488,-8284,726,0,-1,-1,1
416081,392,-8283,787,0,-9,-1,1
416086,274,-8285,780,0,-11,-1,1
416091,181,-8292,765,0,-7,-1,1
416096,140,-8296,733,0,-3,-1,1
416101,107,-8300,712,-1,-2,-1,1
416106,-3,-8305,721,-1,-6,-2,1
416111,-182,-8311,784,-2,-9,-2,1
416116,-297,-8317,928,-2,-13,-2,1
416121,-398,-8316,1091,-2,-14,-2,1
416126,-459,-8313,1244,-2,-14,-2,1
416131,-451,-8305,1364,-2,-8,-2,1
416136,-277,-8299,1428,-3,5,-3,1
416141,119,-8288,1464,-3,21,-2,1
416146,479,-8273,1355,-3,30,-3,1
416151,762,-8276,1211,-4,21,-5,1
416156,636,-8280,994,-4,20,-5,1
416161,265,-8285,652,-5,30,-5,1
416166,-142,-8303,363,-4,52,-4,1
416171,-461,-8314,45,-5,79,-3,1
416176,-506,-8322,-235,-5,99,-2,1
416181,-341,-8326,-361,-5,109,-1,1
416186,-84,-8314,-447,-5,110,-1,1
416191,206,-8301,-427,-5,108,-2,1
416196,422,-8284,-295,-5,106,-3,1
416201,549,-8273,-154,-5,105,-3,1
416206,609,-8271,-1,-4,102,-4,1
416211,612,-8269,140,-4,95,-3,1
416216,591,-8269,222,-4,85,-3,1
416221,575,-8271,235,-3,75,-3,1
416226,579,-8272,158,-3,70,-2,1
416231,605,-8274,23,-3,71,-2,1
416236,656,-8276,-139,-3,73,-3,1
416241,724,-8277,-286,-3,75,-3,1
416246,778,-8280,-363,-3,75,-3,1
416251,842,-8283,-366,-3,74,-3,1
416256,911,-8279,-310,-3,70,-3,1
416261,973,-8279,-177,-3,64,-2,1
416266,1034,-8278,-1,-2,55,-2,1
416271,1066,-8276,184,-2,45,-2,1
416276,1065,-8273,360,-1,36,-2,1
416281,1060,-8272,514,-1,30,-1,1
416286,1049,-8269,624,-1,26,-2,1
416291,1029,-8269,686,-1,22,-2,1
416296,996,-8272,682,-1,19,-2,1
416301,928,-8277,655,-1,16,-2,1
416306,830,-8280,623,-1,16,-2,1
416311,722,-8286,592,-2,18,-2,1
416316,617,-8292,567,-2,20,-2,1
416321,536,-8296,559,-2,20,-2,1
416326,485,-8297,554,-2,19,-2,1
416331,458,-8296,556,-2,16,-2,1
416336,457,-8295,566,-2,14,-2,1
416341,491,-8296,587,-2,13,-2,1
416346,519,-8299,609,-2,10,-2,1
416351,520,-8299,634,-2,7,-2,1
416356,497,-8298,641,-2,5,-3,1
416361,450,-8298,637,-2,3,-3,1
416366,399,-8299,608,-2,1,-3,1
416371,351,-8302,555,-2,0,-3,1
416376,316,-8305,482,-2,0,-3,1
416381,295,-8309,401,-2,-1,-3,1
416386,289,-8309,318,-2,0,-3,1
416391,297,-8309,254,-3,0,-3,1
416396,325,-8308,212,-3,1,-3,1
416401,361,-8306,201,-3,1,-3,1
416406,403,-8303,207,-3,1,-3,1
416411,455,-8302,222,-2,1,-3,1
416416,511,-8299,227,-2,0,-3,1
416421,563,-8296,224,-2,-1,-3,1
416426,614,-8294,206,-2,-2,-3,1
416431,660,-8291,174,-2,-2,-3,1
416436,699,-8287,141,-2,-2,-3,1
416441,731,-8287,120,-2,-2,-3,1
416446,749,-8285,108,-2,-2,-3,1
416451,762,-8286,114,-2,-2,-3,1
416456,765,-8287,140,-2,-2,-2,1
416461,770,-8285,176,-2,-2,-2,1
416466,779,-8283,222,-2,-2,-2,1
416471,788,-8280,270,-2,-2,-2,1
416476,801,-8281,307,-2,-2,-2,1
416481,817,-8280,337,-2,-2,-2,1
416486,826,-8282,356,-2,-2,-2,1
416491,826,-8281,360,-2,-2,-2,1
416496,820,-8280,348,-2,-2,-2,1
416501,801,-8282,324,-2,-2,-2,1
416506,779,-8282,284,-2,-2,-2,1
416511,748,-8284,238,-2,-2,-2,1
416516,718,-8286,201,-2,-2,-2,1
416521,696,-8285,166,-2,-2,-2,1
416526,675,-8285,139,-2,-2,-1,1
416531,655,-8285,125,-2,-2,-1,1
416536,635,-8286,122,-2,-2,-1,1
416541,609,-8285,121,-2,-2,-2,1
416546,581,-8287,129,-2,-2,-1,1
416551,557,-8287,137,-2,-2,-2,1
416556,533,-8285,142,-1,-2,-2,1
416561,516,-8287,144,-1,-2,-2,1
416566,502,-8288,151,-1,-2,-2,1
416571,487,-8288,159,-2,-2,-2,1
416576,476,-8288,160,-2,-2,-2,1
416581,468,-8289,165,-2,-2,-2,1
416586,454,-8289,168,-2,-2,-2,1
416591,444,-8289,173,-2,-2,-2,1
416596,434,-8291,179,-2,-2,-2,1
416601,425,-8293,188,-2,-2,-2,1
416606,421,-8293,205,-2,-2,-2,1
416611,419,-8289,222,-2,-2,-2,1
416616,425,-8287,240,-2,-2,-2,1
416621,442,-8285,255,-2,-2,-2,1
416626,463,-8284,264,-2,-2,-2,1
416631,486,-8282,267,-1,-1,-2,1
416636,508,-8284,262,-1,-1,-2,1
416641,524,-8282,250,-1,-2,-2,1
416646,535,-8284,231,-1,-2,-2,1
416651,547,-8284,200,-1,-2,-2,1
416656,555,-8285,153,-1,-2,-2,1
416661,565,-8284,94,-1,-2,-2,1
416666,574,-8284,27,-1,-2,-2,1
416671,595,-8285,-39,-1,-2,-2,1
416676,619,-8287,-99,-1,-1,-1,1
416681,636,-8290,-153,-1,0,-1,1
416686,660,-8291,-191,-1,2,-1,1
416691,647,-8288,-204,-1,12,-1,1
416696,547,-8281,-237,-1,39,-1,1
416701,460,-8280,-264,-1,73,-2,1
416706,331,-8284,-261,-1,110,-2,1
416711,132,-8291,-273,-2,144,-2,1
416716,-113,-8307,-286,-2,169,-2,1
416721,-354,-8320,-300,-3,184,-2,1
416726,-535,-8329,-290,-4,193,-1,1
416731,-640,-8330,-211,-4,201,0,1
416736,-642,-8323,-113,-4,212,0,1
416741,-540,-8311,9,-4,230,0,1
416746,-366,-8299,131,-4,249,0,1
416751,-167,-8291,225,-4,265,-1,1
416756,2,-8287,303,-4,274,-2,1
416761,118,-8287,356,-4,276,-2,1
416766,148,-8281,383,-4,275,-2,1
416771,100,-8281,314,-4,277,-2,1
416776,31,-8282,234,-4,289,-1,1
416781,-2,-8289,150,-4,301,-1,1
416786,18,-8297,60,-4,309,-1,1
416791,80,-8299,2,-4,313,0,1
416796,161,-8296,-15,-4,313,0,1
416801,237,-8295,19,-4,314,0,1
416806,283,-8291,97,-4,319,0,1
416811,274,-8286,191,-4,328,0,1
416816,211,-8286,295,-4,340,0,1
416821,97,-8284,372,-4,352,0,1
416826,-83,-8286,429,-4,368,0,1
416831,-295,-8296,463,-4,387,0,1
416836,-513,-8299,473,-5,413,1,1
416841,-745,-8308,467,-5,445,1,1
416846,-1012,-8311,452,-6,489,1,1
416851,-1303,-8311,484,-7,545,1,1
416856,-1633,-8318,543,-7,614,1,1
416861,-2021,-8329,699,-8,688,1,1
416866,-2340,-8340,939,-10,762,2,1
416871,-2625,-8350,1262,-11,832,3,1
416876,-2760,-8359,1751,-13,893,3,1
416881,-2689,-8371,2341,-14,933,4,1
416886,-2484,-8377,2990,-15,945,5,1
416891,-2306,-8356,3680,-16,941,5,1
416896,-2085,-8338,4294,-16,923,4,1
416901,-1730,-8333,4848,-15,880,4,1
416905,-1317,-8329,5276,-14,809,3,1
416911,-942,-8314,5453,-12,724,3,1
416916,-459,-8299,5325,-10,639,2,1
416921,104,-8298,4991,-8,561,2,1
416926,764,-8299,4560,-7,488,1,1
416930,1261,-8297,4149,-7,425,1,1
416935,1613,-8296,3730,-7,369,2,1
416941,1804,-8290,3285,-7,323,2,1
416946,1837,-8282,2879,-7,290,1,1
416951,1803,-8274,2509,-6,270,0,1
416955,1702,-8270,2158,-6,260,-2,1
416960,1565,-8269,1825,-5,258,-3,1
416965,1384,-8273,1520,-5,262,-4,1
416971,1207,-8276,1262,-5,267,-4,1
416975,1078,-8275,1044,-5,266,-4,1
416980,994,-8272,845,-5,258,-3,1
416986,955,-8272,689,-5,247,-2,1
416990,964,-8271,545,-5,235,-2,1
416995,1011,-8266,404,-4,225,-2,1
417000,1077,-8262,293,-4,219,-2,1
417005,1156,-8262,198,-3,214,-2,1
417010,1203,-8265,142,-3,209,-3,1
417015,1223,-8269,116,-3,203,-3,1
417020,1188,-8271,123,-3,199,-3,1
417025,1225,-8277,222,-3,194,-3,1
417030,1466,-8275,436,-4,186,-2,1
417035,1727,-8262,510,-4,168,0,1
417040,1925,-8257,621,-4,144,0,1
417045,2031,-8249,709,-3,133,0,1
417050,1962,-8244,652,-2,141,-1,1
417055,1700,-8243,469,-1,165,-1,1
417060,1399,-8235,253,0,202,-3,1
417065,1220,-8292,142,0,244,-4,1
417070,973,-8299,-186,-1,272,-3,1
417075,755,-8295,-630,-1,274,-4,1
417080,504,-8305,-1003,-2,259,-2,1
417085,112,-8310,-1257,-4,244,0,1
417090,108,-8308,-1298,-5,235,1,1
417095,147,-8303,-1181,-5,231,3,1
417100,294,-8295,-838,-4,232,3,1
417105,552,-8286,-556,-4,235,2,1
417110,825,-8280,-292,-3,231,2,1
417115,1070,-8275,-61,-3,216,2,1
417120,1241,-8276,122,-2,198,2,1
417125,1340,-8277,286,-2,182,2,1
417130,1341,-8278,435,-2,173,2,1
417135,1247,-8280,574,-2,172,2,1
417140,1085,-8284,666,-2,178,2,1
417145,855,-8292,706,-3,193,2,1
417150,587,-8301,737,-3,213,2,1
417155,305,-8306,753,-3,231,2,1
417160,12,-8307,699,-3,256,3,1
417165,-252,-8311,556,-3,289,3,1
417170,-389,-8313,455,-4,332,4,1
417175,-339,-8315,343,-4,369,4,1
417180,-166,-8321,266,-6,392,4,1
417185,73,-8319,280,-7,393,4,1
417190,310,-8316,382,-8,379,4,1
417195,537,-8306,576,-9,358,4,1
417200,743,-8299,795,-9,333,3,1
417205,804,-8294,1021,-8,307,3,1
417210,827,-8291,1208,-7,286,3,1
417215,896,-8287,1275,-6,270,4,1
417220,986,-8286,1256,-5,251,4,1
417225,1169,-8285,1106,-4,230,4,1
417230,1333,-8282,901,-4,212,3,1
417235,1455,-8279,719,-5,192,3,1
417240,1529,-8277,543,-5,174,2,1
417245,1484,-8277,414,-5,163,2,1
417250,1392,-8274,359,-5,156,2,1
417255,1269,-8278,310,-5,154,2,1
417260,1088,-8279,331,-5,152,2,1
417265,962,-8280,350,-5,147,2,1
417270,838,-8281,337,-4,142,3,1
417275,774,-8283,329,-4,134,2,1
417280,747,-8284,294,-4,126,2,1
417285,702,-8284,272,-4,116,1,1
417290,658,-8287,269,-4,105,1,1
417295,539,-8288,274,-5,96,0,1
417300,389,-8292,311,-5,90,0,1
417305,204,-8292,352,-4,90,-1,1
417310,113,-8294,314,-3,87,-1,1
417315,70,-8295,361,-2,81,-1,1
