millis,ax,ay,az,gx,gy,gz,label
284345,369,-8305,-92,-1,-2,-2,0
284350,368,-8305,-82,-1,-2,-2,1
284355,369,-8306,-76,-1,-2,-2,1
284360,372,-8302,-72,-1,-2,-2,1
284365,375,-8301,-74,-1,-2,-2,1
284369,379,-8297,-74,-1,-2,-2,1
284374,384,-8295,-71,-1,-1,-2,1
284379,386,-8295,-67,-1,-1,-2,1
284384,386,-8294,-63,-1,-1,-2,1
284390,388,-8294,-58,-1,-1,-2,1
284394,388,-8297,-55,-1,0,-2,1
284400,387,-8296,-49,-1,0,-2,1
284405,389,-8296,-45,-1,0,-2,1
284410,387,-8295,-38,-1,0,-2,1
284414,383,-8294,-33,-1,0,-2,1
284420,381,-8292,-21,-1,0,-2,1
284424,380,-8292,-12,-1,0,-2,1
284429,377,-8296,-6,-1,-1,-2,1
284434,374,-8296,-2,-1,-1,-2,1
284439,374,-8295,2,-1,-1,-2,1
284445,377,-8296,0,-1,-2,-2,1
284450,380,-8296,-1,-1,-2,-2,1
284454,382,-8296,-6,-1,-2,-2,1
284460,383,-8296,-13,-1,-2,-2,1
284464,388,-8296,-16,-1,-1,-2,1
284469,393,-8298,-16,-1,-1,-2,1
284474,399,-8298,-16,-1,-1,-2,1
284479,402,-8297,-22,-1,-1,-2,1
284484,405,-8296,-24,-1,-1,-2,1
284489,406,-8297,-25,-1,-1,-2,1
284494,405,-8297,-26,-1,-1,-2,1
284499,401,-8299,-23,-1,-1,-2,1
284504,394,-8302,-26,-1,-1,-2,1
284509,391,-8301,-28,-1,-1,-2,1
284514,389,-8300,-31,-1,-1,-2,1
284519,389,-8300,-36,-1,-1,-2,1
284524,389,-8300,-45,-1,-2,-2,1
284529,389,-8297,-48,-1,-2,-2,1
284534,388,-8296,-52,-1,-2,-2,1
284539,388,-8295,-55,-1,-2,-2,1
284544,389,-8297,-58,-1,-2,-2,1
284549,392,-8298,-60,-1,-2,-2,1
284554,393,-8300,-64,-1,-2,-2,1
284559,395,-8300,-71,-1,-2,-2,1
284564,398,-8297,-79,-1,-2,-2,1
284569,403,-8299,-82,-1,-2,-2,1
284574,410,-8299,-80,-1,-2,-2,1
284579,415,-8300,-85,-1,-2,-2,1
284584,418,-8297,-88,-1,-2,-2,1
284589,423,-8296,-85,-1,-1,-2,1
284594,431,-8296,-84,-1,-1,-2,1
284599,436,-8297,-81,-1,-1,-2,1
284604,444,-8294,-81,-1,-1,-2,1
284609,451,-8294,-84,-1,-1,-2,1
284614,455,-8293,-82,-1,-1,-2,1
284619,454,-8294,-81,-1,-1,-2,1
284624,454,-8291,-83,-1,-1,-2,1
284629,457,-8291,-75,-1,-1,-2,1
284634,459,-8291,-69,-1,-1,-2,1
284639,459,-8291,-60,-1,-1,-2,1
284644,458,-8291,-54,-1,-1,-2,1
284649,456,-8292,-46,-1,-1,-2,1
284654,452,-8291,-44,-1,-1,-2,1
284659,447,-8293,-40,-1,-1,-2,1
284664,443,-8293,-33,-1,-1,-2,1
284669,440,-8292,-26,-1,-1,-2,1
284674,440,-8292,-19,-1,-1,-2,1
284679,444,-8295,-10,-1,-1,-2,1
284684,449,-8295,-2,-1,-1,-2,1
284689,456,-8296,-1,-1,-1,-2,1
284694,459,-8297,-4,-1,-1,-2,1
284699,458,-8296,-7,-1,-1,-2,1
284704,457,-8298,-6,-1,-1,-2,1
284709,463,-8296,-8,-1,-1,-2,1
284714,470,-8292,-6,-1,-1,-2,1
284719,477,-8290,-3,-1,-1,-2,1
284724,486,-8293,0,-1,-1,-2,1
284729,490,-8296,4,-1,-1,-2,1
284734,495,-8299,9,-1,-1,-2,1
284739,494,-8300,13,-1,-1,-2,1
284744,495,-8297,17,-1,-1,-2,1
284749,492,-8297,26,-1,-1,-2,1
284754,489,-8300,34,-1,-1,-2,1
284759,484,-8299,46,-1,-1,-2,1
284764,478,-8299,54,-1,-1,-2,1
284769,474,-8302,67,-1,-1,-2,1
284774,469,-8302,78,-1,-1,-2,1
284779,459,-8300,87,-1,-2,-2,1
284784,455,-8301,95,-1,-2,-2,1
284789,451,-8301,98,-1,-2,-2,1
284794,455,-8298,98,-1,-2,-2,1
284799,454,-8300,104,-1,-3,-2,1
284804,459,-8300,106,-1,-3,-2,1
284809,473,-8298,106,-1,-2,-2,1
284814,481,-8297,91,-1,-2,-2,1
284819,487,-8295,77,-1,-2,-2,1
284824,496,-8296,56,-1,-2,-2,1
284829,504,-8293,37,-1,-2,-2,1
284834,512,-8291,27,-1,-2,-2,1
284839,517,-8290,18,-1,-2,-2,1
284844,521,-8291,11,-1,-2,-2,1
284849,518,-8294,8,-1,-2,-2,1
284854,513,-8293,1,-1,-2,-2,1
284859,503,-8296,6,-1,-2,-2,1
284864,490,-8296,3,-1,-2,-2,1
284869,480,-8298,5,-1,-2,-2,1
284874,472,-8300,10,-1,-3,-2,1
284879,467,-8298,14,-1,-3,-2,1
284884,466,-8299,20,-1,-3,-2,1
284889,466,-8299,23,-1,-3,-2,1
284894,465,-8299,26,-1,-3,-2,1
284899,468,-8299,24,-1,-3,-1,1
284904,471,-8301,16,-1,-3,-2,1
284909,474,-8300,13,-1,-3,-1,1
284914,475,-8300,4,-1,-2,-1,1
284919,482,-8298,-3,-1,-2,-1,1
284924,489,-8300,-5,-1,-2,-1,1
284929,493,-8301,-4,-1,-2,-1,1
284934,493,-8300,-1,-1,-2,-1,1
284939,489,-8300,1,-1,-2,-1,1
284944,486,-8302,3,-1,-2,-1,1
284949,478,-8303,3,-1,-2,-1,1
284954,472,-8304,7,-1,-2,-1,1
284959,468,-8306,11,-1,-2,-1,1
284964,461,-8307,17,-1,-2,-1,1
284969,446,-8304,31,-1,-2,-1,1
284974,427,-8303,37,-1,-2,-1,1
284979,426,-8303,37,-2,-1,-1,1
284984,433,-8302,39,-2,-2,-1,1
284989,443,-8298,48,-2,-2,-1,1
284994,453,-8294,62,-2,-2,-1,1
284999,461,-8294,60,-1,-2,-1,1
285004,465,-8296,55,-1,-2,-1,1
285009,464,-8297,50,-1,-2,-1,1
285014,460,-8298,27,-1,-2,-1,1
285019,466,-8299,8,-2,-1,-1,1
285024,468,-8298,2,-2,-2,-1,1
285029,463,-8296,12,-2,-1,-1,1
285034,463,-8295,28,-2,-1,-1,1
285039,456,-8294,32,-1,-1,-1,1
285044,451,-8294,28,-1,-1,-1,1
285049,437,-8293,20,-1,-1,-1,1
285054,426,-8295,6,-2,-2,-1,1
285059,421,-8296,-9,-2,-2,-1,1
285064,412,-8294,-13,-2,-2,-1,1
285069,411,-8294,-7,-2,-2,-1,1
285074,403,-8293,10,-2,-2,-1,1
285079,397,-8297,23,-2,-3,-2,1
285084,389,-8297,23,-1,-3,-2,1
285089,380,-8298,10,-1,-3,-2,1
285094,380,-8296,-7,-1,-4,-1,1
285099,385,-8298,-24,-1,-4,-1,1
285104,389,-8297,-39,-2,-4,-2,1
285109,395,-8296,-42,-2,-4,-2,1
285114,397,-8295,-39,-2,-3,-2,1
285119,399,-8292,-37,-2,-3,-2,1
285124,402,-8293,-43,-1,-3,-2,1
285129,408,-8295,-57,-1,-3,-2,1
285134,418,-8296,-72,-1,-3,-1,1
285139,435,-8296,-91,-1,-3,-2,1
285144,454,-8297,-107,-1,-3,-1,1
285149,466,-8296,-117,-1,-2,-2,1
285154,477,-8294,-122,-1,-2,-1,1
285159,480,-8296,-110,-1,-2,-2,1
285164,476,-8296,-102,-1,-2,-1,1
285169,467,-8295,-91,-1,-2,-1,1
285174,458,-8294,-85,-1,-2,-1,1
285179,452,-8294,-87,-1,-2,-1,1
285184,445,-8295,-83,-1,-2,-1,1
285189,442,-8298,-78,-1,-2,-1,1
285194,434,-8299,-66,-1,-2,-1,1
285199,425,-8298,-50,-1,-2,-1,1
285204,422,-8300,-34,-1,-2,-1,1
285209,427,-8300,-23,-1,-2,-1,1
285214,435,-8296,-20,-1,-2,-1,1
285219,447,-8294,-23,-1,-2,-1,1
285224,461,-8293,-28,-1,-2,-1,1
285229,473,-8295,-35,-1,-2,-1,1
285234,473,-8294,-39,-1,-2,-1,1
285239,465,-8293,-38,-1,-2,-1,1
285244,455,-8293,-30,-1,-1,-1,1
285249,446,-8294,-20,-1,-1,-1,1
285254,440,-8295,-14,-1,-1,-1,1
285259,435,-8296,-9,-1,-1,-1,1
285264,431,-8294,-2,-1,-1,-1,1
285269,424,-8294,-1,-1,-1,-1,1
285274,417,-8294,1,-1,-2,-1,1
285279,408,-8293,4,-1,-2,-1,1
285284,398,-8291,16,-1,-2,-1,1
285289,388,-8291,26,-1,-2,-1,1
285294,379,-8290,28,-1,-3,-1,1
285299,376,-8289,29,-1,-3,-1,1
285304,378,-8291,21,-1,-3,-1,1
285309,378,-8294,9,-1,-3,-1,1
285314,378,-8297,-1,-1,-3,-1,1
285319,377,-8299,-16,-1,-3,-1,1
285324,374,-8300,-26,-1,-3,-2,1
285329,373,-8299,-30,-1,-3,-2,1
285334,372,-8298,-31,-1,-2,-1,1
285339,376,-8298,-31,-1,-2,-1,1
285344,384,-8298,-37,-1,-2,-1,1
285349,394,-8296,-43,-1,-2,-1,1
285354,397,-8296,-49,-1,-2,-2,1
285359,389,-8296,-57,-1,-2,-2,1
285364,382,-8298,-61,-1,-2,-2,1
285369,375,-8299,-57,-1,-2,-2,1
285374,368,-8300,-46,-1,-2,-2,1
285379,362,-8301,-39,-1,-2,-2,1
285384,358,-8297,-36,-1,-2,-1,1
285389,357,-8299,-36,-1,-2,-2,1
285394,357,-8300,-33,-1,-2,-2,1
285399,357,-8302,-33,-1,-3,-2,1
285404,357,-8304,-30,-1,-3,-2,1
285409,358,-8303,-24,-1,-3,-2,1
285414,360,-8303,-24,-1,-3,-2,1
285419,363,-8302,-24,-1,-3,-2,1
285424,376,-8304,-27,-1,-2,-2,1
285429,388,-8305,-29,-1,-2,-2,1
285434,401,-8305,-31,-1,-2,-2,1
285439,412,-8302,-40,-1,-2,-2,1
285444,417,-8302,-44,-1,-2,-2,1
285449,420,-8301,-48,-1,-2,-2,1
285454,422,-8303,-50,-1,-2,-2,1
285459,421,-8301,-50,-1,-2,-2,1
285464,420,-8300,-50,-1,-2,-2,1
285469,416,-8299,-51,-1,-2,-2,1
285474,414,-8297,-48,-1,-2,-2,1
285479,409,-8294,-42,-1,-2,-2,1
285484,400,-8294,-44,-1,-2,-2,1
285489,389,-8292,-42,-1,-2,-2,1
285494,381,-8293,-33,-1,-2,-2,1
285499,378,-8294,-30,-1,-2,-2,1
285504,381,-8295,-26,-1,-3,-2,1
285509,388,-8297,-26,-1,-3,-2,1
285514,400,-8298,-35,-1,-3,-2,1
285519,411,-8299,-44,-1,-3,-2,1
285524,421,-8302,-58,-1,-3,-2,1
285529,425,-8301,-67,-1,-3,-2,1
285534,426,-8303,-79,-1,-2,-2,1
285539,425,-8302,-82,-1,-2,-2,1
285544,423,-8299,-78,-1,-2,-2,1
285549,424,-8298,-75,-1,-2,-2,1
285554,423,-8299,-73,-1,-1,-2,1
285559,419,-8301,-70,-1,-1,-2,1
285564,415,-8301,-68,-1,-1,-2,1
285569,405,-8299,-63,-1,-2,-2,1
285574,394,-8300,-55,-1,-2,-2,1
285579,384,-8301,-46,-1,-2,-2,1
285584,377,-8301,-30,-1,-2,-2,1
285589,376,-8302,-23,-1,-2,-2,1
285594,378,-8302,-21,-1,-2,-2,1
285599,383,-8304,-18,-1,-2,-2,1
285604,392,-8303,-22,-1,-2,-2,1
285609,396,-8305,-28,-1,-2,-2,1
285614,402,-8306,-37,-1,-2,-2,1
285619,408,-8304,-45,-1,-2,-2,1
285624,410,-8304,-54,-1,-2,-2,1
285629,416,-8302,-54,-1,-2,-2,1
285634,421,-8298,-56,-1,-1,-2,1
285639,425,-8295,-53,-1,-1,-2,1
285644,423,-8295,-54,-1,-1,-2,1
285649,417,-8295,-54,-1,-1,-2,1
285654,412,-8295,-49,-1,-1,-2,1
285659,405,-8294,-41,-1,-1,-2,1
285664,394,-8296,-33,-1,-1,-2,1
285669,385,-8294,-30,-1,-1,-2,1
285674,378,-8294,-23,-1,-2,-2,1
285679,371,-8293,-14,-1,-2,-2,1
285684,365,-8297,-12,-1,-2,-2,1
285689,364,-8297,-14,-1,-2,-2,1
285694,362,-8298,-13,-1,-2,-2,1
285699,363,-8299,-11,-1,-3,-2,1
285704,363,-8298,-12,-1,-3,-2,1
285709,365,-8299,-9,-1,-3,-2,1
285714,368,-8298,-10,-1,-3,-2,1
285718,373,-8296,-22,-1,-3,-2,1
285724,383,-8296,-31,-1,-2,-2,1
285729,396,-8296,-44,-1,-2,-2,1
285733,408,-8296,-53,-1,-2,-2,1
285739,420,-8297,-57,-1,-2,-2,1
285744,426,-8297,-59,-1,-2,-2,1
285748,431,-8300,-60,-1,-2,-2,1
285753,427,-8299,-60,-1,-2,-2,1
285758,422,-8296,-55,-1,-2,-2,1
285764,417,-8298,-55,-1,-2,-2,1
285768,409,-8297,-53,-1,-2,-2,1
285774,405,-8298,-47,-1,-2,-2,1
285778,403,-8300,-42,-1,-2,-2,1
285783,403,-8300,-35,-1,-2,-2,1
285789,404,-8299,-20,-1,-2,-2,1
285793,403,-8300,-5,-1,-2,-2,1
285799,403,-8301,7,-1,-2,-2,1
285803,401,-8303,15,-1,-2,-2,1
285808,407,-8303,12,-1,-2,-2,1
285814,418,-8299,12,-1,-2,-2,1
285818,431,-8297,12,-1,-2,-2,1
285823,446,-8296,10,-1,-2,-2,1
285829,459,-8297,8,-1,-2,-2,1
285833,468,-8296,12,-1,-2,-2,1
285838,470,-8295,9,-1,-2,-2,1
285844,472,-8293,3,-1,-2,-2,1
285848,466,-8291,-5,-1,-2,-2,1
285853,461,-8293,-11,-1,-2,-2,1
285858,458,-8294,-16,-1,-1,-2,1
285863,455,-8294,-17,-1,-1,-2,1
285868,448,-8295,-11,-1,-2,-2,1
285873,441,-8295,-4,-1,-2,-2,1
285878,435,-8295,-1,-1,-2,-2,1
285883,427,-8295,-3,-1,-2,-2,1
285888,417,-8296,-7,-1,-2,-2,1
285893,408,-8295,-12,-1,-2,-2,1
285898,405,-8293,-18,-1,-2,-2,1
285903,409,-8296,-24,-1,-2,-2,1
285908,415,-8296,-28,-1,-2,-2,1
285913,417,-8296,-36,-1,-2,-2,1
285918,414,-8296,-38,-1,-2,-2,1
285923,409,-8299,-46,-1,-2,-2,1
285928,406,-8301,-59,-1,-2,-2,1
285933,401,-8297,-66,-1,-2,-2,1
285938,397,-8297,-74,-1,-2,-2,1
285943,401,-8294,-75,-1,-2,-2,1
285948,401,-8292,-71,-1,-2,-2,1
285953,398,-8294,-76,-1,-2,-2,1
285958,395,-8294,-83,-1,-2,-2,1
285963,387,-8294,-86,-1,-2,-2,1
285968,383,-8294,-88,-1,-2,-2,1
285973,383,-8293,-88,-1,-2,-2,1
285978,387,-8293,-90,-1,-2,-2,1
285983,395,-8294,-83,-1,-2,-2,1
285988,399,-8296,-79,-1,-2,-2,1
285993,400,-8297,-70,-1,-2,-2,1
285998,398,-8296,-60,-1,-2,-2,1
286003,394,-8298,-53,-1,-2,-2,1
286008,391,-8298,-56,-1,-2,-2,1
286013,393,-8298,-51,-1,-2,-2,1
286018,396,-8298,-48,-1,-2,-2,1
286023,407,-8299,-49,-1,-2,-2,1
286028,422,-8300,-41,-1,-2,-2,1
286033,430,-8302,-41,-1,-2,-2,1
286038,435,-8300,-33,-1,-2,-2,1
286043,435,-8299,-31,-1,-2,-2,1
286048,432,-8298,-29,-1,-2,-2,1
286053,429,-8299,-21,-1,-2,-2,1
286058,426,-8296,-17,-1,-2,-2,1
286063,424,-8297,-14,-1,-2,-2,1
286068,419,-8298,-12,-1,-2,-2,1
286073,417,-8298,-9,-1,-2,-2,1
286078,418,-8300,-9,-1,-2,-2,1
286083,417,-8298,-10,-1,-3,-2,1
286088,418,-8298,-16,-1,-3,-2,1
286093,420,-8297,-19,-1,-3,-2,1
286098,426,-8296,-21,-1,-3,-2,1
286103,434,-8296,-23,-1,-3,-2,1
286108,440,-8300,-30,-1,-3,-2,1
286113,442,-8300,-37,-1,-3,-2,1
286118,445,-8302,-44,-1,-2,-2,1
286123,446,-8301,-54,-1,-2,-2,1
286128,444,-8301,-56,-1,-2,-2,1
286133,444,-8299,-59,-1,-2,-2,1
286138,445,-8299,-61,-1,-2,-2,1
286143,445,-8299,-63,-1,-1,-2,1
286148,441,-8297,-62,-1,-1,-2,1
286153,435,-8298,-66,-1,-2,-2,1
286158,430,-8298,-66,-1,-2,-2,1
286163,423,-8302,-68,-1,-2,-2,1
286168,407,-8300,-65,-1,-2,-2,1
286173,395,-8301,-61,-1,-2,-2,1
286178,388,-8299,-56,-1,-2,-2,1
286183,385,-8298,-54,-1,-2,-2,1
286188,382,-8299,-54,-1,-2,-2,1
286193,386,-8300,-57,-1,-2,-2,1
286198,392,-8298,-60,-1,-3,-2,1
286203,395,-8298,-63,-1,-3,-2,1
286208,395,-8298,-72,-1,-2,-2,1
286213,394,-8299,-83,-1,-2,-2,1
286218,397,-8299,-88,-1,-2,-2,1
286223,403,-8297,-94,-1,-2,-2,1
286228,413,-8296,-93,-1,-1,-2,1
286233,420,-8296,-94,-1,-1,-2,1
286238,422,-8297,-93,-1,-1,-2,1
286243,423,-8296,-90,-1,-1,-2,1
286248,421,-8296,-86,-1,-1,-2,1
286253,417,-8294,-75,-1,-1,-2,1
286258,413,-8293,-62,-1,-1,-2,1
286263,411,-8294,-52,-1,-1,-2,1
286268,412,-8294,-40,-1,-1,-2,1
286273,413,-8296,-34,-1,-2,-2,1
286278,407,-8297,-29,-1,-2,-2,1
286283,405,-8298,-26,-1,-2,-2,1
286288,400,-8298,-24,-1,-2,-2,1
286293,396,-8297,-24,-1,-2,-2,1
286298,397,-8298,-23,-1,-2,-2,1
286303,400,-8297,-20,-1,-2,-2,1
286308,406,-8295,-20,-1,-2,-2,1
286313,414,-8294,-21,-1,-2,-2,1
286318,423,-8295,-23,-1,-2,-2,1
286323,427,-8297,-28,-1,-2,-2,1
286328,428,-8297,-31,-1,-2,-2,1
286333,432,-8296,-32,-1,-1,-2,1
286338,437,-8298,-32,-1,-1,-2,1
286343,439,-8298,-36,-1,-1,-2,1
286348,437,-8293,-36,-1,-1,-2,1
286353,440,-8295,-36,-1,-1,-2,1
286358,438,-8294,-38,-1,-1,-2,1
286363,433,-8298,-33,-1,-1,-2,1
286368,423,-8299,-33,-1,-1,-2,1
286373,408,-8298,-25,-1,-1,-2,1
286378,394,-8299,-12,-1,-1,-2,1
286383,382,-8298,0,-1,-2,-2,1
286388,371,-8302,13,-1,-2,-2,1
286393,362,-8304,22,-1,-2,-2,1
286398,354,-8303,23,-1,-3,-2,1
286403,350,-8305,22,-1,-3,-2,1
286408,355,-8304,15,-1,-3,-2,1
286413,364,-8308,11,-1,-3,-2,1
286418,374,-8309,1,-1,-3,-2,1
286423,389,-8308,-7,-1,-3,-2,1
286428,406,-8308,-15,-1,-3,-2,1
286433,416,-8307,-28,-1,-2,-2,1
286438,422,-8306,-41,-1,-2,-2,1
286443,428,-8305,-54,-1,-2,-2,1
286448,430,-8308,-59,-1,-2,-2,1
286453,431,-8304,-57,-1,-2,-2,1
286458,429,-8302,-54,-1,-1,-2,1
286463,427,-8302,-49,-1,-1,-2,1
286468,423,-8302,-44,-1,-1,-2,1
286473,420,-8302,-37,-1,-2,-2,1
286478,415,-8300,-27,-1,-2,-2,1
286483,409,-8299,-22,-1,-2,-2,1
286488,408,-8299,-22,-1,-2,-2,1
286493,410,-8298,-20,-1,-2,-2,1
286498,413,-8299,-20,-1,-2,-2,1
286503,422,-8297,-20,-1,-2,-2,1
286508,429,-8296,-24,-1,-3,-2,1
286513,430,-8295,-34,-1,-3,-2,1
286518,432,-8297,-48,-1,-2,-2,1
286523,432,-8298,-60,-1,-2,-2,1
286528,433,-8298,-66,-1,-2,-2,1
286533,438,-8299,-70,-1,-2,-2,1
286538,443,-8299,-69,-1,-2,-2,1
286543,448,-8298,-67,-1,-1,-2,1
286548,454,-8298,-69,-1,-1,-2,1
286553,456,-8297,-72,-1,-1,-2,1
286558,455,-8296,-82,-1,-1,-2,1
286563,449,-8298,-88,-1,-1,-2,1
286568,441,-8299,-87,-1,-1,-2,1
286573,436,-8297,-83,-1,-1,-2,1
286578,431,-8293,-83,-1,-1,-2,1
286583,426,-8292,-75,-1,-1,-2,1
286588,414,-8292,-65,-1,-1,-2,1
286593,403,-8293,-63,-1,-2,-2,1
286598,391,-8298,-58,-1,-2,-2,1
286603,380,-8299,-51,-1,-2,-2,1
286608,376,-8302,-47,-1,-2,-2,1
286613,377,-8301,-40,-1,-2,-2,1
286618,382,-8302,-39,-1,-2,-2,1
286623,391,-8300,-34,-1,-2,-2,1
286628,399,-8299,-31,-1,-2,-2,1
286633,408,-8295,-30,-1,-2,-2,1
286638,412,-8294,-31,-1,-2,-2,1
286643,414,-8293,-31,-1,-2,-2,1
286648,415,-8296,-34,-1,-1,-2,1
286653,420,-8295,-33,-1,-1,-2,1
286658,421,-8295,-29,-1,-1,-2,1
286663,421,-8292,-27,-1,-1,-2,1
286668,420,-8292,-23,-1,-1,-2,1
286673,418,-8292,-21,-1,-1,-2,1
286678,415,-8292,-19,-1,-2,-2,1
286683,410,-8291,-14,-1,-2,-2,1
286688,401,-8293,-10,-1,-2,-2,1
286693,399,-8292,-10,-1,-2,-2,1
286698,401,-8292,-6,-1,-2,-2,1
286703,408,-8293,-4,-1,-2,-2,1
286708,417,-8291,-4,-1,-2,-2,1
286713,427,-8291,-3,-1,-2,-2,1
286718,433,-8291,-9,-1,-2,-2,1
286723,437,-8291,-13,-1,-2,-2,1
286728,441,-8291,-19,-1,-2,-2,1
286733,446,-8293,-22,-1,-2,-2,1
286738,453,-8298,-22,-1,-2,-2,1
286743,459,-8298,-25,-1,-1,-2,1
286748,464,-8299,-29,-1,-1,-2,1
286753,471,-8300,-29,-1,-1,-2,1
286758,473,-8298,-24,-1,-1,-2,1
286763,473,-8299,-16,-1,-1,-2,1
286768,468,-8299,-4,-1,-1,-2,1
286773,463,-8297,8,-1,-1,-2,1
286778,458,-8298,16,-1,-1,-2,1
286783,454,-8300,19,-1,-2,-2,1
286788,449,-8299,21,-1,-2,-2,1
286793,448,-8299,26,-1,-2,-2,1
286798,445,-8298,29,-1,-2,-2,1
286803,442,-8297,30,-1,-2,-2,1
286808,438,-8297,35,-1,-2,-2,1
286813,439,-8296,34,-1,-2,-2,1
286818,443,-8295,31,-1,-2,-2,1
286823,446,-8295,31,-1,-2,-2,1
286828,447,-8296,27,-1,-2,-2,1
286833,452,-8295,24,-1,-2,-2,1
286838,454,-8292,14,-1,-2,-2,1
286843,457,-8297,6,-1,-2,-2,1
286848,456,-8297,2,-1,-2,-2,1
286853,451,-8298,2,-1,-2,-2,1
286858,444,-8300,-1,-1,-2,-2,1
286863,441,-8300,-4,-1,-2,-2,1
286868,431,-8302,-8,-1,-2,-2,1
286873,426,-8303,-12,-1,-2,-2,1
286878,419,-8305,-14,-1,-2,-2,1
286883,418,-8306,-13,-1,-2,-2,1
286888,413,-8304,-21,-1,-2,-2,1
286893,410,-8304,-22,-1,-2,-2,1
286898,409,-8304,-31,-1,-2,-2,1
286903,405,-8306,-40,-1,-2,-2,1
286908,406,-8308,-51,-1,-2,-2,1
286913,408,-8307,-59,-1,-2,-2,1
286918,411,-8305,-64,-1,-2,-2,1
286923,413,-8302,-69,-1,-2,-2,1
286928,418,-8298,-73,-1,-2,-2,1
286933,419,-8296,-76,-1,-2,-2,1
286938,420,-8296,-82,-1,-2,-2,1
286943,421,-8297,-80,-1,-2,-2,1
286948,424,-8297,-78,-1,-2,-2,1
286953,424,-8297,-74,-1,-2,-2,1
286958,422,-8294,-70,-1,-2,-2,1
286963,421,-8296,-61,-1,-2,-2,1
286968,423,-8297,-57,-1,-2,-2,1
286973,428,-8298,-62,-1,-2,-2,1
286978,433,-8298,-60,-1,-2,-2,1
286983,436,-8297,-59,-1,-2,-2,1
286988,437,-8296,-61,-1,-2,-2,1
286993,440,-8291,-62,-1,-2,-2,1
286998,445,-8289,-63,-1,-2,-2,1
287003,450,-8292,-64,-1,-2,-2,1
287008,455,-8290,-67,-1,-2,-2,1
287013,458,-8289,-69,-1,-2,-2,1
287018,462,-8292,-67,-1,-2,-2,1
287023,461,-8293,-61,-1,-2,-2,1
287027,462,-8294,-56,-1,-2,-2,1
287033,462,-8295,-55,-1,-1,-2,1
287037,461,-8298,-49,-1,-1,-2,1
287042,460,-8299,-40,-1,-1,-2,1
287047,456,-8301,-38,-1,-1,-2,1
287052,451,-8301,-34,-1,-2,-2,1
287057,445,-8303,-29,-1,-2,-2,1
287062,444,-8304,-25,-1,-2,-2,1
287067,440,-8301,-22,-1,-2,-2,1
287072,439,-8301,-13,-1,-2,-2,1
287077,437,-8302,-8,-1,-2,-2,1
287082,438,-8301,-10,-1,-2,-2,1
287087,441,-8302,-13,-1,-2,-2,1
287092,444,-8301,-10,-1,-2,-2,1
287098,447,-8300,-6,-1,-2,-2,1
287102,446,-8301,-6,-1,-2,-2,1
287107,444,-8302,-9,-1,-2,-2,1
287112,441,-8301,-17,-1,-2,-2,1
287117,442,-8302,-20,-1,-2,-2,1
287122,442,-8304,-21,-1,-2,-2,1
287127,439,-8304,-25,-1,-2,-2,1
287132,432,-8305,-22,-1,-2,-2,1
287137,424,-8305,-20,-1,-2,-2,1
287142,415,-8303,-11,-1,-2,-2,1
287147,406,-8301,-8,-1,-2,-2,1
287152,400,-8300,-10,-1,-2,-2,1
287157,399,-8301,-6,-1,-2,-2,1
287163,400,-8303,-8,-1,-2,-2,1
287167,404,-8301,-3,-1,-2,-2,1
287172,411,-8301,-3,-1,-2,-2,1
287177,418,-8299,-5,-1,-2,-2,1
287182,425,-8299,-18,-1,-2,-2,1
287187,433,-8300,-27,-1,-2,-2,1
287192,443,-8299,-34,-1,-2,-2,1
287197,455,-8300,-33,-1,-2,-2,1
287202,466,-8300,-35,-1,-2,-2,1
287207,475,-8298,-34,-1,-1,-2,1
287212,482,-8298,-36,-1,-1,-2,1
287217,484,-8299,-38,-1,-1,-2,1
287222,481,-8299,-39,-1,-1,-2,1
287227,473,-8298,-36,-1,-1,-2,1
287232,464,-8295,-32,-1,-1,-2,1
287237,458,-8298,-25,-1,-2,-2,1
287242,446,-8299,-15,-1,-2,-2,1
287247,439,-8302,2,-1,-2,-1,1
287252,432,-8302,14,-1,-2,-2,1
287257,425,-8303,20,-1,-3,-2,1
287262,419,-8302,19,-1,-3,-2,1
287267,418,-8301,21,-1,-3,-1,1
287272,424,-8299,18,-1,-3,-2,1
287277,434,-8296,13,-1,-3,-2,1
287282,446,-8291,6,-1,-3,-2,1
287287,458,-8290,1,-1,-2,-2,1
287292,468,-8290,-6,-1,-2,-1,1
287297,473,-8292,-13,-1,-2,-2,1
287302,473,-8291,-22,-1,-2,-2,1
287307,470,-8292,-26,-1,-2,-1,1
287312,464,-8293,-32,-1,-2,-1,1
287317,459,-8295,-38,-1,-2,-1,1
287322,451,-8295,-42,-1,-2,-1,1
287327,441,-8296,-40,-1,-2,-1,1
287332,432,-8297,-34,-1,-2,-2,1
287337,422,-8296,-29,-1,-2,-2,1
287342,409,-8296,-31,-1,-2,-2,1
287347,400,-8296,-32,-1,-2,-1,1
287352,392,-8294,-30,-1,-3,-1,1
287357,386,-8295,-35,-1,-3,-2,1
287362,391,-8296,-44,-1,-3,-2,1
287367,398,-8296,-46,-1,-3,-1,1
287372,404,-8296,-51,-1,-2,-2,1
287377,409,-8294,-58,-1,-2,-2,1
287382,417,-8292,-68,-1,-2,-2,1
287387,426,-8291,-71,-1,-2,-2,1
287392,431,-8294,-77,-1,-2,-2,1
287397,432,-8296,-79,-1,-2,-2,1
287402,432,-8296,-81,-1,-2,-2,1
287407,434,-8296,-77,-1,-2,-1,1
287412,431,-8294,-79,-1,-1,-2,1
287417,427,-8295,-77,-1,-1,-2,1
287422,424,-8296,-69,-1,-2,-2,1
287427,416,-8296,-64,-1,-2,-1,1
287432,408,-8299,-55,-1,-2,-2,1
287437,402,-8296,-48,-1,-2,-2,1
287442,398,-8297,-35,-1,-2,-2,1
287447,395,-8297,-29,-1,-3,-2,1
287452,394,-8297,-25,-1,-3,-2,1
287457,397,-8296,-29,-1,-3,-2,1
287462,405,-8298,-25,-1,-3,-2,1
287467,412,-8300,-26,-1,-3,-2,1
287472,421,-8303,-23,-1,-3,-2,1
287477,425,-8301,-21,-1,-3,-2,1
287482,433,-8302,-24,-1,-3,-2,1
287487,436,-8300,-25,-1,-2,-2,1
287492,440,-8296,-31,-1,-2,-2,1
287497,443,-8294,-40,-1,-2,-1,1
287502,442,-8295,-47,-1,-2,-2,1
287507,444,-8297,-55,-1,-2,-1,1
287512,444,-8297,-56,-1,-1,-1,1
287517,443,-8298,-55,-1,-1,-1,1
287522,442,-8296,-49,-1,-1,-2,1
287527,438,-8295,-48,-1,-1,-1,1
287532,430,-8295,-44,-1,-2,-1,1
287537,421,-8298,-38,-1,-2,-1,1
287542,411,-8300,-32,-1,-2,-2,1
287547,406,-8301,-25,-1,-2,-1,1
287552,398,-8301,-18,-1,-3,-2,1
287557,393,-8303,-17,-1,-3,-2,1
287562,387,-8302,-14,-1,-3,-2,1
287567,385,-8302,-14,-1,-3,-2,1
287572,385,-8301,-17,-1,-3,-2,1
287577,389,-8301,-22,-1,-3,-2,1
287582,394,-8302,-22,-1,-3,-2,1
287587,398,-8301,-28,-1,-3,-2,1
287592,407,-8299,-29,-1,-3,-2,1
287597,418,-8298,-32,-1,-3,-2,1
287602,428,-8299,-38,-1,-3,-1,1
287607,434,-8300,-42,-1,-3,-2,1
287612,436,-8304,-49,-1,-2,-2,1
287617,442,-8302,-52,-1,-2,-2,1
287622,441,-8299,-51,-1,-2,-2,1
287627,445,-8297,-49,-1,-2,-1,1
287632,447,-8296,-45,-1,-2,-2,1
287637,448,-8297,-40,-1,-2,-2,1
287642,444,-8297,-38,-1,-2,-2,1
287647,438,-8297,-38,-1,-2,-1,1
287652,429,-8295,-34,-1,-2,-2,1
287657,419,-8294,-28,-1,-2,-2,1
287662,412,-8295,-22,-1,-2,-2,1
287667,409,-8297,-22,-1,-3,-2,1
287672,405,-8297,-20,-1,-3,-1,1
287677,404,-8297,-18,-1,-3,-2,1
287682,405,-8297,-17,-1,-3,-2,1
287687,405,-8297,-18,-1,-3,-2,1
287692,404,-8296,-22,-1,-3,-2,1
287697,406,-8296,-26,-1,-3,-2,1
287702,409,-8295,-27,-1,-3,-2,1
287707,411,-8298,-34,-1,-3,-2,1
287712,413,-8299,-42,-1,-3,-2,1
287717,415,-8301,-48,-1,-2,-2,1
287722,418,-8299,-53,-1,-2,-2,1
287727,423,-8298,-53,-1,-2,-2,1
287732,426,-8296,-51,-1,-2,-2,1
287737,428,-8297,-49,-1,-2,-2,1
287742,422,-8298,-46,-1,-2,-1,1
287747,413,-8297,-46,-1,-2,-2,1
287752,406,-8296,-38,-1,-2,-1,1
287757,395,-8298,-30,-1,-2,-1,1
287762,388,-8298,-27,-1,-2,-1,1
287767,382,-8299,-19,-1,-2,-2,1
287772,377,-8301,-11,-1,-3,-2,1
287777,373,-8301,-4,-1,-3,-2,1
287782,369,-8299,2,-1,-3,-2,1
287787,371,-8302,7,-1,-3,-2,1
287792,377,-8301,12,-1,-3,-2,1
287797,385,-8300,11,-1,-3,-1,1
287802,397,-8299,6,-1,-3,-2,1
287807,411,-8299,2,-1,-3,-2,1
287812,422,-8297,-9,-2,-2,-2,1
287817,428,-8297,-14,-1,-2,-2,1
287822,431,-8297,-21,-1,-2,-2,1
287827,427,-8296,-31,-1,-1,-1,1
287832,421,-8294,-39,-1,-1,-2,1
287837,417,-8296,-45,-1,-1,-2,1
287842,414,-8295,-44,-1,-1,-1,1
287847,408,-8293,-42,-1,-1,-1,1
287852,400,-8295,-30,-2,-2,-2,1
287857,388,-8293,-26,-1,-2,-2,1
287862,374,-8293,-29,-1,-2,-2,1
287867,360,-8294,-30,-1,-3,-2,1
287872,350,-8296,-31,-1,-3,-2,1
287877,344,-8300,-37,-2,-3,-2,1
287882,345,-8301,-45,-2,-3,-2,1
287887,350,-8303,-62,-2,-3,-2,1
287892,361,-8301,-77,-1,-3,-2,1
287897,364,-8300,-98,-1,-3,-2,1
287902,365,-8300,-133,-1,-2,-2,1
287907,362,-8297,-181,-1,0,-2,1
287912,347,-8294,-247,-1,2,-1,1
287917,329,-8295,-334,-1,7,-1,1
287922,311,-8292,-443,-1,15,0,1
287927,305,-8290,-577,-1,29,0,1
287932,356,-8284,-738,-1,49,1,1
287937,471,-8277,-919,-1,74,2,1
287942,624,-8266,-1174,-1,100,3,1
287947,751,-8256,-1515,0,137,4,1
287952,861,-8242,-1842,0,185,6,1
287957,961,-8233,-2196,0,243,9,1
287962,1026,-8232,-2509,0,308,12,1
287967,1132,-8232,-2805,0,376,15,1
287972,1249,-8224,-3062,0,442,19,1
287977,1227,-8219,-3421,1,500,22,1
287982,1366,-8217,-3739,2,559,24,1
287987,1625,-8207,-3864,2,628,26,1
287992,1913,-8192,-4067,1,694,28,1
287997,2084,-8143,-4495,1,742,29,1
288002,1947,-8208,-4298,4,772,29,1
288007,1338,-8125,-3600,-4,794,27,1
288012,940,-8069,-3594,-4,814,27,1
288017,144,-8035,-3366,-3,831,28,1
288022,-895,-8023,-2972,1,832,30,1
288027,-1872,-8032,-2905,5,832,32,1
288032,-2745,-8037,-2899,7,838,34,1
288037,-3098,-8097,-2865,9,834,33,1
288042,-3038,-8169,-2711,6,813,31,1
288047,-2844,-8203,-2543,2,767,26,1
288052,-2621,-8216,-2847,1,688,18,1
288057,-2709,-8242,-2544,3,580,11,1
288062,-3266,-8266,-2077,1,473,7,1
288067,-4085,-8311,-1512,-2,376,7,1
288072,-4587,-8349,-508,-4,298,9,1
288077,-4525,-8370,246,-5,223,12,1
288082,-3965,-8363,906,-3,139,13,1
288087,-3234,-8348,1180,0,63,11,1
288092,-2384,-8335,993,2,24,8,1
288097,-1904,-8328,701,3,15,4,1
288102,-1612,-8329,246,2,18,2,1
288107,-1490,-8335,-166,-1,29,1,1
288112,-1536,-8336,-191,-3,35,1,1
288117,-1466,-8331,17,-4,38,2,1
288122,-1320,-8322,399,-4,39,2,1
288127,-1090,-8309,807,-2,32,1,1
288132,-884,-8303,1022,0,22,0,1
288137,-730,-8303,1027,1,13,-1,1
288142,-621,-8309,841,1,8,-2,1
288147,-593,-8315,548,0,8,-2,1
288152,-565,-8322,296,-1,10,-2,1
288157,-490,-8325,189,-3,14,-2,1
288162,-336,-8317,275,-4,19,-2,1
288167,-148,-8311,468,-4,21,-2,1
288172,6,-8308,648,-3,19,-3,1
288177,113,-8304,755,-2,15,-3,1
288182,86,-8306,739,-1,10,-4,1
288187,10,-8311,604,-1,4,-3,1
288192,-65,-8320,435,-2,1,-3,1
288197,-120,-8325,326,-4,-2,-3,1
288202,-69,-8323,302,-5,-2,-2,1
288207,33,-8317,340,-5,-4,-2,1
288212,124,-8308,393,-4,-7,-3,1
288217,214,-8300,425,-4,-8,-3,1
288222,288,-8292,387,-3,-10,-3,1
288227,321,-8290,266,-3,-13,-3,1
288232,352,-8291,105,-3,-16,-3,1
288237,382,-8292,-49,-3,-17,-2,1
288242,433,-8292,-168,-4,-18,-2,1
288247,503,-8288,-221,-4,-18,-2,1
288252,565,-8282,-236,-4,-18,-2,1
288257,621,-8276,-240,-3,-17,-2,1
288262,659,-8272,-266,-3,-17,-2,1
288267,673,-8273,-323,-2,-17,-2,1
288272,666,-8274,-410,-2,-15,-2,1
288277,658,-8274,-508,-2,-13,-2,1
288282,648,-8274,-581,-2,-11,-2,1
288287,653,-8273,-615,-3,-8,-1,1
288292,672,-8272,-624,-3,-6,-1,1
288297,687,-8270,-603,-2,-5,-1,1
288302,693,-8269,-580,-2,-4,-1,1
288307,691,-8269,-579,-2,-4,-1,1
288312,678,-8268,-591,-1,-4,-1,1
288317,662,-8270,-612,-1,-4,-1,1
288322,647,-8274,-640,-1,-4,-1,1
288326,636,-8278,-649,-1,-5,-1,1
288332,640,-8279,-649,-1,-4,-1,1
288337,648,-8279,-638,-1,-5,-1,1
288341,647,-8280,-621,-1,-5,-1,1
288347,649,-8280,-599,-1,-5,0,1
288352,647,-8280,-576,-1,-5,0,1
288357,653,-8278,-560,-1,-3,0,1
288362,669,-8281,-541,-1,-2,0,1
288366,682,-8285,-520,-1,-1,0,1
288371,682,-8288,-502,-1,-1,0,1
288377,670,-8288,-478,-1,0,0,1
288382,645,-8286,-454,-1,0,0,1
288387,618,-8286,-426,0,1,0,1
288391,589,-8289,-409,0,2,0,1
288397,558,-8290,-397,0,2,0,1
288402,521,-8291,-389,0,3,0,1
288406,479,-8290,-390,0,4,0,1
288412,440,-8289,-379,0,5,0,1
288416,399,-8289,-360,0,5,0,1
288421,359,-8291,-335,0,4,0,1
288426,326,-8291,-307,0,3,0,1
288432,289,-8291,-272,0,2,0,1
288436,255,-8292,-246,0,0,0,1
288441,228,-8292,-228,0,-1,0,1
288446,201,-8294,-221,0,-2,0,1
288451,176,-8295,-220,0,-2,0,1
288456,162,-8297,-223,0,-2,0,1
288461,151,-8298,-227,0,-2,0,1
288466,148,-8298,-223,0,-2,0,1
288471,148,-8297,-215,-1,-2,0,1
288476,146,-8295,-199,-1,-2,-1,1
288481,139,-8296,-184,-1,-2,-1,1
288486,132,-8297,-167,-1,-2,-1,1
288491,122,-8299,-152,-1,-2,-1,1
288496,115,-8300,-141,-1,-2,-1,1
288501,109,-8295,-124,-1,-2,-1,1
288506,107,-8293,-119,-1,-3,-1,1
288511,114,-8293,-112,-1,-3,-1,1
288516,121,-8289,-107,-1,-3,-1,1
288521,132,-8289,-106,-1,-4,-1,1
288526,144,-8292,-105,-1,-4,-1,1
288531,151,-8292,-103,-1,-4,-1,1
288536,158,-8291,-121,-1,-4,-1,1
288541,170,-8289,-136,-1,-5,-1,1
288546,179,-8287,-150,-1,-5,-2,1
288551,197,-8287,-163,-1,-5,-1,1
288556,221,-8285,-170,-1,-5,-1,1
288561,245,-8287,-182,-1,-5,-1,1
288566,274,-8291,-185,-1,-5,-1,1
288571,295,-8290,-186,-1,-6,-1,1
288576,307,-8290,-186,-1,-6,-2,1
288581,317,-8292,-183,-1,-7,-2,1
288586,323,-8292,-189,-1,-7,-1,1
288591,328,-8293,-197,-1,-6,-1,1
288596,335,-8293,-201,-1,-6,-1,1
288601,350,-8292,-212,-1,-5,-1,1
288606,363,-8293,-219,-1,-5,-1,1
288611,376,-8292,-230,-1,-5,-1,1
288616,386,-8292,-238,-1,-4,-1,1
288621,389,-8292,-232,-1,-4,-1,1
288626,390,-8290,-232,-1,-4,-1,1
288631,388,-8290,-233,-1,-4,-1,1
288636,385,-8290,-234,-1,-3,-1,1
288641,384,-8289,-230,-1,-3,-1,1
288646,382,-8291,-227,-1,-2,-1,1
288651,382,-8290,-223,-1,-2,-1,1
288656,384,-8292,-217,-1,-2,-1,1
288661,379,-8288,-206,-1,-1,-1,1
288666,373,-8285,-194,-1,-1,-1,1
288671,368,-8283,-183,-1,-1,-1,1
288676,359,-8286,-177,-1,-1,-1,1
288681,345,-8287,-166,-1,-1,-1,1
288686,334,-8289,-159,-1,-1,-1,1
288691,322,-8290,-154,-1,-1,-1,1
288696,308,-8291,-149,-1,-1,-1,1
288701,294,-8292,-140,-1,-1,-1,1
288706,279,-8292,-128,-1,-2,-1,1
288711,260,-8291,-120,-1,-2,-1,1
288716,237,-8291,-124,-1,-2,-1,1
288721,216,-8289,-122,-1,-2,-1,1
288726,198,-8291,-125,-1,-2,-1,1
288731,183,-8294,-131,-1,-2,-1,1
288736,175,-8297,-134,-1,-2,-1,1
288741,168,-8297,-138,-1,-2,-1,1
288746,164,-8296,-127,-1,-2,-1,1
288751,157,-8297,-119,-1,-2,-1,1
288756,152,-8296,-109,-1,-2,-1,1
288761,145,-8297,-102,-1,-2,-2,1
288766,140,-8296,-104,-1,-2,-2,1
288771,139,-8297,-106,-1,-2,-1,1
288776,142,-8299,-111,-1,-2,-2,1
288781,144,-8299,-114,-1,-2,-2,1
288786,147,-8296,-117,-1,-2,-2,1
288791,147,-8294,-119,-1,-2,-2,1
288796,145,-8290,-115,-1,-3,-2,1
288801,144,-8291,-119,-1,-3,-2,1
288806,143,-8291,-127,-1,-3,-2,1
288811,139,-8290,-129,-1,-4,-2,1
288816,145,-8290,-139,-1,-4,-2,1
288821,150,-8289,-146,-1,-5,-2,1
288826,151,-8289,-150,-1,-6,-2,1
288831,151,-8292,-164,-1,-6,-2,1
288836,150,-8290,-173,-1,-6,-2,1
288841,155,-8287,-184,-1,-5,-2,1
288846,164,-8287,-189,-1,-5,-2,1
288851,176,-8286,-198,-1,-4,-2,1
288856,190,-8286,-206,-1,-4,-2,1
288861,210,-8288,-204,-1,-3,-2,1
288866,226,-8293,-191,-1,-3,-2,1
288871,239,-8296,-177,-1,-3,-2,1
288876,252,-8300,-167,-1,-2,-2,1
288881,261,-8300,-156,-1,-2,-2,1
288886,271,-8300,-147,-1,-2,-2,1
288891,281,-8298,-137,-1,-2,-2,1
288896,289,-8299,-135,-1,-2,-2,1
288901,297,-8299,-133,-1,-2,-2,1
288906,304,-8301,-133,-1,-2,-2,1
288911,309,-8299,-138,-1,-3,-2,1
288916,315,-8297,-143,-2,-3,-2,1
288921,316,-8295,-144,-2,-3,-2,1
288926,315,-8294,-152,-2,-3,-2,1
288931,312,-8293,-167,-2,-3,-2,1
288936,307,-8293,-187,-2,-3,-2,1
288941,308,-8292,-210,-2,-3,-2,1
288946,310,-8291,-221,-2,-2,-2,1
288951,320,-8290,-227,-2,-1,-2,1
288956,328,-8289,-220,-2,-1,-2,1
288961,332,-8290,-206,-2,-1,-2,1
288966,330,-8292,-185,-2,-1,-2,1
288971,323,-8292,-168,-2,-1,-2,1
288976,314,-8291,-154,-2,-1,-2,1
288981,304,-8295,-150,-2,-1,-2,1
288986,295,-8298,-151,-2,-1,-2,1
288991,293,-8295,-156,-2,-1,-2,1
288996,290,-8294,-160,-2,-1,-2,1
289001,290,-8297,-164,-2,-1,-2,1
289006,285,-8299,-162,-2,-1,-2,1
289011,273,-8300,-164,-2,-2,-2,1
289016,262,-8300,-170,-2,-2,-2,1
289021,253,-8300,-177,-2,-2,-2,1
289026,246,-8302,-184,-2,-2,-2,1
289031,248,-8303,-190,-2,-2,-2,1
289036,254,-8303,-196,-2,-2,-2,1
289041,261,-8302,-202,-2,-2,-2,1
289046,269,-8301,-205,-2,-2,-2,1
289051,272,-8298,-205,-2,-2,-2,1
289056,268,-8298,-201,-2,-2,-2,1
289061,265,-8300,-203,-2,-2,-2,1
289066,264,-8299,-208,-2,-2,-2,1
289071,268,-8297,-215,-2,-2,-2,1
289076,273,-8296,-232,-2,-2,-2,1
289081,278,-8297,-247,-2,-1,-2,1
289086,287,-8295,-250,-2,-1,-2,1
289091,292,-8297,-249,-2,-1,-2,1
289096,293,-8296,-247,-2,-1,-2,1
289101,289,-8297,-246,-2,-1,-2,1
289106,284,-8297,-247,-2,-1,-2,1
289111,279,-8294,-248,-2,-2,-2,1
289116,280,-8296,-252,-2,-2,-2,1
289121,280,-8296,-258,-2,-2,-2,1
289126,283,-8295,-264,-2,-2,-2,1
289131,288,-8292,-272,-2,-2,-2,1
289136,288,-8292,-277,-1,-2,-2,1
289141,290,-8293,-276,-1,-2,-2,1
289146,293,-8295,-275,-2,-2,-2,1
289151,297,-8299,-269,-2,-2,-2,1
289156,299,-8300,-262,-1,-2,-2,1
289161,305,-8298,-256,-1,-2,-2,1
289166,314,-8294,-246,-1,-2,-2,1
289171,321,-8291,-240,-1,-2,-2,1
289176,324,-8290,-238,-1,-2,-2,1
289181,327,-8291,-233,-1,-2,-2,1
289186,331,-8288,-228,-1,-2,-2,1
289191,335,-8288,-220,-1,-2,-2,1
289196,340,-8287,-224,-1,-2,-2,1
289201,343,-8287,-230,-1,-2,-2,1
289206,343,-8289,-232,-1,-2,-2,1
289211,344,-8288,-238,-1,-2,-2,1
289216,343,-8284,-243,-1,-3,-2,1
289221,340,-8279,-248,-1,-3,-2,1
289226,337,-8277,-246,-1,-3,-2,1
289231,334,-8279,-249,-1,-3,-2,1
289236,336,-8281,-252,-1,-3,-2,1
289241,340,-8281,-256,-1,-3,-2,1
289246,348,-8280,-259,-1,-3,-2,1
289251,356,-8282,-261,-1,-3,-2,1
289256,367,-8282,-259,-1,-3,-2,1
289261,375,-8281,-250,-1,-3,-2,1
289266,380,-8284,-237,-1,-3,-2,1
289271,381,-8288,-226,-1,-3,-2,1
289276,381,-8291,-216,-1,-2,-2,1
289281,385,-8290,-208,-1,-2,-2,1
289286,387,-8288,-206,-1,-2,-2,1
289291,392,-8288,-205,-1,-3,-2,1
289296,395,-8287,-204,-1,-3,-2,1
289301,405,-8284,-210,-1,-3,-2,1
289306,409,-8285,-209,-1,-3,-2,1
289311,413,-8283,-208,-1,-3,-2,1
289316,417,-8284,-208,-1,-3,-2,1
289321,416,-8282,-203,-1,-3,-2,1
289326,416,-8283,-199,-1,-3,-2,1
289331,419,-8284,-193,-1,-2,-2,1
289336,425,-8284,-198,-1,-2,-2,1
289341,434,-8284,-200,-1,-2,-1,1
289346,444,-8288,-200,-1,-2,-1,1
289351,453,-8291,-194,-1,-1,-1,1
289356,463,-8291,-182,-2,-1,-1,1
289361,470,-8294,-171,-2,-1,-1,1
289366,474,-8295,-154,-2,-1,-1,1
289371,477,-8297,-155,-1,-1,-1,1
289376,478,-8297,-164,-1,-1,-1,1
289381,475,-8296,-176,-1,-1,-1,1
289386,472,-8298,-190,-2,-1,-1,1
289391,466,-8299,-202,-2,-1,-1,1
289396,457,-8301,-210,-2,-1,-1,1
289401,445,-8299,-214,-2,-1,-1,1
289406,434,-8299,-220,-2,-1,-1,1
289411,425,-8299,-236,-1,-1,-1,1
289416,417,-8297,-250,-1,-1,-1,1
289421,406,-8299,-265,-1,-1,-1,1
289426,395,-8300,-283,-1,-1,-1,1
289431,383,-8300,-306,-1,-1,-1,1
289436,369,-8296,-320,-1,-1,-1,1
289441,363,-8293,-326,-1,-1,-1,1
289446,356,-8290,-330,-1,-1,-1,1
289451,353,-8288,-332,-1,-1,-1,1
289456,352,-8288,-331,-1,0,-1,1
289461,350,-8287,-332,-1,0,-1,1
289466,345,-8286,-349,-1,0,-1,1
289471,338,-8285,-362,-1,0,-1,1
289476,324,-8285,-371,-1,0,-1,1
289481,317,-8285,-374,-1,0,-1,1
289486,311,-8284,-375,-1,0,-1,1
289491,313,-8281,-373,-1,1,-1,1
289496,314,-8280,-368,-1,0,-1,1
289501,315,-8282,-368,-1,0,-1,1
289506,312,-8284,-362,-1,0,-1,1
289511,305,-8283,-359,-1,-1,-1,1
289516,298,-8282,-358,-1,-1,-1,1
289521,291,-8283,-360,-1,-1,-1,1
289526,289,-8284,-362,-1,-1,-1,1
289531,294,-8284,-360,-1,-1,-1,1
289536,302,-8286,-359,0,-1,-1,1
289541,310,-8289,-354,0,-1,-1,1
289546,319,-8290,-348,0,-1,-1,1
289551,327,-8291,-336,0,-1,-1,1
289556,336,-8292,-322,0,-1,-1,1
289561,343,-8290,-309,0,-1,-1,1
289566,352,-8289,-293,0,-1,0,1
289571,361,-8288,-284,0,-1,0,1
289576,374,-8287,-284,0,-1,0,1
289581,382,-8286,-279,0,0,0,1
289586,390,-8286,-274,0,0,0,1
289591,395,-8283,-267,0,0,0,1
289596,398,-8282,-257,0,0,0,1
289601,396,-8283,-243,0,0,0,1
289606,392,-8285,-226,0,1,0,1
289611,391,-8288,-214,0,1,0,1
289616,390,-8289,-209,0,1,0,1
289621,387,-8289,-209,0,1,0,1
289626,383,-8288,-216,0,1,0,1
289631,380,-8289,-218,0,1,0,1
289636,373,-8287,-216,0,1,0,1
289641,359,-8286,-206,0,2,0,1
289646,349,-8287,-188,0,2,0,1
289651,339,-8289,-175,0,2,0,1
289656,328,-8290,-167,0,2,0,1
289661,317,-8290,-166,0,2,0,1
289666,306,-8290,-169,0,2,0,1
289671,300,-8291,-168,0,2,0,1
289676,286,-8289,-164,0,2,0,1
289681,269,-8293,-156,-1,2,0,1
289686,251,-8292,-150,-1,2,0,1
289691,229,-8291,-144,-1,2,0,1
289696,209,-8293,-138,-1,2,0,1
289701,194,-8293,-137,-1,1,0,1
289706,181,-8293,-138,-1,1,0,1
289711,170,-8294,-140,-1,0,0,1
289716,157,-8293,-137,-1,0,0,1
289721,143,-8293,-137,-1,0,0,1
289726,128,-8295,-138,-1,-1,-1,1
289731,111,-8296,-139,-1,-1,-1,1
289736,98,-8293,-141,-1,-1,-1,1
289740,88,-8292,-152,-1,-1,-1,1
289746,83,-8292,-156,-1,-1,-1,1
289750,81,-8293,-158,-1,-1,-1,1
289756,82,-8293,-165,-1,-1,-1,1
289760,81,-8293,-163,-1,-1,-1,1
289766,78,-8292,-160,-1,-2,-1,1
289770,81,-8292,-160,-1,-2,-1,1
289776,88,-8289,-165,-1,-2,-1,1
289780,96,-8288,-173,-1,-2,-1,1
289786,113,-8288,-184,-1,-1,-1,1
289791,133,-8289,-189,-1,-2,-1,1
289796,147,-8291,-186,-1,-2,-1,1
289800,163,-8293,-175,-1,-2,-1,1
289806,172,-8292,-162,-1,-2,-1,1
289810,181,-8293,-155,-1,-3,-1,1
289816,192,-8293,-150,-1,-3,-1,1
289820,207,-8294,-148,-1,-3,-1,1
289826,225,-8294,-153,-1,-3,-1,1
289830,247,-8292,-154,-1,-3,-1,1
289836,269,-8293,-151,-1,-3,-1,1
289840,289,-8293,-145,-1,-3,-1,1
289846,306,-8293,-143,-1,-3,-1,1
289850,318,-8295,-141,-1,-3,-1,1
289856,325,-8294,-142,-1,-3,-1,1
289860,333,-8290,-143,-1,-3,-1,1
289866,339,-8292,-153,-1,-2,-1,1
289870,349,-8292,-163,-1,-1,-1,1
289875,362,-8289,-173,-1,-1,0,1
289881,373,-8288,-171,-1,0,0,1
289885,382,-8289,-169,-1,0,0,1
289890,386,-8289,-164,-1,0,0,1
289895,384,-8290,-156,-1,1,0,1
289900,381,-8291,-153,-1,1,0,1
289905,378,-8291,-150,-1,2,0,1
289910,372,-8290,-153,-1,2,0,1
289915,365,-8292,-156,-1,3,0,1
289920,355,-8292,-160,-1,3,0,1
289925,346,-8290,-159,-1,3,0,1
289930,333,-8290,-152,-1,3,0,1
289935,318,-8289,-139,-1,3,0,1
289940,299,-8291,-133,-1,3,0,1
289945,277,-8292,-130,-1,2,0,1
289950,256,-8295,-134,-1,2,0,1
289955,238,-8296,-140,-1,2,0,1
289960,221,-8298,-141,-1,2,0,1
289965,203,-8299,-148,-1,2,0,1
289970,187,-8299,-152,-1,2,0,1
289975,170,-8296,-156,-1,2,0,1
289980,149,-8298,-153,-1,1,0,1
289985,133,-8297,-148,-1,1,0,1
289990,119,-8297,-144,-1,1,0,1
289995,105,-8296,-149,-1,0,0,1
290000,92,-8295,-154,-1,0,0,1
290005,79,-8293,-159,-1,0,0,1
290010,67,-8294,-166,-1,0,0,1
290015,57,-8290,-163,-1,0,0,1
290020,51,-8287,-162,-1,0,0,1
290025,43,-8286,-163,-1,0,-1,1
290030,39,-8285,-156,-1,-1,-1,1
290035,37,-8285,-143,-1,-1,-1,1
290040,36,-8284,-137,-1,-1,-1,1
290045,33,-8284,-134,-1,-2,-1,1
290050,29,-8284,-128,-1,-2,-1,1
290055,26,-8287,-128,-1,-2,-1,1
290060,25,-8290,-127,-1,-2,-1,1
290065,23,-8288,-132,-1,-2,-1,1
290070,20,-8286,-135,-1,-2,-1,1
290075,20,-8283,-144,-1,-2,-1,1
290080,19,-8285,-150,-1,-2,-1,1
290085,16,-8287,-157,-1,-2,-1,1
290090,11,-8290,-160,-1,-3,-1,1
290095,4,-8293,-168,-1,-3,-1,1
290100,-2,-8291,-179,-1,-3,-1,1
290105,-7,-8293,-186,-1,-3,-1,1
290110,-12,-8292,-190,-1,-4,-2,1
290115,-19,-8292,-200,-1,-4,-2,1
290120,-21,-8291,-204,-1,-4,-2,1
290125,-19,-8292,-207,-1,-4,-1,1
290130,-14,-8291,-215,-1,-4,-2,1
290135,-5,-8290,-219,-1,-4,-2,1
290140,4,-8291,-228,-1,-4,-2,1
290145,19,-8291,-237,-1,-4,-2,1
290150,30,-8291,-241,-1,-3,-2,1
290155,38,-8290,-247,-1,-3,-2,1
290160,47,-8290,-240,-1,-3,-2,1
290165,52,-8289,-226,-1,-3,-2,1
290170,55,-8290,-213,-1,-3,-2,1
290175,60,-8290,-207,-1,-3,-2,1
290180,70,-8288,-196,-1,-3,-2,1
290185,81,-8287,-185,-1,-3,-2,1
290190,93,-8290,-171,-1,-3,-2,1
290195,103,-8289,-156,-1,-3,-2,1
290200,110,-8290,-144,-1,-3,-2,1
290205,117,-8290,-136,-1,-3,-2,1
290210,118,-8289,-132,-1,-3,-2,1
290215,119,-8286,-122,-1,-3,-2,1
290220,119,-8286,-109,-1,-3,-2,1
290225,127,-8289,-102,-1,-2,-2,1
290230,136,-8288,-93,-1,-2,-2,1
290235,143,-8287,-82,-1,-2,-2,1
290240,147,-8287,-73,-1,-2,-2,1
290245,152,-8290,-71,-1,-2,-2,1
290250,153,-8291,-65,-1,-2,-2,1
290255,148,-8291,-60,-2,-2,-2,1
290260,139,-8293,-56,-2,-2,-2,1
290265,130,-8294,-55,-2,-1,-2,1
290270,125,-8296,-55,-2,-1,-2,1
290275,122,-8296,-61,-2,-1,-2,1
290280,115,-8298,-69,-2,-1,-2,1
290285,107,-8301,-73,-2,-1,-2,1
290290,96,-8302,-80,-2,-1,-2,1
290295,82,-8302,-87,-2,-1,-2,1
290300,63,-8302,-99,-2,-2,-2,1
290305,48,-8304,-109,-2,-2,-2,1
290310,35,-8303,-119,-2,-2,-2,1
290315,24,-8303,-127,-2,-3,-2,1
290320,19,-8302,-136,-2,-3,-2,1
290325,15,-8304,-136,-2,-3,-2,1
290330,12,-8301,-133,-2,-3,-2,1
290335,12,-8297,-133,-2,-3,-2,1
290340,14,-8296,-134,-2,-3,-3,1
290345,16,-8297,-143,-2,-3,-3,1
290350,19,-8298,-150,-2,-3,-3,1
290355,21,-8296,-153,-2,-3,-3,1
290360,24,-8295,-155,-2,-3,-3,1
290365,28,-8295,-156,-2,-3,-3,1
290370,34,-8293,-159,-2,-3,-3,1
290375,40,-8291,-163,-2,-3,-3,1
290380,46,-8291,-164,-2,-3,-3,1
290385,52,-8292,-168,-2,-3,-3,1
290390,56,-8291,-174,-2,-3,-3,1
290395,60,-8294,-180,-2,-3,-3,1
290400,65,-8298,-186,-2,-4,-3,1
290405,70,-8299,-188,-2,-4,-3,1
290410,73,-8297,-196,-2,-4,-3,1
290415,75,-8295,-198,-2,-4,-3,1
290420,77,-8296,-205,-2,-5,-3,1
290425,78,-8297,-208,-2,-5,-3,1
290430,84,-8297,-215,-2,-5,-3,1
290435,93,-8296,-214,-2,-5,-3,1
290440,102,-8294,-216,-2,-5,-3,1
290445,116,-8295,-218,-2,-5,-3,1
290450,132,-8293,-217,-2,-5,-3,1
290455,144,-8291,-216,-2,-5,-3,1
290460,155,-8290,-215,-2,-4,-3,1
290465,163,-8290,-213,-2,-4,-3,1
290470,171,-8292,-213,-2,-4,-3,1
290475,179,-8291,-210,-2,-4,-3,1
290480,185,-8293,-213,-2,-3,-3,1
290485,191,-8293,-216,-2,-3,-3,1
290490,198,-8290,-217,-2,-3,-3,1
290495,206,-8288,-215,-2,-3,-3,1
290500,213,-8289,-216,-2,-3,-3,1
290505,217,-8288,-221,-2,-3,-3,1
290510,218,-8289,-227,-2,-3,-3,1
290515,219,-8288,-235,-2,-4,-3,1
290520,218,-8289,-243,-2,-4,-3,1
290525,223,-8290,-254,-2,-4,-3,1
290530,230,-8290,-258,-1,-4,-3,1
290535,237,-8290,-256,-1,-4,-3,1
290540,245,-8289,-256,-1,-4,-3,1
290545,251,-8287,-256,-1,-4,-3,1
290550,259,-8288,-260,-1,-4,-3,1
290555,266,-8290,-254,-1,-4,-3,1
290560,271,-8293,-251,-1,-4,-3,1
290565,272,-8293,-247,-1,-3,-3,1
290570,274,-8292,-236,-1,-3,-3,1
290575,276,-8291,-227,-1,-2,-3,1
290580,278,-8289,-221,-1,-2,-3,1
290585,280,-8290,-217,-1,-2,-3,1
290590,277,-8289,-213,-1,-1,-3,1
290595,272,-8288,-209,-1,-1,-3,1
290600,269,-8289,-201,-1,-1,-3,1
290605,267,-8291,-198,-1,-1,-3,1
290610,267,-8293,-193,-1,-1,-3,1
290615,270,-8296,-185,-1,-1,-3,1
290620,273,-8295,-179,-2,-2,-3,1
290625,277,-8295,-173,-2,-2,-3,1
290630,279,-8294,-172,-2,-2,-3,1
290635,279,-8294,-171,-2,-2,-3,1
290640,280,-8292,-174,-2,-2,-3,1
290645,279,-8291,-177,-2,-2,-3,1
290650,281,-8295,-183,-2,-2,-3,1
290655,283,-8296,-186,-2,-2,-3,1
290660,291,-8295,-193,-2,-2,-2,1
290665,297,-8293,-206,-2,-2,-3,1
290670,300,-8290,-215,-2,-2,-3,1
290675,301,-8292,-220,-2,-2,-2,1
290680,299,-8289,-224,-2,-2,-3,1
290685,297,-8289,-230,-2,-2,-2,1
290690,297,-8289,-239,-2,-2,-2,1
290695,301,-8287,-250,-2,-2,-2,1
290700,308,-8288,-261,-1,-2,-2,1
290705,315,-8290,-269,-1,-2,-2,1
290710,322,-8289,-280,-1,-2,-2,1
290715,330,-8288,-287,-1,-2,-2,1
290720,339,-8285,-299,-1,-2,-2,1
290725,345,-8284,-308,-1,-2,-2,1
290730,352,-8284,-313,-1,-2,-2,1
290735,361,-8285,-310,-1,-2,-2,1
290740,373,-8283,-308,-1,-2,-2,1
290745,387,-8282,-306,-1,-2,-2,1
290750,399,-8282,-303,-1,-2,-2,1
290755,411,-8281,-303,-1,-2,-2,1
290760,418,-8281,-299,-1,-2,-2,1
290765,425,-8281,-293,-1,-2,-2,1
290770,430,-8280,-295,-1,-2,-2,1
290775,429,-8280,-295,-1,-2,-2,1
290780,426,-8280,-292,-1,-2,-2,1
290785,424,-8279,-293,-1,-2,-2,1
290790,419,-8279,-289,-1,-2,-2,1
290795,413,-8278,-286,-1,-2,-1,1
290800,402,-8279,-283,-1,-2,-1,1
290805,394,-8282,-280,-1,-2,-1,1
290810,385,-8283,-269,-1,-2,-1,1
290815,372,-8282,-266,-1,-2,-1,1
290820,360,-8282,-260,-1,-2,-1,1
290825,348,-8282,-257,-1,-2,-1,1
290830,338,-8285,-255,-1,-2,-1,1
290835,335,-8284,-242,-1,-2,-1,1
290840,337,-8283,-231,-1,-2,-1,1
290845,339,-8285,-222,-1,-2,-1,1
290850,336,-8286,-215,-1,-2,-1,1
290855,335,-8287,-204,-1,-1,-1,1
290860,333,-8285,-190,-1,-1,-1,1
290865,332,-8286,-178,-1,-1,-1,1
290870,335,-8287,-167,-1,-1,-1,1
290875,334,-8285,-160,-1,-1,-1,1
290880,332,-8284,-159,-1,-1,-1,1
290885,327,-8285,-163,-1,-1,-1,1
290890,325,-8287,-167,-1,-1,-1,1
290895,320,-8287,-176,-1,-1,-1,1
290900,310,-8287,-187,-1,-1,-1,1
290905,302,-8286,-199,-1,-1,-1,1
290910,296,-8288,-215,-1,-1,-1,1
290915,290,-8289,-226,-1,-1,-1,1
290920,284,-8287,-235,-1,-1,-1,1
290925,280,-8287,-242,-1,-1,-1,1
290930,274,-8290,-248,-1,-2,-1,1
290935,270,-8290,-248,-1,-2,-1,1
290940,266,-8289,-246,-1,-2,-1,1
290945,260,-8289,-245,-1,-2,-1,1
290950,254,-8291,-247,-1,-2,-1,1
290955,252,-8292,-254,-1,-2,-1,1
290960,257,-8297,-254,-1,-2,-1,1
290965,262,-8298,-255,-1,-1,-1,1
290970,263,-8296,-261,-1,-1,-1,1
290975,261,-8295,-260,-1,-1,-1,1
290980,256,-8297,-258,-1,-1,-1,1
290985,249,-8297,-259,-1,-1,-1,1
290990,240,-8295,-262,-1,0,-1,1
290995,238,-8293,-262,-1,0,-1,1
291000,234,-8289,-265,-1,0,-1,1
291005,231,-8290,-266,-1,0,-1,1
291010,229,-8289,-265,-1,-1,-1,1
291015,224,-8287,-260,-1,-1,-1,1
291020,214,-8288,-252,-1,-1,-1,1
291025,207,-8289,-246,-1,-1,-1,1
291030,205,-8289,-236,-1,-1,-1,1
291035,203,-8286,-229,-1,-2,-1,1
291040,201,-8287,-229,-1,-2,-1,1
291045,207,-8288,-226,-1,-1,-1,1
291050,211,-8287,-227,-1,-1,-1,1
291055,213,-8287,-222,-1,-1,-1,1
291060,211,-8288,-215,-1,-1,-1,1
291065,210,-8288,-201,-1,-1,-1,1
291070,206,-8288,-194,-1,-1,-1,1
291075,203,-8287,-186,-1,-1,-1,1
291079,204,-8286,-180,-1,-1,-1,1
291085,204,-8288,-174,-1,-1,-1,1
291090,205,-8289,-170,-1,-1,-1,1
291094,206,-8290,-162,-1,-1,-1,1
291100,202,-8294,-150,-1,-1,-1,1
291105,200,-8294,-140,-1,-1,-1,1
291109,197,-8292,-130,-1,-1,-1,1
291115,194,-8291,-126,-1,-1,-1,1
291120,192,-8291,-125,-1,-1,-1,1
291125,190,-8293,-122,-1,-1,-1,1
291129,187,-8290,-122,-1,-1,-1,1
291134,187,-8291,-119,-1,-1,-1,1
291139,188,-8293,-114,-1,-1,-1,1
291145,186,-8294,-111,-1,-1,-1,1
291149,183,-8295,-109,-1,-1,-1,1
291155,182,-8299,-111,-1,-1,-1,1
291159,178,-8300,-106,-1,-1,-1,1
291164,178,-8298,-109,-1,-1,-1,1
291169,180,-8300,-115,-1,-1,-1,1
291175,176,-8301,-124,-1,-1,-1,1
291179,173,-8301,-134,-1,-1,-1,1
291185,170,-8299,-138,-1,-1,-1,1
291189,166,-8298,-134,-1,-1,-1,1
291194,160,-8295,-144,-1,-1,-1,1
291200,157,-8292,-158,-1,-1,-1,1
291204,151,-8290,-175,-1,-1,-1,1
291209,145,-8292,-192,-1,-1,-1,1
291215,140,-8291,-201,-1,-2,-1,1
291219,134,-8290,-205,-1,-2,-1,1
291225,131,-8290,-206,-1,-2,-1,1
291229,130,-8288,-204,-1,-2,-1,1
291234,132,-8289,-206,-1,-2,-1,1
291239,134,-8290,-200,-1,-2,-1,1
291244,136,-8286,-203,-1,-2,-1,1
291249,133,-8288,-206,-1,-2,-1,1
291254,128,-8290,-208,-1,-2,-1,1
291259,122,-8292,-220,-1,-2,-1,1
291264,117,-8293,-223,-1,-2,-1,1
291269,111,-8294,-220,-1,-2,-1,1
291274,108,-8294,-219,-1,-2,-1,1
291279,107,-8296,-221,-1,-1,-1,1
291284,111,-8295,-232,-1,-1,-1,1
291289,116,-8296,-241,-1,-1,-1,1
291294,115,-8296,-249,-1,-1,-2,1
291299,114,-8295,-255,-1,0,-2,1
291304,114,-8296,-257,-1,0,-2,1
291309,113,-8295,-253,-1,0,-2,1
291314,108,-8294,-251,-1,0,-2,1
291319,110,-8295,-251,-1,0,-2,1
291324,111,-8294,-249,-1,0,-2,1
291329,116,-8292,-248,-1,0,-1,1
291334,123,-8292,-246,-1,0,-2,1
291339,130,-8293,-248,-1,0,-2,1
291344,138,-8294,-245,-1,0,-2,1
291349,144,-8294,-241,-1,0,-2,1
291354,144,-8294,-239,-1,0,-2,1
291359,144,-8292,-237,-1,0,-2,1
291364,146,-8292,-234,-1,1,-2,1
291369,150,-8291,-231,-1,1,-2,1
291374,160,-8292,-224,-1,1,-2,1
291379,173,-8291,-223,-1,1,-2,1
291384,183,-8291,-226,-1,1,-2,1
291389,188,-8289,-220,-1,1,-2,1
291394,189,-8289,-217,-1,1,-2,1
291399,188,-8287,-213,-1,1,-2,1
291404,189,-8287,-213,-1,1,-2,1
291409,190,-8288,-213,-1,1,-2,1
291414,191,-8288,-211,-1,1,-2,1
291419,197,-8288,-212,-1,1,-2,1
291424,206,-8289,-214,-1,1,-2,1
291429,211,-8288,-215,-1,1,-2,1
291434,215,-8289,-215,-1,0,-2,1
291439,218,-8290,-208,-1,0,-2,1
291444,216,-8290,-204,-1,1,-2,1
291449,214,-8290,-205,-1,1,-1,1
291454,219,-8290,-202,-1,2,-1,1
291459,225,-8291,-200,-1,1,-1,1
291464,227,-8289,-197,-1,1,-1,1
291469,230,-8289,-190,-1,0,-1,1
291474,229,-8290,-187,-1,0,-1,1
291479,226,-8291,-174,-1,-1,-1,1
291484,220,-8291,-160,-1,-1,-1,1
291489,221,-8292,-161,-1,-1,-1,1
291494,220,-8292,-157,-1,-2,-1,1
291499,212,-8292,-151,-1,-2,-1,1
291504,205,-8293,-141,-1,-2,-1,1
291509,193,-8294,-131,-1,-2,-1,1
291514,182,-8292,-129,-1,-2,-2,1
291519,180,-8293,-120,-2,-2,-2,1
291524,169,-8294,-108,-2,-2,-1,1
291529,167,-8295,-114,-2,-2,-2,1
291534,163,-8295,-122,-2,-2,-1,1
291539,158,-8296,-144,-2,-3,-1,1
291544,153,-8295,-156,-2,-2,-1,1
291549,148,-8295,-169,-2,-1,-2,1
291554,145,-8295,-179,-2,-1,-2,1
291559,142,-8298,-178,-2,-1,-1,1
291564,139,-8298,-174,-2,-1,-2,1
291569,139,-8299,-160,-2,-1,-2,1
291574,129,-8299,-155,-2,-2,-2,1
291579,120,-8297,-151,-2,-2,-2,1
291584,109,-8295,-145,-2,-2,-2,1
291589,104,-8294,-152,-2,-2,-2,1
291594,105,-8296,-162,-2,-2,-2,1
291599,106,-8298,-181,-2,-3,-2,1
291604,103,-8299,-192,-2,-3,-2,1
291609,105,-8297,-204,-2,-2,-2,1
291614,101,-8297,-212,-2,-2,-2,1
291619,101,-8297,-221,-2,-1,-2,1
291624,100,-8293,-232,-2,-2,-2,1
291629,102,-8294,-247,-2,-2,-2,1
291634,109,-8292,-259,-2,-2,-2,1
291639,111,-8293,-262,-2,-1,-2,1
291644,117,-8291,-273,-2,-1,-2,1
291649,123,-8290,-278,-2,-1,-2,1
291654,125,-8292,-292,-2,-1,-2,1
291659,131,-8293,-303,-1,-1,-2,1
291664,125,-8292,-298,-1,-2,-2,1
291669,120,-8291,-298,-1,-2,-2,1
291674,120,-8291,-292,-1,-3,-2,1
291679,122,-8293,-295,-1,-3,-2,1
291684,125,-8294,-292,-1,-4,-2,1
291689,132,-8294,-282,-1,-5,-2,1
291694,145,-8295,-263,-1,-6,-2,1
291699,148,-8296,-226,-1,-7,-2,1
291704,166,-8294,-194,-1,-9,-2,1
291709,179,-8290,-154,-1,-13,-3,1
291714,198,-8288,-109,-1,-18,-3,1
291719,213,-8288,-48,-1,-25,-3,1
291724,221,-8287,16,-1,-34,-3,1
291729,218,-8287,83,-1,-44,-4,1
291734,213,-8290,158,-1,-54,-4,1
291739,213,-8291,237,-1,-67,-4,1
291744,211,-8295,315,-1,-83,-4,1
291749,206,-8298,412,-1,-102,-5,1
291754,183,-8302,520,-1,-124,-6,1
291759,136,-8305,615,-1,-151,-6,1
291764,57,-8310,712,-1,-180,-7,1
291769,-46,-8319,810,-1,-212,-8,1
291774,-146,-8321,915,-1,-247,-9,1
291779,-242,-8325,1020,-2,-288,-10,1
291784,-366,-8328,1125,-2,-335,-11,1
291789,-540,-8330,1241,-2,-385,-13,1
291794,-768,-8329,1345,-2,-438,-15,1
291799,-1068,-8331,1453,-2,-491,-17,1
291804,-1409,-8334,1536,-2,-545,-18,1
291809,-1812,-8338,1600,-2,-598,-20,1
291814,-2287,-8337,1630,-2,-649,-22,1
291819,-2847,-8341,1626,-2,-698,-24,1
291824,-3555,-8351,1620,-2,-741,-26,1
291829,-4349,-8358,1584,-3,-775,-28,1
291834,-5177,-8364,1504,-3,-798,-30,1
291839,-5929,-8366,1393,-5,-808,-32,1
291844,-6468,-8357,1274,-6,-807,-33,1
291849,-6780,-8333,1116,-6,-802,-35,1
291854,-6845,-8295,829,-7,-793,-35,1
291859,-6706,-8254,401,-7,-777,-36,1
291864,-6390,-8213,-203,-7,-754,-35,1
291869,-5847,-8186,-914,-7,-724,-33,1
291874,-5037,-8163,-1681,-7,-694,-31,1
291879,-4010,-8137,-2421,-7,-663,-29,1
291884,-2911,-8117,-3102,-7,-622,-26,1
291889,-1844,-8096,-3864,-7,-560,-23,1
291894,-846,-8078,-4708,-6,-473,-20,1
291899,2,-8075,-5577,-5,-367,-16,1
291904,674,-8083,-6510,-4,-252,-11,1
291909,1212,-8099,-7328,-4,-136,-6,1
291914,1712,-8115,-7849,-5,-30,-1,1
291919,2105,-8120,-7982,-6,55,4,1
291924,2387,-8117,-7661,-6,127,7,1
291929,2650,-8104,-7007,-4,183,9,1
291934,2819,-8094,-6229,-1,213,10,1
291939,2791,-8093,-5501,2,219,9,1
291944,2541,-8110,-4911,5,209,9,1
291949,2129,-8137,-4463,6,191,9,1
291954,1649,-8168,-4031,5,170,9,1
291959,1163,-8194,-3494,4,148,9,1
291964,749,-8213,-2786,3,124,8,1
291969,417,-8221,-1961,2,101,7,1
291974,130,-8227,-1139,3,77,5,1
291979,-161,-8236,-444,4,51,3,1
291984,-494,-8256,26,5,27,2,1
291989,-867,-8285,208,5,6,1,1
291994,-1143,-8304,299,4,-6,0,1
291999,-1278,-8333,359,2,-11,0,1
292004,-1252,-8342,464,0,-15,0,1
292009,-1159,-8336,631,-1,-20,-1,1
292014,-1030,-8325,791,-1,-24,-1,1
292019,-845,-8317,935,0,-22,-1,1
292024,-664,-8312,917,1,-19,-2,1
292029,-477,-8312,782,2,-16,-2,1
292034,-338,-8314,565,2,-11,-2,1
292039,-178,-8315,351,1,-6,-1,1
292044,-15,-8312,235,0,0,-1,1
292049,131,-8307,232,-1,4,-1,1
292054,251,-8299,340,-1,8,-1,1
292059,303,-8292,481,0,12,-1,1
292064,309,-8288,579,1,14,-1,1
292069,257,-8292,607,1,16,-1,1
292074,178,-8300,569,1,15,-1,1
292079,100,-8310,518,0,14,-1,1
292084,45,-8320,512,-1,13,-1,1
292089,9,-8320,591,-2,11,-1,1
292094,-14,-8318,738,-2,8,-2,1
292099,-37,-8314,896,-2,4,-2,1
292104,-88,-8311,1014,-1,0,-3,1
292109,-157,-8313,1052,-1,-4,-3,1
292114,-214,-8315,1013,-1,-6,-3,1
292119,-241,-8320,941,-1,-9,-3,1
292124,-216,-8322,862,-2,-11,-3,1
292129,-153,-8321,838,-3,-13,-3,1
292134,-73,-8319,847,-3,-15,-3,1
292139,5,-8314,882,-3,-16,-4,1
292144,58,-8309,902,-3,-16,-4,1
292149,81,-8303,873,-3,-17,-4,1
292154,92,-8303,815,-3,-18,-4,1
292159,116,-8306,729,-3,-18,-4,1
292164,172,-8305,641,-3,-18,-3,1
292169,258,-8304,582,-3,-18,-3,1
292174,347,-8304,560,-4,-19,-3,1
292179,418,-8303,560,-4,-19,-4,1
292184,450,-8301,568,-4,-19,-4,1
292189,446,-8300,564,-3,-20,-4,1
292194,422,-8299,530,-3,-21,-4,1
292199,411,-8299,471,-3,-21,-3,1
292204,429,-8298,407,-3,-21,-3,1
292209,483,-8295,351,-4,-20,-3,1
292214,555,-8294,314,-4,-19,-3,1
292219,620,-8292,294,-4,-19,-3,1
292224,657,-8289,281,-4,-18,-3,1
292229,653,-8291,263,-4,-17,-3,1
292234,625,-8291,230,-4,-17,-3,1
292239,593,-8292,195,-3,-16,-2,1
292244,579,-8293,150,-3,-15,-2,1
292249,595,-8290,114,-4,-14,-2,1
292254,631,-8289,91,-4,-13,-2,1
292259,664,-8289,75,-4,-12,-2,1
292264,678,-8293,62,-4,-12,-2,1
292269,664,-8293,52,-4,-11,-2,1
292274,626,-8292,45,-4,-10,-2,1
292279,593,-8291,38,-3,-10,-2,1
292284,578,-8291,26,-3,-9,-1,1
292289,590,-8292,8,-3,-8,-1,1
292294,625,-8290,-8,-3,-7,-1,1
292299,655,-8290,-21,-3,-6,-1,1
292304,667,-8287,-30,-3,-6,-1,1
292309,651,-8287,-30,-3,-6,-2,1
292314,606,-8288,-25,-3,-5,-1,1
292319,555,-8290,-23,-3,-5,-1,1
292324,518,-8290,-12,-3,-4,-1,1
292329,499,-8290,-10,-3,-4,-1,1
292334,506,-8291,-16,-3,-3,-1,1
292339,522,-8294,-25,-3,-3,-1,1
292344,531,-8295,-31,-3,-3,-1,1
292349,526,-8293,-34,-3,-3,-1,1
292354,497,-8293,-28,-3,-3,-1,1
292359,454,-8293,-17,-3,-4,-1,1
292364,422,-8295,-14,-2,-4,-1,1
292369,402,-8297,-9,-2,-4,-1,1
292374,399,-8297,-17,-2,-4,-1,1
292379,420,-8295,-33,-2,-4,-1,1
292384,435,-8295,-48,-2,-4,-1,1
292389,434,-8296,-53,-2,-4,-1,1
292394,419,-8295,-56,-2,-4,-1,1
292399,391,-8296,-44,-2,-4,-1,1
292404,360,-8297,-31,-2,-3,-1,1
292409,344,-8295,-27,-2,-3,-1,1
292414,340,-8295,-28,-2,-3,-1,1
292419,348,-8296,-37,-2,-3,-1,1
292424,361,-8296,-44,-2,-3,-1,1
292429,364,-8296,-39,-2,-3,-1,1
292434,355,-8294,-23,-2,-3,-1,1
292439,337,-8296,0,-2,-3,-2,1
292444,309,-8297,35,-2,-3,-2,1
292449,288,-8300,62,-2,-3,-1,1
292454,283,-8298,81,-2,-3,-1,1
292458,291,-8295,89,-2,-4,-1,1
292463,310,-8296,92,-2,-4,-1,1
292469,331,-8295,95,-2,-5,-2,1
292473,335,-8292,101,-2,-5,-2,1
292479,332,-8296,108,-2,-6,-2,1
292484,323,-8294,122,-2,-6,-2,1
292488,312,-8290,128,-2,-6,-2,1
292494,318,-8287,130,-2,-6,-2,1
292499,333,-8286,125,-2,-6,-1,1
292503,355,-8287,115,-2,-6,-2,1
292508,381,-8289,104,-2,-6,-2,1
292513,393,-8290,98,-2,-6,-2,1
292518,391,-8291,93,-2,-6,-2,1
292523,378,-8293,90,-2,-6,-2,1
292529,359,-8293,92,-2,-5,-2,1
292533,349,-8295,95,-2,-4,-2,1
292538,359,-8294,94,-2,-4,-1,1
292543,372,-8293,95,-2,-4,-1,1
292548,390,-8292,88,-2,-4,-1,1
292553,402,-8294,82,-2,-4,-2,1
292558,399,-8296,73,-2,-4,-2,1
292563,391,-8297,74,-2,-5,-2,1
292568,378,-8298,81,-2,-5,-2,1
292573,363,-8294,80,-2,-5,-1,1
292579,359,-8292,81,-2,-6,-1,1
292583,370,-8291,74,-2,-6,-1,1
292588,385,-8293,55,-2,-7,-1,1
292594,400,-8297,37,-2,-7,-1,1
292598,405,-8299,13,-2,-7,-2,1
292603,401,-8301,0,-2,-7,-2,1
292608,393,-8300,-8,-2,-7,-2,1
292613,386,-8297,-11,-2,-6,-1,1
292618,383,-8298,-13,-2,-6,-1,1
292623,392,-8298,-16,-1,-5,-1,1
292628,403,-8297,-22,-1,-5,-1,1
292633,411,-8297,-39,-1,-5,-1,1
292638,419,-8297,-47,-1,-5,-1,1
292643,417,-8299,-50,-1,-4,-1,1
292648,406,-8300,-45,-1,-4,-1,1
292653,396,-8302,-31,-1,-4,-1,1
292658,386,-8301,-20,-1,-4,-1,1
292663,378,-8300,-14,-1,-3,-1,1
292668,378,-8301,-19,-1,-3,-1,1
292673,377,-8302,-29,-1,-3,-1,1
292678,374,-8300,-31,-1,-3,-1,1
292683,366,-8299,-22,-1,-4,-1,1
292688,348,-8301,-1,-1,-4,-2,1
292693,327,-8300,23,-1,-5,-2,1
292698,309,-8298,50,-1,-5,-2,1
292703,290,-8299,76,-1,-6,-2,1
292708,280,-8298,95,-1,-7,-2,1
292713,276,-8298,118,-1,-8,-2,1
292718,279,-8304,129,-1,-8,-2,1
292723,283,-8308,137,-1,-8,-2,1
292728,288,-8307,150,-1,-8,-2,1
292733,288,-8306,157,-1,-8,-2,1
292738,289,-8303,168,-1,-8,-2,1
292743,290,-8303,174,-1,-8,-2,1
292748,292,-8303,175,-1,-8,-2,1
292753,296,-8304,175,-1,-7,-2,1
292758,300,-8305,175,-1,-7,-2,1
292763,302,-8307,171,-1,-7,-2,1
292768,302,-8306,174,-2,-6,-2,1
292773,297,-8307,183,-2,-6,-2,1
292778,294,-8306,193,-2,-6,-2,1
292783,288,-8307,207,-2,-6,-2,1
292788,285,-8307,216,-2,-6,-2,1
292793,289,-8306,220,-2,-7,-2,1
292798,297,-8304,213,-2,-7,-2,1
292803,308,-8304,202,-2,-8,-2,1
292808,322,-8306,190,-2,-9,-2,1
292813,333,-8308,173,-2,-9,-2,1
292818,340,-8306,157,-2,-9,-2,1
292823,349,-8304,140,-2,-9,-2,1
292828,355,-8304,116,-2,-9,-2,1
292833,361,-8305,92,-2,-9,-2,1
292838,368,-8306,61,-2,-8,-2,1
292843,373,-8304,29,-2,-8,-2,1
292848,374,-8303,4,-2,-7,-2,1
292853,374,-8301,-23,-2,-6,-2,1
292858,370,-8301,-47,-2,-5,-2,1
292863,367,-8301,-59,-2,-4,-2,1
292868,369,-8301,-65,-2,-4,-2,1
292873,370,-8299,-61,-1,-3,-2,1
292878,364,-8298,-64,-1,-3,-2,1
292883,360,-8300,-73,-1,-2,-2,1
292888,354,-8300,-80,-1,-2,-2,1
292893,347,-8298,-91,-1,-2,-2,1
292898,338,-8295,-91,-1,-2,-2,1
292903,334,-8293,-85,-1,-2,-2,1
292908,334,-8294,-72,-1,-2,-2,1
292913,335,-8293,-63,-1,-2,-2,1
292918,333,-8292,-56,-1,-2,-2,1
292923,328,-8293,-54,-1,-2,-2,1
292928,322,-8294,-55,-1,-1,-2,1
292933,317,-8294,-56,-1,-1,-2,1
292938,313,-8292,-48,-1,-1,-2,1
292943,307,-8292,-32,-1,-1,-2,1
292948,301,-8296,-8,-1,-1,-2,1
292953,297,-8295,10,-1,-1,-2,1
292958,293,-8295,31,-1,-1,-2,1
292963,290,-8293,47,-1,-1,-2,1
292968,290,-8296,56,-1,-1,-2,1
292973,286,-8298,64,-1,-1,-2,1
292978,284,-8300,73,-1,-1,-2,1
292983,282,-8302,86,-1,-1,-2,1
292988,281,-8300,105,-1,-2,-2,1
292993,279,-8298,123,-1,-2,-2,1
292998,285,-8300,132,-1,-2,-2,1
293003,286,-8299,134,-1,-2,-2,1
293008,287,-8301,132,-1,-2,-2,1
293013,294,-8301,127,-1,-2,-2,1
293018,304,-8300,119,-1,-2,-2,1
293023,319,-8301,119,-1,-2,-2,1
293028,338,-8298,126,-1,-2,-2,1
293033,353,-8298,133,-1,-2,-2,1
293038,369,-8298,144,-1,-2,-2,1
293043,378,-8297,145,-1,-2,-2,1
293048,385,-8295,138,-1,-2,-2,1
293053,391,-8296,132,-1,-2,-2,1
293058,396,-8296,126,-1,-2,-2,1
293063,399,-8295,119,-1,-2,-2,1
293068,404,-8294,120,-1,-2,-2,1
293073,411,-8293,126,-1,-2,-2,1
293078,417,-8294,127,-1,-2,-2,1
293083,426,-8295,121,-1,-2,-2,1
293088,431,-8298,112,-1,-2,-2,1
293093,436,-8300,109,-1,-2,-2,1
293098,443,-8300,100,-1,-2,-2,1
293103,450,-8300,96,-1,-2,-2,1
293108,458,-8296,94,-1,-2,-2,1
293113,465,-8296,97,-1,-2,-2,1
293118,471,-8296,101,-1,-2,-2,1
293123,477,-8297,98,-1,-1,-2,1
293128,472,-8295,100,-1,-1,-2,1
293133,463,-8295,92,-1,-1,-2,1
293138,454,-8297,86,-1,-1,-2,1
293143,446,-8300,83,-1,-1,-2,1
293148,443,-8297,79,-1,-1,-2,1
293153,438,-8294,81,-1,-1,-2,1
293158,437,-8293,84,-1,-1,-2,1
293163,436,-8296,81,-1,-1,-2,1
293168,431,-8299,77,-1,-1,-2,1
293173,423,-8301,67,-1,-2,-2,1
293178,414,-8302,58,-1,-2,-2,1
293183,406,-8303,52,-1,-2,-2,1
293188,401,-8302,49,-1,-2,-2,1
293193,397,-8302,46,-1,-2,-2,1
293198,393,-8303,41,-1,-2,-2,1
293203,391,-8303,37,-1,-2,-2,1
293208,390,-8302,32,-1,-2,-2,1
293213,386,-8299,29,-1,-2,-2,1
293218,381,-8298,25,-1,-2,-2,1
293223,375,-8295,23,-1,-2,-2,1
293228,368,-8297,25,-1,-2,-2,1
293233,363,-8296,32,-1,-2,-2,1
293238,361,-8295,39,-1,-2,-2,1
293243,362,-8294,47,-1,-2,-2,1
293248,365,-8294,51,-1,-2,-2,1
293253,367,-8296,58,-1,-2,-2,1
293258,369,-8297,59,-1,-2,-2,1
293263,378,-8297,61,-1,-2,-2,1
293268,386,-8296,67,-1,-2,-2,1
293273,391,-8296,75,-1,-2,-2,1
293278,400,-8295,82,-1,-2,-2,1
293283,405,-8295,83,-1,-2,-2,1
293288,409,-8292,78,-1,-2,-2,1
293293,407,-8292,74,-1,-2,-2,1
293298,412,-8292,77,-1,-2,-2,1
293303,417,-8291,83,-1,-2,-2,1
293308,421,-8290,87,-1,-2,-2,1
293313,430,-8289,86,-1,-1,-2,1
293318,435,-8288,91,-1,-1,-2,1
293323,439,-8289,91,-1,-1,-2,1
293328,443,-8290,89,-1,-1,-2,1
293333,440,-8292,87,-1,-1,-2,1
293338,441,-8292,85,-1,-1,-2,1
293343,442,-8291,90,-1,-1,-2,1
293348,437,-8291,97,-1,-1,-2,1
293353,434,-8292,111,-1,-1,-2,1
293358,428,-8293,117,-1,-1,-2,1
293363,418,-8292,127,-1,-2,-2,1
293368,401,-8293,126,-1,-2,-2,1
293373,388,-8295,135,-1,-2,-2,1
293378,375,-8297,141,-1,-2,-2,1
293383,370,-8294,150,-1,-2,-2,1
293388,371,-8295,160,-1,-3,-2,1
293393,370,-8295,163,-1,-3,-2,1
293398,370,-8300,165,-1,-3,-2,1
293403,369,-8299,168,-1,-3,-2,1
293408,366,-8301,161,-1,-3,-2,1
293413,372,-8299,161,-1,-3,-2,1
293418,374,-8298,152,-1,-3,-2,1
293423,382,-8300,149,-1,-3,-2,1
293428,389,-8299,142,-1,-3,-2,1
293433,391,-8303,130,-1,-3,-2,1
293438,391,-8304,126,-1,-2,-2,1
293443,384,-8305,119,-1,-3,-2,1
293448,376,-8303,114,-1,-3,-2,1
293453,365,-8302,114,-1,-3,-2,1
293458,354,-8303,117,-1,-3,-2,1
293463,350,-8303,122,-1,-3,-2,1
293468,345,-8302,122,-1,-3,-2,1
293473,345,-8303,127,-1,-3,-2,1
293478,348,-8303,129,-1,-3,-2,1
293483,352,-8304,128,-1,-3,-2,1
293488,349,-8306,128,-1,-3,-2,1
293493,352,-8306,127,-1,-3,-2,1
293498,355,-8305,120,-1,-3,-2,1
293503,360,-8305,116,-1,-4,-2,1
293508,365,-8302,113,-1,-4,-2,1
293513,368,-8299,112,-1,-4,-2,1
293518,372,-8300,110,-1,-4,-2,1
293523,378,-8303,107,-1,-4,-2,1
293528,384,-8305,108,-1,-4,-2,1
293533,390,-8305,101,-1,-3,-2,1
293538,399,-8305,92,-1,-3,-2,1
293543,413,-8308,83,-1,-3,-2,1
293548,429,-8305,78,-1,-3,-2,1
293553,446,-8305,72,-1,-2,-2,1
293558,462,-8306,65,-1,-2,-2,1
293563,471,-8305,58,-1,-2,-2,1
293568,475,-8306,51,-1,-2,-2,1
293573,473,-8306,51,-1,-2,-2,1
293578,467,-8307,50,-1,-2,-2,1
293583,462,-8305,51,-1,-2,-2,1
293588,453,-8304,58,-1,-2,-2,1
293593,441,-8304,74,-1,-2,-2,1
293598,429,-8304,87,-1,-2,-2,1
293603,422,-8304,107,-1,-2,-2,1
293608,412,-8305,115,-1,-3,-2,1
293613,405,-8305,116,-1,-3,-2,1
293618,401,-8301,116,-1,-3,-2,1
293623,401,-8300,120,-1,-4,-2,1
293628,413,-8300,124,-1,-4,-2,1
293633,428,-8301,123,-1,-4,-2,1
293638,442,-8300,124,-1,-5,-2,1
293643,453,-8299,121,-1,-5,-2,1
293648,459,-8298,114,-1,-5,-2,1
293653,463,-8300,96,-1,-5,-2,1
293658,461,-8303,76,-1,-5,-2,1
293663,458,-8303,64,-1,-5,-2,1
293668,462,-8303,53,-1,-4,-2,1
293673,466,-8301,42,-1,-4,-2,1
293678,468,-8299,40,-1,-3,-2,1
293683,470,-8298,40,-1,-3,-2,1
293688,467,-8300,41,-1,-3,-2,1
293693,464,-8304,37,-1,-2,-2,1
293698,462,-8302,39,-1,-2,-2,1
293703,462,-8304,46,-1,-2,-2,1
293708,464,-8302,58,-1,-2,-2,1
293713,469,-8302,67,-1,-2,-2,1
293718,472,-8299,69,-1,-2,-2,1
293723,473,-8299,73,-1,-2,-2,1
293728,470,-8301,76,-1,-3,-2,1
293733,462,-8302,78,-1,-3,-2,1
293738,453,-8301,80,-1,-3,-2,1
293743,447,-8299,82,-1,-3,-2,1
293748,444,-8301,86,-1,-3,-2,1
293753,447,-8301,88,-1,-2,-2,1
293758,455,-8302,86,-1,-2,-2,1
293763,465,-8304,84,-1,-2,-2,1
293768,474,-8299,85,-1,-2,-2,1
293773,480,-8296,82,-1,-2,-2,1
293778,485,-8297,79,-1,-1,-2,1
293783,489,-8296,77,-1,-1,-2,1
293788,486,-8296,80,-1,-1,-2,1
293793,480,-8294,85,-1,-1,-2,1
293798,477,-8293,96,-1,-1,-2,1
293803,471,-8291,103,-1,-1,-2,1
293808,464,-8293,114,-1,-2,-2,1
293813,452,-8297,121,-1,-2,-2,1
293818,437,-8299,130,-1,-2,-2,1
293823,420,-8298,138,-1,-2,-2,1
293828,405,-8298,146,-1,-2,-2,1
293833,393,-8297,155,-1,-3,-2,1
293838,390,-8298,159,-1,-3,-2,1
293843,392,-8298,160,-1,-3,-2,1
293848,401,-8302,159,-1,-3,-2,1
293853,410,-8303,164,-1,-3,-2,1
293858,416,-8305,165,-1,-3,-2,1
293863,422,-8304,163,-1,-3,-2,1
293868,424,-8306,159,-1,-3,-2,1
293873,423,-8305,155,-1,-3,-2,1
293878,425,-8302,155,-1,-2,-2,1
293883,428,-8302,156,-1,-2,-2,1
293887,430,-8302,154,-2,-2,-2,1
293892,436,-8301,162,-1,-1,-2,1
293897,436,-8299,163,-2,-1,-2,1
293902,434,-8299,170,-2,-2,-2,1
293908,426,-8298,177,-2,-2,-2,1
293912,417,-8300,179,-2,-2,-2,1
293918,409,-8299,178,-2,-3,-2,1
293923,401,-8299,181,-2,-3,-2,1
293927,397,-8298,180,-2,-3,-2,1
293933,395,-8298,181,-2,-4,-2,1
293937,399,-8296,186,-2,-4,-2,1
293942,403,-8295,191,-2,-5,-2,1
293948,411,-8293,186,-2,-5,-2,1
293952,419,-8292,184,-2,-5,-2,1
293958,430,-8291,177,-2,-5,-2,1
293962,439,-8291,171,-2,-5,-2,1
293968,445,-8291,164,-2,-5,-2,1
293972,455,-8291,155,-2,-5,-2,1
293978,466,-8289,149,-2,-5,-2,1
293983,475,-8290,143,-2,-5,-2,1
293988,483,-8290,135,-2,-5,-2,1
293992,485,-8291,124,-2,-4,-2,1
293998,488,-8294,115,-2,-4,-2,1
294002,496,-8297,101,-2,-4,-2,1
294008,501,-8298,86,-2,-4,-2,1
294012,504,-8298,75,-2,-4,-2,1
294018,503,-8299,62,-2,-4,-2,1
294022,501,-8300,46,-2,-4,-2,1
294028,496,-8298,39,-2,-4,-2,1
294032,491,-8297,30,-2,-4,-2,1
294037,483,-8297,28,-2,-4,-2,1
294042,476,-8295,26,-2,-4,-2,1
294047,471,-8294,26,-2,-4,-2,1
294052,466,-8294,19,-2,-4,-1,1
294057,463,-8296,12,-2,-4,-1,1
294062,459,-8297,11,-2,-4,-2,1
294067,455,-8297,9,-2,-4,-2,1
294072,453,-8298,6,-2,-4,-2,1
294077,450,-8301,0,-2,-4,-2,1
294082,448,-8301,3,-2,-4,-2,1
294087,448,-8302,4,-2,-3,-2,1
294092,449,-8304,8,-2,-3,-2,1
294097,448,-8303,6,-2,-3,-2,1
294102,451,-8302,-1,-2,-3,-2,1
294107,453,-8302,1,-2,-3,-2,1
294112,451,-8303,5,-1,-3,-2,1
294117,446,-8306,1,-1,-3,-2,1
294122,441,-8303,3,-1,-3,-2,1
294127,434,-8303,-1,-1,-3,-2,1
294132,429,-8301,-1,-1,-3,-2,1
294137,427,-8302,3,-1,-3,-2,1
294142,426,-8302,8,-1,-3,-2,1
294147,427,-8304,14,-1,-3,-2,1
294152,431,-8306,20,-1,-3,-2,1
294157,431,-8307,23,-1,-3,-2,1
294162,430,-8307,29,-1,-3,-2,1
294167,431,-8305,37,-1,-3,-2,1
294172,431,-8304,34,-1,-3,-2,1
294177,433,-8305,35,-1,-2,-2,1
294182,438,-8307,46,-1,-2,-2,1
294187,443,-8308,57,-1,-2,-2,1
294192,446,-8307,70,-1,-3,-2,1
294197,444,-8305,80,-1,-3,-2,1
294202,438,-8307,84,-1,-3,-2,1
294207,430,-8305,88,-1,-3,-2,1
294212,426,-8305,102,-1,-3,-2,1
294217,424,-8306,113,-1,-4,-2,1
294222,425,-8308,124,-1,-4,-2,1
294227,430,-8312,124,-2,-4,-2,1
294232,434,-8314,122,-2,-4,-2,1
294237,440,-8313,119,-1,-4,-2,1
294242,448,-8311,119,-1,-4,-2,1
294247,454,-8309,107,-2,-4,-2,1
294252,464,-8307,92,-2,-4,-2,1
294257,476,-8307,79,-1,-4,-2,1
294262,486,-8306,68,-1,-3,-1,1
294267,491,-8305,55,-1,-3,-1,1
294272,492,-8301,44,-1,-2,-1,1
294277,489,-8301,40,-1,-2,-1,1
294282,486,-8298,36,-1,-2,-1,1
294287,481,-8300,33,-1,-2,-1,1
294292,473,-8302,37,-1,-1,-1,1
294297,466,-8305,45,-1,-2,-1,1
294302,456,-8304,55,-1,-2,-1,1
294307,444,-8303,63,-2,-2,-1,1
294312,430,-8303,72,-1,-2,-1,1
294317,418,-8305,77,-2,-3,-1,1
294322,408,-8303,80,-2,-3,-1,1
294327,404,-8303,82,-2,-4,-1,1
294332,404,-8303,83,-2,-4,-1,1
294337,412,-8303,76,-1,-4,-1,1
294342,422,-8304,68,-1,-5,-1,1
294347,432,-8299,64,-1,-5,-2,1
294352,436,-8297,49,-1,-4,-1,1
294357,439,-8300,36,-1,-4,-1,1
294362,438,-8304,28,-1,-4,-1,1
294367,442,-8301,18,-1,-3,-1,1
294372,446,-8300,10,-1,-3,-1,1
294377,450,-8300,11,-1,-3,-1,1
294382,457,-8300,15,-1,-2,-1,1
294387,462,-8296,18,-1,-2,-1,1
294392,463,-8294,27,-1,-2,-1,1
294397,458,-8292,35,-1,-2,-1,1
294402,450,-8293,37,-1,-2,-1,1
294407,443,-8293,44,-1,-2,-1,1
294412,434,-8292,51,-1,-2,-1,1
294417,430,-8292,61,-1,-3,-1,1
294422,425,-8295,69,-1,-3,-1,1
294427,421,-8296,78,-1,-3,-1,1
294432,420,-8297,78,-1,-4,-1,1
294437,421,-8297,78,-1,-4,-1,1
294442,418,-8294,78,-1,-4,-1,1
294447,418,-8297,74,-1,-4,-1,1
294452,420,-8296,73,-1,-4,-1,1
294457,427,-8296,76,-1,-4,-1,1
294462,434,-8295,77,-1,-4,-1,1
294467,438,-8294,72,-1,-4,-1,1
294472,446,-8293,66,-2,-4,-1,1
294477,453,-8294,60,-1,-4,-1,1
294482,454,-8294,56,-1,-4,-1,1
294487,454,-8293,52,-1,-4,-1,1
294492,459,-8292,44,-1,-3,-1,1
294497,465,-8290,36,-1,-3,-1,1
294502,474,-8288,30,-1,-2,-1,1
294507,481,-8291,19,-1,-2,-1,1
294512,487,-8291,6,-1,-1,-1,1
294517,493,-8290,3,-1,-1,-1,1
294522,492,-8293,8,-1,-1,-1,1
294527,483,-8294,12,-1,-1,-1,1
294532,469,-8297,17,-1,-1,-1,1
294537,453,-8297,23,-1,-1,-1,1
294542,431,-8297,36,-1,-1,-1,1
294547,406,-8297,54,-1,-2,-1,1
294552,382,-8300,70,-1,-2,-1,1
294557,363,-8302,89,-1,-2,-1,1
294562,352,-8302,105,-2,-2,-1,1
294567,348,-8298,113,-2,-3,-1,1
294572,348,-8296,127,-2,-3,-1,1
294577,356,-8298,138,-2,-3,-1,1
294582,366,-8300,139,-2,-4,-1,1
294587,376,-8300,134,-2,-4,-1,1
294592,387,-8298,125,-2,-4,-1,1
294597,396,-8296,111,-2,-4,-1,1
294602,405,-8298,92,-2,-5,-1,1
294607,414,-8297,77,-2,-5,-1,1
294612,420,-8296,66,-2,-4,-1,1
294617,422,-8297,55,-2,-4,-1,1
294622,423,-8296,46,-2,-4,-1,1
294627,422,-8294,40,-2,-4,-1,1
294632,420,-8291,30,-2,-4,-1,1
294637,420,-8291,28,-2,-4,-1,1
294642,418,-8293,25,-2,-4,-1,1
294647,418,-8294,31,-2,-3,-1,1
294652,419,-8295,37,-2,-4,-1,1
294657,417,-8296,39,-2,-4,-1,1
294662,415,-8299,41,-2,-4,-1,1
294667,411,-8303,44,-2,-4,-1,1
294672,411,-8302,46,-2,-4,-1,1
294677,410,-8302,44,-2,-4,-1,1
294682,410,-8301,49,-2,-4,-1,1
294687,409,-8300,52,-2,-4,-1,1
294692,405,-8299,59,-2,-5,-1,1
294697,404,-8299,60,-2,-5,-1,1
294702,403,-8301,64,-2,-5,-1,1
294707,403,-8302,65,-2,-5,-1,1
294712,406,-8300,64,-2,-4,-1,1
294717,409,-8303,56,-2,-4,-1,1
294722,414,-8306,54,-2,-4,-1,1
294727,422,-8307,47,-2,-4,-1,1
294732,427,-8308,42,-2,-4,-1,1
294737,433,-8307,34,-2,-3,-1,1
294742,434,-8304,22,-2,-3,-1,1
294747,435,-8301,7,-2,-3,-1,1
294752,433,-8303,-1,-2,-2,-1,1
294757,428,-8307,-7,-2,-2,-1,1
294762,417,-8305,-11,-2,-2,-1,1
294767,400,-8303,-11,-2,-2,-1,1
294772,381,-8304,-9,-2,-2,-1,1
294777,359,-8305,-7,-2,-2,-1,1
294782,338,-8309,-1,-2,-2,-1,1
294787,327,-8309,-2,-2,-2,-1,1
294792,327,-8307,-6,-2,-2,-1,1
294797,336,-8305,-12,-2,-2,-1,1
294802,353,-8301,-24,-2,-2,-1,1
294807,365,-8299,-35,-2,-2,-1,1
294812,379,-8298,-46,-1,-2,-1,1
294817,386,-8299,-52,-1,-1,-1,1
294822,389,-8299,-68,-1,-1,-1,1
294827,388,-8299,-79,-1,-1,-1,1
294832,387,-8299,-86,-1,0,-1,1
294837,387,-8300,-94,-1,1,-1,1
294842,385,-8302,-98,-1,1,-1,1
294847,382,-8303,-99,-1,2,-1,1
294852,376,-8302,-88,-1,2,-1,1
294857,367,-8300,-73,-1,3,-1,1
294862,360,-8299,-60,-1,3,-1,1
294867,351,-8301,-47,-1,3,-1,1
294872,343,-8303,-32,-1,3,-1,1
294877,334,-8305,-15,-1,3,-1,1
294882,325,-8305,-1,-1,2,-1,1
294887,318,-8307,7,-1,2,-1,1
294892,308,-8307,16,-1,1,-1,1
294897,299,-8304,29,-1,1,-1,1
294902,289,-8303,37,-1,0,-1,1
294907,277,-8305,37,-1,-1,-1,1
294912,273,-8306,36,-1,-1,-1,1
294917,273,-8304,34,-1,-2,-1,1
294922,273,-8302,29,-1,-2,-1,1
294927,281,-8301,24,-1,-2,-1,1
294932,295,-8300,18,-1,-2,-1,1
294937,304,-8298,15,-1,-2,-1,1
294942,312,-8299,10,-1,-2,-1,1
294947,316,-8298,5,-1,-2,-1,1
294952,312,-8295,8,-1,-2,-1,1
294957,307,-8297,11,-1,-2,-1,1
294962,303,-8300,8,-1,-2,-1,1
294967,301,-8301,8,-1,-2,-1,1
294972,298,-8301,14,-1,-2,-2,1
294977,296,-8301,21,-1,-2,-2,1
294982,293,-8299,31,-1,-2,-2,1
294987,288,-8299,42,-1,-2,-2,1
294992,281,-8299,50,-1,-3,-2,1
294997,273,-8302,54,-1,-3,-2,1
295002,272,-8304,50,-1,-3,-2,1
295007,277,-8305,43,-1,-3,-2,1
295012,283,-8306,41,-1,-3,-2,1
295017,291,-8306,41,-1,-3,-2,1
295022,301,-8303,37,-1,-3,-2,1
295027,313,-8303,27,-1,-3,-2,1
295032,324,-8301,13,-1,-3,-2,1
295037,330,-8298,3,-1,-3,-2,1
295042,337,-8297,0,-1,-2,-2,1
295047,342,-8300,-7,-1,-2,-2,1
295052,347,-8303,-13,-1,-2,-2,1
295057,353,-8304,-7,-1,-2,-2,1
295062,356,-8303,0,-1,-1,-2,1
295067,357,-8304,8,-1,-1,-2,1
295072,356,-8303,19,-1,-1,-2,1
295077,357,-8302,32,-1,-2,-2,1
295082,354,-8302,42,-1,-2,-2,1
295087,350,-8305,51,-1,-2,-2,1
295092,348,-8305,52,-1,-2,-2,1
295097,350,-8304,55,-1,-2,-2,1
295102,354,-8304,60,-1,-2,-2,1
295107,361,-8301,66,-1,-2,-2,1
295112,371,-8298,67,-1,-2,-2,1
295117,377,-8297,69,-1,-2,-2,1
295122,381,-8295,71,-1,-2,-2,1
295127,383,-8293,73,-1,-2,-2,1
295132,382,-8294,81,-1,-2,-2,1
295137,377,-8294,90,-1,-2,-2,1
295142,369,-8294,96,-1,-2,-2,1
295147,362,-8295,99,-1,-2,-2,1
295152,356,-8298,99,-1,-2,-2,1
295157,351,-8301,103,-1,-2,-2,1
295162,351,-8301,104,-1,-2,-2,1
295167,352,-8300,105,-1,-2,-2,1
295172,350,-8299,106,-1,-2,-2,1
295177,344,-8299,104,-1,-3,-2,1
295182,334,-8301,96,-1,-3,-2,1
295187,324,-8297,89,-1,-3,-2,1
295192,317,-8296,81,-1,-3,-2,1
295197,313,-8296,79,-1,-3,-2,1
295202,313,-8297,71,-1,-3,-2,1
295207,320,-8297,63,-1,-3,-2,1
295212,327,-8299,51,-1,-3,-2,1
295217,332,-8301,39,-1,-3,-2,1
295222,335,-8300,31,-1,-3,-2,1
295227,332,-8302,24,-1,-3,-2,1
295232,327,-8304,16,-1,-2,-2,1
295237,324,-8305,10,-1,-2,-2,1
295242,320,-8303,7,-1,-2,-2,1
295247,323,-8302,7,-1,-2,-2,1
295252,331,-8300,9,-1,-2,-2,1
295257,338,-8297,11,-1,-3,-2,1
295262,341,-8300,10,-1,-3,-2,1
295267,340,-8302,13,-1,-3,-2,1
295272,334,-8302,12,-1,-3,-2,1
295277,334,-8303,15,-1,-3,-2,1
295282,337,-8306,9,-1,-3,-2,1
295287,347,-8307,9,-1,-3,-2,1
295292,359,-8305,11,-1,-3,-2,1
295297,375,-8302,8,-1,-3,-2,1
295302,388,-8302,10,-1,-3,-2,1
295307,394,-8301,10,-1,-3,-2,1
295312,393,-8301,8,-1,-3,-2,1
295317,394,-8298,3,-1,-3,-2,1
295322,393,-8295,-3,-1,-3,-2,1
295327,399,-8296,-4,-1,-3,-2,1
295332,408,-8295,-1,-1,-2,-2,1
295337,416,-8294,-1,-1,-2,-2,1
295342,422,-8294,0,-1,-2,-2,1
295347,423,-8293,-5,-1,-2,-2,1
295352,420,-8294,-5,-1,-2,-2,1
295357,417,-8294,-6,-1,-2,-2,1
295362,414,-8292,-8,-1,-2,-1,1
295367,414,-8291,-8,-1,-2,-1,1
295372,420,-8292,-4,-1,-2,-1,1
295377,424,-8292,1,-1,-2,-1,1
295382,421,-8290,3,-1,-2,-1,1
295387,408,-8292,12,-1,-2,-2,1
295392,391,-8294,24,-1,-2,-2,1
295397,371,-8296,28,-1,-3,-2,1
295402,353,-8300,39,-1,-3,-2,1
295407,344,-8303,51,-1,-3,-2,1
295412,339,-8303,60,-1,-3,-1,1
295417,343,-8305,65,-1,-3,-1,1
295422,350,-8306,66,-1,-4,-1,1
295426,356,-8303,61,-1,-4,-2,1
295432,362,-8302,57,-1,-4,-2,1
295437,368,-8300,49,-1,-4,-2,1
295441,371,-8301,44,-1,-4,-2,1
295447,378,-8299,37,-1,-4,-1,1
295452,385,-8301,32,-1,-3,-1,1
295457,392,-8300,24,-1,-3,-1,1
295461,395,-8300,19,-1,-3,-1,1
295466,394,-8301,16,-1,-2,-2,1
295471,389,-8303,16,-1,-2,-2,1
295476,378,-8303,20,-1,-2,-1,1
295482,366,-8303,28,-1,-2,-1,1
295486,355,-8304,39,-1,-2,-1,1
295491,348,-8304,48,-1,-2,-1,1
295496,342,-8299,55,-1,-3,-1,1
295502,333,-8298,66,-1,-3,-1,1
295506,330,-8296,70,-1,-3,-2,1
295511,332,-8297,71,-2,-4,-2,1
295517,333,-8296,75,-2,-4,-2,1
295522,335,-8291,77,-2,-4,-1,1
295526,339,-8287,73,-2,-4,-2,1
295532,348,-8289,65,-2,-4,-2,1
295536,352,-8290,58,-2,-4,-1,1
295541,357,-8291,47,-2,-4,-2,1
295547,365,-8292,33,-2,-4,-1,1
295551,370,-8292,19,-2,-3,-1,1
295556,377,-8290,9,-2,-3,-1,1
295561,381,-8291,5,-2,-2,-1,1
295567,383,-8291,0,-1,-2,-1,1
295571,382,-8292,-2,-1,-2,-1,1
295576,378,-8296,-9,-1,-2,-1,1
295581,371,-8297,-16,-1,-2,-1,1
295586,357,-8300,-16,-1,-2,-1,1
295591,347,-8303,-9,-1,-2,-1,1
295596,335,-8302,-5,-1,-2,-1,1
295601,327,-8305,0,-2,-2,-1,1
295606,321,-8303,7,-1,-2,-1,1
295611,319,-8300,9,-1,-2,-1,1
295616,318,-8299,9,-1,-2,-1,1
295621,322,-8299,2,-2,-2,-1,1
295626,327,-8298,-4,-1,-2,-1,1
295631,332,-8300,-17,-1,-2,-1,1
295636,334,-8300,-26,-1,-2,-1,1
295641,335,-8298,-32,-1,-1,-1,1
295646,334,-8298,-45,-1,-1,-1,1
295651,336,-8298,-57,-1,0,-1,1
295656,339,-8299,-64,-1,0,-1,1
295661,343,-8302,-69,-1,0,-1,1
295666,345,-8299,-69,-1,1,-1,1
295671,345,-8298,-68,-1,1,-1,1
295676,340,-8295,-67,-1,1,-1,1
295681,332,-8294,-55,-1,1,-1,1
295686,320,-8291,-48,-1,1,-1,1
295691,311,-8291,-29,-1,1,-1,1
295696,303,-8290,-15,-1,1,-1,1
295701,291,-8291,-2,-1,0,-1,1
295706,281,-8290,17,-1,0,-1,1
295711,274,-8291,32,-1,0,-2,1
295716,270,-8291,43,-1,-1,-2,1
295721,268,-8294,55,-1,-1,-2,1
295726,270,-8294,64,-1,-1,-2,1
295731,275,-8295,69,-1,-2,-2,1
295736,283,-8297,65,-1,-2,-1,1
295741,295,-8298,59,-1,-2,-2,1
295746,307,-8295,48,-1,-2,-2,1
295751,319,-8292,38,-1,-2,-2,1
295756,327,-8294,34,-1,-2,-2,1
295761,331,-8294,29,-1,-2,-2,1
295766,332,-8297,27,-1,-2,-2,1
295771,331,-8298,25,-1,-2,-1,1
295776,327,-8300,24,-1,-2,-2,1
295781,324,-8302,25,-1,-1,-2,1
295786,320,-8303,24,-1,-2,-2,1
295791,317,-8304,28,-1,-2,-1,1
295796,313,-8304,32,-1,-2,-2,1
295801,309,-8304,35,-1,-2,-2,1
295806,304,-8305,35,-1,-2,-2,1
295811,298,-8308,34,-1,-3,-2,1
295816,294,-8307,31,-1,-3,-2,1
295821,292,-8307,28,-1,-3,-2,1
295826,292,-8303,23,-1,-3,-2,1
295831,293,-8300,16,-1,-3,-2,1
295836,296,-8302,12,-1,-3,-2,1
295841,300,-8301,6,-1,-3,-2,1
295846,300,-8302,-7,-1,-3,-2,1
295851,303,-8302,-16,-1,-2,-2,1
295856,307,-8302,-25,-1,-2,-2,1
295861,313,-8301,-37,-1,-2,-2,1
295866,319,-8300,-50,-1,-1,-2,1
295871,326,-8302,-58,-1,-1,-2,1
295876,332,-8304,-66,-1,-1,-2,1
295881,333,-8304,-75,-1,-1,-2,1
295886,333,-8304,-73,-1,-1,-2,1
295891,329,-8304,-67,-1,-1,-2,1
295896,318,-8304,-53,-1,-1,-2,1
295901,306,-8304,-39,-1,-1,-2,1
295906,295,-8300,-31,-1,-2,-2,1
295911,284,-8300,-22,-1,-2,-2,1
295916,270,-8302,-13,-1,-2,-2,1
295921,262,-8302,-8,-1,-2,-2,1
295926,261,-8303,-3,-1,-3,-2,1
295931,261,-8303,1,-1,-3,-2,1
295936,264,-8303,11,-1,-3,-2,1
295941,271,-8303,13,-1,-3,-2,1
295946,280,-8302,14,-1,-3,-2,1
295951,292,-8300,9,-1,-3,-2,1
295956,305,-8300,3,-1,-3,-2,1
295961,322,-8302,-6,-1,-2,-2,1
295966,336,-8305,-16,-1,-2,-2,1
295971,349,-8307,-21,-1,-2,-2,1
295976,362,-8307,-22,-1,-2,-2,1
295981,365,-8308,-17,-1,-2,-2,1
295986,357,-8308,-10,-1,-2,-2,1
295991,350,-8306,-1,-1,-1,-2,1
295996,341,-8304,-1,-1,-1,-2,1
296001,330,-8304,1,-1,-2,-2,1
296006,322,-8304,8,-1,-2,-2,1
296011,321,-8306,20,-1,-2,-2,1
296016,316,-8308,38,-1,-2,-2,1
296021,317,-8308,54,-1,-2,-2,1
296026,317,-8308,61,-1,-2,-2,1
296031,315,-8308,69,-1,-3,-2,1
296036,316,-8307,67,-1,-3,-2,1
296041,322,-8307,62,-1,-3,-2,1
296046,333,-8307,57,-1,-3,-2,1
296051,345,-8307,52,-1,-3,-2,1
296056,353,-8307,53,-1,-3,-2,1
296061,355,-8304,56,-1,-2,-2,1
296066,354,-8302,54,-1,-2,-2,1
296071,351,-8302,56,-1,-2,-2,1
296076,345,-8301,54,-1,-2,-2,1
296081,337,-8301,51,-1,-2,-2,1
296086,334,-8300,44,-1,-3,-2,1
296091,334,-8300,38,-1,-3,-2,1
296096,336,-8303,32,-1,-3,-2,1
296101,337,-8303,21,-1,-3,-2,1
296106,334,-8303,5,-1,-3,-2,1
296111,328,-8302,-17,-1,-3,-2,1
296116,323,-8299,-36,-1,-2,-2,1
296121,318,-8299,-53,-1,-2,-2,1
296126,317,-8295,-77,-1,-1,-2,1
296131,318,-8294,-103,-1,-1,-2,1
296136,312,-8291,-135,-1,0,-2,1
296141,295,-8293,-174,-1,1,-2,1
296146,279,-8296,-212,-1,3,-1,1
296151,266,-8299,-255,-1,5,-1,1
296156,255,-8297,-306,-1,7,-1,1
296161,244,-8296,-364,-1,11,-1,1
296166,234,-8293,-422,0,17,-1,1
296171,235,-8289,-501,0,27,0,1
296176,252,-8287,-620,0,39,0,1
296181,283,-8286,-787,0,56,1,1
296186,359,-8283,-1014,0,78,2,1
296191,508,-8278,-1294,1,107,3,1
296196,710,-8268,-1643,1,144,4,1
296201,947,-8255,-2009,1,192,6,1
296206,1207,-8240,-2402,1,251,8,1
296211,1466,-8225,-2827,1,321,11,1
296216,1717,-8211,-3246,2,403,15,1
296221,1989,-8190,-3654,2,488,18,1
296226,2277,-8165,-4003,3,571,23,1
296231,2514,-8133,-4276,3,645,27,1
296236,2602,-8106,-4524,4,710,31,1
296241,2494,-8088,-4722,4,778,34,1
296246,2264,-8069,-4858,4,845,36,1
296251,1885,-8054,-4946,4,904,37,1
296256,1323,-8040,-5001,3,944,37,1
296261,809,-8033,-5127,3,961,35,1
296266,-9,-8022,-5340,2,961,32,1
296271,-1081,-8018,-5416,2,930,30,1
296276,-2656,-8039,-5782,1,884,31,1
296281,-4432,-8079,-5787,0,838,33,1
296286,-5642,-8121,-5346,0,809,34,1
296291,-5994,-8166,-4632,-1,781,33,1
296296,-5547,-8194,-3482,0,718,28,1
296301,-4868,-8220,-2445,2,610,20,1
296306,-4361,-8247,-1500,4,479,12,1
296311,-4327,-8286,-831,4,355,7,1
296316,-4601,-8337,-494,2,241,6,1
296321,-4847,-8378,-192,0,153,8,1
296326,-4816,-8397,9,-2,100,11,1
296331,-4266,-8387,232,-3,72,13,1
296336,-3407,-8362,341,-2,60,13,1
296341,-2433,-8334,365,-1,59,10,1
296346,-1641,-8309,402,0,67,6,1
296351,-1133,-8297,303,0,74,3,1
296356,-1044,-8298,230,0,77,1,1
296361,-1222,-8305,182,-1,76,1,1
296366,-1412,-8312,191,-2,76,3,1
296371,-1504,-8317,373,-3,78,4,1
296376,-1317,-8316,614,-3,73,5,1
296381,-981,-8312,826,-2,62,5,1
296386,-647,-8306,970,-1,45,3,1
296391,-407,-8301,963,0,27,1,1
296396,-354,-8304,814,0,14,-1,1
296401,-455,-8309,598,-1,6,-2,1
296406,-605,-8313,375,-2,4,-1,1
296411,-708,-8316,244,-3,7,0,1
296416,-678,-8317,184,-3,13,1,1
296421,-513,-8314,181,-3,18,1,1
296426,-298,-8306,209,-2,20,0,1
296431,-139,-8304,203,-2,18,-1,1
296436,-81,-8303,162,-2,14,-2,1
296441,-155,-8307,108,-2,10,-2,1
296446,-294,-8309,85,-3,6,-2,1
296451,-393,-8308,93,-3,3,-2,1
296456,-414,-8309,151,-4,2,-1,1
296461,-328,-8307,217,-4,0,-1,1
296466,-183,-8304,250,-3,-4,-1,1
296471,-70,-8298,238,-3,-7,-2,1
296476,6,-8297,155,-2,-10,-2,1
296481,27,-8298,23,-3,-12,-3,1
296486,-1,-8300,-103,-3,-14,-3,1
296491,-24,-8301,-205,-3,-15,-2,1
296496,-5,-8301,-261,-3,-15,-2,1
296501,48,-8300,-284,-3,-16,-2,1
296506,128,-8294,-285,-3,-17,-2,1
296511,214,-8290,-290,-3,-19,-2,1
296516,274,-8289,-310,-2,-20,-2,1
296521,294,-8290,-352,-2,-22,-3,1
296526,282,-8287,-421,-2,-23,-3,1
296531,257,-8285,-492,-2,-23,-3,1
296536,251,-8283,-554,-2,-23,-2,1
296541,273,-8280,-589,-2,-21,-2,1
296546,322,-8278,-610,-2,-20,-2,1
296551,389,-8275,-632,-2,-19,-2,1
296556,443,-8272,-657,-2,-17,-2,1
296561,471,-8271,-698,-1,-16,-2,1
296566,476,-8269,-746,-1,-14,-2,1
296571,461,-8270,-779,-1,-11,-2,1
296576,453,-8268,-801,-1,-8,-2,1
296581,468,-8269,-796,-1,-5,-1,1
296586,500,-8269,-758,-1,-2,-1,1
296591,548,-8268,-715,-1,-1,-1,1
296596,586,-8266,-674,-1,-1,-1,1
296601,586,-8265,-649,-1,-1,-1,1
296606,567,-8267,-635,0,-1,-1,1
296611,539,-8271,-628,0,0,-1,1
296616,511,-8273,-623,-1,1,0,1
296621,495,-8273,-604,-1,1,0,1
296626,494,-8273,-578,0,1,0,1
296631,490,-8274,-550,0,1,0,1
296636,474,-8275,-518,0,0,0,1
296641,443,-8275,-497,0,0,0,1
296646,402,-8278,-474,0,0,0,1
296651,356,-8281,-462,0,0,0,1
296656,313,-8281,-459,0,0,0,1
296661,280,-8282,-455,0,0,0,1
296666,255,-8282,-451,0,0,0,1
296671,236,-8283,-436,0,0,0,1
296676,216,-8287,-409,0,0,0,1
296681,193,-8286,-382,0,0,-1,1
296686,165,-8286,-354,0,-1,-1,1
296691,132,-8288,-327,0,-2,-1,1
296696,91,-8290,-311,0,-2,-1,1
296701,58,-8289,-301,0,-2,-1,1
296706,38,-8289,-288,0,-3,-1,1
296711,30,-8289,-288,0,-3,-1,1
296716,30,-8290,-282,0,-3,-1,1
296721,34,-8292,-272,0,-3,-1,1
296726,32,-8295,-267,-1,-3,-1,1
296731,25,-8297,-250,-1,-4,-1,1
296736,18,-8296,-235,-1,-4,-2,1
296741,14,-8297,-211,-1,-4,-2,1
296746,17,-8297,-188,-1,-5,-2,1
296751,29,-8296,-168,-1,-5,-2,1
296756,45,-8296,-158,-1,-6,-2,1
296761,66,-8295,-159,-1,-6,-2,1
296766,80,-8296,-165,-1,-7,-2,1
296771,91,-8296,-172,-1,-7,-2,1
296776,97,-8294,-178,-1,-7,-2,1
296781,101,-8293,-188,-1,-7,-2,1
296786,108,-8290,-197,-1,-6,-2,1
296791,122,-8288,-206,-1,-6,-2,1
296796,143,-8287,-219,-1,-5,-2,1
296801,169,-8287,-230,-1,-5,-2,1
296806,191,-8288,-239,-1,-5,-2,1
296811,205,-8287,-244,-1,-6,-2,1
296816,215,-8286,-250,-1,-6,-2,1
296821,219,-8285,-249,-1,-6,-2,1
296825,227,-8285,-254,-1,-7,-2,1
296831,240,-8286,-254,-1,-7,-2,1
296836,257,-8287,-255,-1,-7,-2,1
296841,276,-8287,-260,-1,-7,-2,1
296846,297,-8287,-267,-1,-7,-2,1
296850,310,-8288,-276,-1,-8,-2,1
296856,315,-8286,-286,-1,-8,-2,1
296860,316,-8287,-293,-1,-7,-2,1
296866,314,-8285,-301,-1,-6,-2,1
296871,314,-8283,-309,-1,-5,-2,1
296875,319,-8285,-313,-1,-4,-1,1
296881,322,-8282,-316,-1,-4,-1,1
296885,324,-8280,-319,-1,-3,-1,1
296890,329,-8278,-316,-1,-2,-1,1
296896,330,-8279,-311,-1,-2,-1,1
296900,323,-8282,-316,-1,-2,-1,1
296906,314,-8284,-316,-1,-1,-1,1
296911,307,-8281,-319,-1,-1,-1,1
296915,296,-8281,-321,-1,-1,-1,1
296921,287,-8286,-323,-1,-1,-1,1
296925,274,-8284,-327,-1,-1,-1,1
296930,261,-8281,-325,-1,-2,-1,1
296936,247,-8281,-318,-1,-2,-1,1
296940,233,-8283,-315,-1,-3,-1,1
296946,220,-8289,-310,-1,-3,-1,1
296950,209,-8290,-305,-1,-3,-1,1
296956,200,-8291,-293,-1,-4,-1,1
296961,194,-8291,-287,-1,-5,-1,1
296965,190,-8289,-285,-1,-6,-2,1
296970,181,-8290,-291,-1,-7,-2,1
296975,171,-8292,-303,-1,-8,-2,1
296980,156,-8290,-313,-1,-8,-2,1
296985,140,-8289,-325,-1,-7,-2,1
296990,128,-8289,-340,-1,-6,-2,1
296995,116,-8287,-345,-1,-5,-2,1
297000,114,-8287,-350,-1,-4,-2,1
297005,114,-8285,-351,-1,-4,-2,1
297010,108,-8282,-345,-1,-3,-2,1
297015,101,-8282,-338,-1,-3,-2,1
297020,90,-8281,-329,-1,-3,-2,1
297025,82,-8278,-320,-1,-3,-2,1
297030,74,-8279,-310,-1,-2,-2,1
297035,78,-8279,-297,-1,-2,-2,1
297040,85,-8279,-273,-1,-3,-2,1
297045,92,-8280,-252,-1,-3,-2,1
297050,99,-8282,-232,-1,-3,-2,1
297055,103,-8282,-215,-1,-3,-2,1
297060,107,-8280,-203,-1,-4,-2,1
297065,105,-8281,-201,-1,-4,-2,1
297070,103,-8282,-206,-1,-4,-2,1
297075,103,-8282,-213,-1,-4,-2,1
297080,107,-8281,-228,-1,-4,-2,1
297085,118,-8286,-235,-1,-4,-2,1
297090,132,-8288,-240,-2,-4,-2,1
297095,143,-8287,-247,-1,-4,-2,1
297100,148,-8287,-250,-1,-4,-3,1
297105,146,-8286,-251,-2,-4,-3,1
297110,146,-8286,-258,-1,-4,-3,1
297115,145,-8283,-269,-1,-4,-3,1
297120,154,-8283,-278,-1,-4,-3,1
297125,161,-8286,-288,-2,-4,-3,1
297130,172,-8287,-291,-2,-4,-3,1
297135,188,-8287,-286,-2,-4,-3,1
297140,196,-8285,-281,-2,-4,-3,1
297145,203,-8282,-279,-2,-5,-3,1
297150,208,-8281,-271,-2,-5,-3,1
297155,211,-8279,-267,-1,-5,-3,1
297160,219,-8278,-272,-1,-5,-3,1
297165,231,-8279,-287,-1,-5,-3,1
297170,241,-8283,-302,-1,-5,-2,1
297175,252,-8284,-312,-1,-4,-3,1
297180,262,-8282,-321,-1,-3,-3,1
297185,259,-8282,-323,-1,-3,-2,1
297190,258,-8278,-320,-2,-3,-2,1
297195,256,-8276,-323,-1,-3,-2,1
297200,254,-8276,-325,-1,-3,-2,1
297205,260,-8279,-325,-1,-3,-2,1
297210,269,-8283,-328,-1,-3,-2,1
297215,276,-8284,-328,-1,-3,-2,1
297220,282,-8283,-333,-1,-3,-2,1
297225,279,-8282,-335,-1,-4,-2,1
297230,272,-8281,-324,-1,-4,-2,1
297235,265,-8282,-324,-1,-4,-2,1
297240,260,-8285,-322,-1,-4,-2,1
297245,262,-8286,-316,-1,-4,-2,1
297250,271,-8288,-315,-1,-4,-2,1
297255,277,-8288,-313,-1,-4,-2,1
297260,281,-8289,-317,-1,-4,-2,1
297265,278,-8289,-310,-1,-4,-2,1
297270,269,-8287,-308,-1,-4,-2,1
297275,263,-8284,-303,-1,-4,-2,1
297280,258,-8284,-304,-1,-3,-2,1
297285,254,-8284,-305,-1,-3,-2,1
297290,259,-8282,-307,-1,-3,-2,1
297295,265,-8281,-318,-1,-2,-2,1
297300,268,-8282,-326,-1,-2,-2,1
297305,266,-8283,-333,-1,-2,-2,1
297310,262,-8287,-331,-1,-2,-2,1
297315,251,-8290,-325,-1,-2,-2,1
297320,240,-8289,-313,-1,-3,-2,1
297325,234,-8292,-305,-1,-3,-2,1
297330,234,-8290,-304,-1,-3,-2,1
297335,241,-8291,-301,-1,-4,-2,1
297340,243,-8288,-301,-1,-4,-2,1
297345,245,-8287,-304,-1,-5,-2,1
297350,248,-8288,-299,-1,-5,-2,1
297355,248,-8287,-291,-2,-4,-2,1
297360,248,-8284,-284,-1,-4,-2,1
297365,251,-8286,-282,-1,-4,-2,1
297370,258,-8286,-284,-1,-3,-2,1
297375,262,-8284,-284,-1,-3,-2,1
297380,265,-8283,-280,-1,-3,-2,1
297385,265,-8281,-278,-2,-2,-2,1
297390,262,-8281,-281,-2,-2,-2,1
297395,262,-8280,-286,-2,-2,-2,1
297400,259,-8279,-294,-2,-2,-2,1
297405,256,-8281,-299,-1,-2,-2,1
297410,254,-8280,-301,-2,-3,-2,1
297415,250,-8280,-308,-2,-3,-2,1
297420,249,-8282,-319,-2,-3,-2,1
297425,246,-8283,-331,-2,-3,-2,1
297430,245,-8281,-336,-2,-3,-2,1
297435,249,-8279,-332,-2,-3,-2,1
297440,253,-8279,-330,-2,-2,-2,1
297445,256,-8281,-324,-2,-2,-2,1
297450,262,-8282,-312,-2,-2,-2,1
297455,271,-8282,-305,-2,-2,-2,1
297460,279,-8283,-292,-2,-2,-2,1
297465,286,-8286,-278,-2,-2,-2,1
297470,289,-8287,-271,-2,-2,-2,1
297475,291,-8287,-264,-2,-2,-2,1
297480,293,-8286,-267,-2,-2,-2,1
297485,295,-8285,-269,-2,-2,-2,1
297490,297,-8285,-279,-2,-2,-2,1
297495,298,-8287,-285,-2,-2,-2,1
297500,294,-8290,-291,-2,-3,-2,1
297505,293,-8293,-300,-2,-3,-2,1
297510,287,-8294,-307,-2,-3,-2,1
297515,284,-8295,-319,-2,-3,-2,1
297520,278,-8295,-329,-2,-3,-2,1
297525,276,-8292,-344,-2,-3,-2,1
297530,274,-8291,-356,-2,-4,-2,1
297535,275,-8290,-368,-2,-4,-2,1
297540,278,-8289,-379,-2,-4,-2,1
297545,283,-8285,-379,-2,-4,-2,1
297550,288,-8284,-375,-2,-4,-2,1
297555,297,-8283,-369,-1,-4,-2,1
297560,309,-8284,-363,-1,-3,-2,1
297565,316,-8285,-355,-1,-3,-2,1
297570,324,-8283,-355,-1,-3,-2,1
297575,328,-8281,-356,-1,-3,-2,1
297580,328,-8281,-363,-1,-2,-2,1
297585,326,-8282,-370,-1,-2,-2,1
297590,326,-8281,-376,-1,-2,-2,1
297595,326,-8280,-380,-1,-2,-2,1
297600,332,-8279,-383,-1,-2,-2,1
297605,335,-8278,-385,-1,-2,-2,1
297610,336,-8279,-385,-1,-2,-2,1
297615,332,-8278,-393,-1,-2,-2,1
297620,325,-8277,-404,-1,-2,-2,1
297625,319,-8278,-411,-1,-2,-2,1
297630,312,-8281,-417,-1,-2,-2,1
297635,308,-8282,-419,-1,-2,-2,1
297640,308,-8281,-414,-1,-2,-2,1
297645,313,-8281,-408,-1,-3,-2,1
297650,320,-8279,-401,-1,-3,-2,1
297655,326,-8282,-395,-1,-3,-2,1
297660,329,-8284,-389,-1,-3,-2,1
297665,333,-8285,-380,-1,-3,-2,1
297670,331,-8285,-380,-1,-3,-2,1
297675,329,-8282,-379,-1,-2,-2,1
297680,327,-8282,-370,-1,-2,-2,1
297685,329,-8280,-361,-1,-2,-2,1
297690,334,-8281,-353,-1,-2,-2,1
297695,339,-8279,-349,-1,-2,-2,1
297700,342,-8279,-351,-1,-2,-2,1
297705,340,-8278,-359,-1,-2,-2,1
297710,332,-8280,-369,-1,-2,-2,1
297715,326,-8280,-375,-1,-2,-2,1
297720,315,-8283,-374,-1,-3,-2,1
297725,305,-8284,-375,-1,-3,-2,1
297730,308,-8284,-372,-1,-3,-2,1
297735,314,-8283,-362,-1,-3,-2,1
297740,322,-8280,-359,-1,-3,-2,1
297745,329,-8280,-355,-1,-3,-2,1
297750,332,-8280,-355,-1,-3,-2,1
297755,332,-8278,-348,-1,-3,-2,1
297760,330,-8279,-341,-1,-3,-2,1
297765,325,-8283,-331,-1,-3,-2,1
297770,320,-8286,-320,-1,-3,-2,1
297775,323,-8287,-312,-1,-3,-2,1
297780,326,-8285,-304,-1,-3,-2,1
297785,334,-8284,-302,-1,-3,-2,1
297790,341,-8282,-308,-1,-3,-2,1
297795,344,-8285,-306,-1,-3,-2,1
297800,339,-8288,-308,-1,-2,-2,1
297805,333,-8290,-301,-1,-2,-2,1
297810,328,-8286,-294,-1,-3,-2,1
297815,325,-8285,-288,-1,-3,-2,1
297820,329,-8286,-282,-1,-3,-2,1
297825,329,-8287,-283,-1,-3,-2,1
297830,332,-8288,-289,-1,-4,-2,1
297835,332,-8289,-292,-1,-4,-2,1
297840,327,-8289,-303,-1,-4,-2,1
297845,326,-8290,-315,-1,-4,-2,1
297850,325,-8288,-320,-1,-4,-2,1
297855,329,-8286,-323,-1,-3,-2,1
297860,335,-8284,-324,-1,-3,-2,1
297865,344,-8282,-325,-1,-3,-2,1
297870,352,-8280,-319,-1,-3,-2,1
297875,356,-8282,-312,-1,-2,-2,1
297880,357,-8283,-302,-1,-2,-2,1
297885,354,-8286,-298,-1,-2,-2,1
297890,353,-8288,-294,-1,-2,-2,1
297895,351,-8285,-288,-1,-2,-2,1
297900,349,-8287,-291,-1,-2,-2,1
297905,352,-8288,-298,-1,-2,-2,1
297910,352,-8287,-304,-1,-2,-2,1
297915,351,-8285,-310,-1,-2,-2,1
297920,348,-8286,-315,-1,-2,-2,1
297925,345,-8287,-315,-1,-3,-2,1
297930,339,-8288,-314,-1,-3,-2,1
297935,337,-8290,-319,-1,-3,-2,1
297940,334,-8286,-326,-1,-3,-2,1
297945,333,-8284,-332,-1,-4,-2,1
297950,333,-8284,-344,-1,-4,-2,1
297955,333,-8283,-348,-1,-4,-2,1
297960,335,-8284,-356,-1,-4,-2,1
297965,335,-8282,-359,-1,-3,-2,1
297970,333,-8279,-355,-1,-3,-2,1
297975,332,-8274,-353,-1,-3,-2,1
297980,336,-8273,-349,-1,-2,-2,1
297985,339,-8275,-351,-1,-2,-2,1
297990,343,-8276,-352,-1,-2,-2,1
297995,340,-8277,-356,-1,-1,-2,1
298000,341,-8275,-354,-1,-1,-2,1
298005,339,-8277,-347,-1,-1,-2,1
298010,336,-8277,-337,-1,-1,-2,1
298015,335,-8277,-331,-1,-1,-2,1
298020,332,-8279,-325,-1,-2,-2,1
298025,326,-8279,-325,-1,-2,-2,1
298030,324,-8283,-325,-1,-2,-2,1
298035,321,-8288,-330,-1,-2,-2,1
298040,317,-8291,-333,-1,-2,-2,1
298045,311,-8294,-338,-1,-2,-2,1
298050,307,-8294,-342,-1,-2,-2,1
298055,302,-8295,-334,-1,-3,-2,1
298060,300,-8294,-331,-1,-3,-2,1
298065,302,-8292,-327,-1,-3,-1,1
298070,304,-8288,-328,-1,-3,-2,1
298075,308,-8284,-328,-1,-2,-1,1
298080,315,-8282,-325,-1,-2,-2,1
298085,317,-8284,-323,-1,-2,-2,1
298090,319,-8284,-321,-1,-2,-2,1
298095,319,-8284,-319,-1,-2,-1,1
298100,313,-8285,-312,-1,-2,-2,1
298105,313,-8287,-310,-1,-2,-2,1
298110,308,-8288,-311,-1,-2,-2,1
298115,303,-8288,-313,-1,-2,-2,1
298120,303,-8286,-313,-1,-2,-2,1
298125,300,-8285,-310,-1,-3,-2,1
298130,297,-8284,-312,-1,-3,-2,1
298135,298,-8284,-313,-1,-3,-2,1
298140,295,-8283,-317,-1,-3,-2,1
298145,292,-8285,-326,-1,-3,-2,1
298150,286,-8285,-339,-1,-3,-2,1
298155,283,-8284,-351,-1,-3,-2,1
298160,282,-8286,-353,-1,-2,-2,1
298165,286,-8287,-352,-1,-2,-2,1
298170,292,-8286,-349,-1,-2,-2,1
298175,295,-8289,-346,-1,-2,-2,1
298180,298,-8290,-345,-1,-2,-2,1
298185,299,-8289,-338,-1,-2,-2,1
298190,302,-8288,-329,-1,-2,-2,1
298195,307,-8286,-329,-1,-2,-2,1
298200,309,-8287,-336,-1,-2,-2,1
298205,312,-8287,-339,-1,-2,-2,1
298210,314,-8288,-336,-1,-2,-2,1
298215,315,-8286,-332,-1,-2,-2,1
298220,313,-8288,-328,-1,-2,-2,1
298225,309,-8287,-321,-1,-2,-2,1
298230,306,-8282,-319,-1,-2,-2,1
298235,304,-8279,-317,-1,-2,-2,1
298240,301,-8279,-320,-1,-1,-2,1
298245,300,-8279,-327,-1,-1,-1,1
298250,300,-8283,-333,-1,-1,-2,1
298255,295,-8284,-334,-1,-1,-2,1
298260,288,-8283,-330,-1,-2,-2,1
298264,280,-8282,-328,-1,-2,-2,1
298270,272,-8282,-321,-1,-2,-2,1
298275,264,-8281,-321,-1,-2,-2,1
298279,260,-8282,-320,-1,-2,-2,1
298285,253,-8283,-322,-1,-2,-2,1
298290,253,-8287,-320,-1,-2,-2,1
298294,253,-8288,-319,-1,-2,-2,1
298300,255,-8285,-315,-1,-2,-2,1
298305,257,-8285,-310,-1,-2,-2,1
298309,257,-8284,-310,-1,-2,-2,1
298315,256,-8283,-308,-1,-2,-2,1
298320,257,-8283,-309,-1,-2,-2,1
298324,259,-8284,-316,-1,-2,-2,1
298330,261,-8282,-319,-1,-2,-2,1
298335,264,-8283,-323,-1,-2,-2,1
298339,267,-8281,-326,-1,-2,-2,1
298345,266,-8283,-329,-1,-3,-2,1
298350,268,-8283,-332,-1,-3,-2,1
298354,269,-8282,-336,-1,-3,-2,1
298360,271,-8284,-340,-1,-2,-2,1
298365,277,-8286,-343,-1,-2,-2,1
298369,287,-8286,-342,-1,-2,-2,1
298375,291,-8288,-344,-1,-2,-2,1
298379,294,-8290,-340,-1,-2,-2,1
298384,295,-8287,-335,-1,-2,-2,1
298390,300,-8286,-323,-1,-2,-2,1
298394,304,-8285,-313,-1,-3,-2,1
298399,304,-8284,-308,-1,-2,-2,1
298405,310,-8284,-304,-1,-2,-2,1
298409,314,-8286,-304,-1,-2,-2,1
298414,314,-8286,-302,-1,-3,-2,1
298419,317,-8289,-302,-1,-3,-2,1
298424,318,-8288,-296,-1,-3,-2,1
298429,319,-8289,-287,-1,-4,-2,1
298434,320,-8292,-279,-1,-4,-2,1
298439,319,-8291,-272,-1,-5,-2,1
298444,319,-8291,-269,-1,-6,-2,1
298449,317,-8291,-266,-1,-6,-2,1
298454,312,-8291,-264,-1,-7,-2,1
298459,305,-8287,-271,-1,-8,-2,1
298464,294,-8288,-282,-1,-8,-2,1
298469,284,-8287,-293,-1,-8,-2,1
298474,275,-8285,-306,-1,-8,-2,1
298479,265,-8283,-326,-1,-7,-2,1
298484,257,-8282,-348,-1,-6,-2,1
298489,254,-8281,-372,-1,-4,-2,1
298494,255,-8285,-385,-1,-3,-2,1
298499,259,-8287,-386,-1,-2,-2,1
298504,262,-8289,-368,-1,-2,-2,1
298509,262,-8288,-341,-1,-2,-2,1
298514,256,-8289,-315,-1,-3,-2,1
298519,251,-8287,-293,-1,-3,-2,1
298524,252,-8287,-279,-1,-4,-2,1
298529,257,-8285,-280,-1,-4,-2,1
298534,266,-8283,-287,-1,-5,-2,1
298539,276,-8286,-295,-1,-5,-2,1
298544,278,-8286,-294,-1,-6,-2,1
298549,279,-8290,-293,-1,-6,-2,1
298554,279,-8290,-282,-1,-6,-2,1
298559,275,-8290,-280,-1,-6,-2,1
298564,271,-8290,-282,-1,-6,-2,1
298569,269,-8289,-295,-1,-6,-2,1
298574,269,-8290,-313,-1,-5,-2,1
298579,278,-8291,-334,-1,-5,-2,1
298584,291,-8295,-353,-1,-4,-2,1
298589,302,-8294,-354,-1,-3,-2,1
298594,309,-8294,-346,-1,-3,-2,1
298599,310,-8292,-329,-1,-3,-2,1
298604,308,-8292,-317,-1,-3,-2,1
298609,306,-8289,-314,-1,-2,-2,1
298614,302,-8287,-322,-1,-2,-2,1
298619,304,-8287,-339,-1,-2,-2,1
298624,310,-8288,-348,-1,-2,-2,1
298629,318,-8288,-345,-1,-2,-2,1
298634,326,-8287,-335,-1,-2,-2,1
298639,332,-8285,-321,-1,-2,-2,1
298644,335,-8286,-311,-1,-2,-2,1
298649,333,-8286,-308,-1,-2,-2,1
298654,330,-8285,-315,-1,-2,-2,1
298659,325,-8281,-328,-1,-2,-2,1
298664,319,-8281,-338,-1,-2,-2,1
298669,315,-8283,-341,-1,-2,-2,1
298674,314,-8281,-341,-1,-2,-2,1
298679,315,-8278,-338,-1,-2,-2,1
298684,313,-8277,-329,-1,-2,-2,1
298689,306,-8279,-320,-1,-2,-2,1
298694,298,-8283,-322,-1,-2,-2,1
298699,286,-8284,-325,-1,-2,-2,1
298704,273,-8284,-327,-1,-2,-2,1
298709,265,-8285,-330,-1,-2,-2,1
298714,261,-8283,-328,-1,-2,-2,1
298719,255,-8284,-322,-1,-2,-2,1
298724,252,-8285,-310,-1,-3,-2,1
298729,248,-8283,-296,-1,-3,-2,1
298734,244,-8285,-292,-1,-3,-2,1
298739,242,-8285,-291,-1,-3,-2,1
298744,241,-8283,-288,-1,-4,-2,1
298749,243,-8282,-286,-1,-4,-2,1
298754,248,-8284,-281,-1,-4,-2,1
298759,250,-8286,-279,-1,-5,-2,1
298764,253,-8286,-278,-1,-5,-2,1
298769,256,-8285,-282,-1,-5,-2,1
298774,258,-8286,-290,-1,-5,-2,1
298779,261,-8285,-304,-1,-5,-2,1
298784,263,-8283,-316,-1,-5,-2,1
298789,267,-8284,-327,-1,-5,-2,1
298794,273,-8284,-332,-1,-5,-2,1
298799,280,-8284,-337,-1,-4,-2,1
298804,286,-8284,-336,-1,-4,-2,1
298809,290,-8285,-338,-1,-4,-2,1
298814,293,-8284,-337,-1,-4,-2,1
298819,296,-8286,-340,-1,-4,-2,1
298824,298,-8284,-341,-1,-4,-2,1
298829,303,-8283,-342,-1,-4,-2,1
298834,309,-8283,-346,-1,-4,-2,1
298839,318,-8285,-345,-1,-4,-2,1
298844,326,-8287,-341,-1,-4,-2,1
298849,333,-8286,-340,-1,-3,-2,1
298854,339,-8285,-338,-1,-3,-2,1
298859,342,-8285,-341,-1,-3,-2,1
298864,344,-8281,-339,-1,-3,-2,1
298869,348,-8280,-347,-1,-3,-2,1
298874,351,-8280,-357,-1,-3,-2,1
298879,351,-8279,-368,-1,-3,-2,1
298884,349,-8278,-370,-1,-3,-2,1
298889,348,-8276,-368,-1,-3,-2,1
298894,347,-8277,-365,-1,-3,-2,1
298899,345,-8276,-365,-1,-3,-2,1
298904,347,-8277,-366,-1,-2,-2,1
298909,350,-8278,-376,-1,-2,-2,1
298914,350,-8280,-382,-1,-2,-2,1
298919,351,-8279,-384,-1,-1,-2,1
298924,353,-8279,-383,-1,-1,-2,1
298929,349,-8278,-373,-1,-1,-2,1
298934,343,-8278,-367,-1,-1,-2,1
298939,338,-8280,-355,-1,-1,-2,1
298944,334,-8279,-347,-1,-1,-2,1
298949,331,-8280,-346,-1,-1,-2,1
298954,334,-8282,-343,-1,-2,-2,1
298959,338,-8282,-344,-1,-2,-2,1
298964,337,-8281,-346,-1,-2,-2,1
298969,337,-8280,-356,-1,-1,-2,1
298974,333,-8280,-368,-1,-1,-2,1
298979,329,-8280,-379,-1,-1,-2,1
298984,326,-8280,-380,-1,-1,-2,1
298989,320,-8280,-375,-1,-1,-2,1
298994,315,-8278,-371,-1,-1,-2,1
298999,315,-8278,-367,-1,-1,-2,1
299004,314,-8282,-360,-1,-1,-2,1
299009,314,-8284,-352,-1,-2,-2,1
299014,314,-8282,-341,-1,-2,-2,1
299019,315,-8278,-330,-1,-2,-2,1
299024,318,-8280,-322,-1,-2,-2,1
299029,322,-8281,-317,-1,-2,-2,1
299034,324,-8282,-309,-1,-2,-2,1
299039,324,-8281,-304,-1,-2,-2,1
299044,327,-8283,-305,-1,-2,-2,1
299049,324,-8284,-304,-1,-2,-2,1
299054,319,-8284,-312,-1,-2,-2,1
299059,315,-8288,-316,-1,-2,-2,1
299064,313,-8290,-322,-1,-2,-2,1
299069,311,-8289,-323,-1,-2,-2,1
299074,309,-8288,-323,-1,-2,-2,1
299079,307,-8286,-323,-1,-2,-2,1
299084,307,-8289,-325,-1,-2,-2,1
299089,304,-8290,-327,-1,-2,-2,1
299094,303,-8288,-331,-1,-2,-2,1
299099,301,-8290,-339,-1,-2,-2,1
299104,298,-8289,-345,-1,-2,-2,1
299109,293,-8287,-350,-1,-2,-2,1
299114,291,-8290,-358,-1,-2,-2,1
299119,290,-8287,-361,-1,-1,-2,1
299124,287,-8286,-366,-1,-1,-2,1
299129,290,-8287,-368,-1,-2,-2,1
299134,294,-8287,-369,-1,-2,-2,1
299139,295,-8287,-368,-1,-2,-2,1
299144,299,-8289,-366,-1,-2,-2,1
299149,304,-8289,-366,-1,-2,-2,1
299154,306,-8287,-363,-1,-2,-2,1
299159,308,-8285,-360,-1,-2,-2,1
299164,310,-8285,-361,-1,-2,-2,1
299169,316,-8284,-358,-1,-2,-2,1
299174,322,-8283,-355,-1,-2,-2,1
299179,327,-8284,-350,-1,-2,-2,1
299184,329,-8283,-347,-1,-2,-2,1
299189,334,-8284,-345,-1,-2,-2,1
299194,340,-8284,-343,-1,-2,-2,1
299199,347,-8284,-340,-1,-2,-2,1
299204,353,-8283,-333,-1,-2,-2,1
299209,360,-8285,-330,-1,-2,-2,1
299214,362,-8286,-321,-1,-2,-2,1
299219,363,-8285,-316,-1,-2,-2,1
299224,362,-8285,-314,-1,-2,-2,1
299229,362,-8285,-316,-1,-1,-2,1
299234,363,-8284,-323,-1,-1,-2,1
299239,360,-8285,-326,-1,-1,-1,1
299244,354,-8284,-329,-1,-1,-2,1
299249,351,-8286,-333,-1,-1,-1,1
299254,344,-8287,-336,-1,-1,-1,1
299259,337,-8288,-331,-1,-1,-1,1
299264,331,-8289,-323,-1,-1,-1,1
299269,327,-8289,-320,-1,-1,-1,1
299274,323,-8288,-322,-1,-1,-1,1
299279,322,-8285,-328,-1,-1,-1,1
299284,323,-8285,-330,-1,-1,-1,1
299289,324,-8285,-331,-1,-2,-1,1
299294,323,-8287,-330,-1,-2,-1,1
299299,323,-8287,-325,-1,-2,-1,1
299304,324,-8286,-327,-1,-2,-1,1
299309,321,-8283,-326,-1,-1,-1,1
299314,320,-8282,-326,-1,-1,-2,1
299319,319,-8280,-324,-1,-1,-1,1
299324,319,-8278,-325,-1,-1,-1,1
299329,322,-8279,-322,-1,-1,-1,1
299334,325,-8280,-322,-1,-1,-1,1
299339,326,-8281,-317,-1,-1,-1,1
299344,324,-8281,-315,-1,0,-1,1
299349,322,-8283,-317,-1,0,-1,1
299354,319,-8281,-319,-1,0,-1,1
299359,317,-8282,-323,-1,0,-1,1
299364,313,-8283,-328,-1,0,-1,1
299369,312,-8280,-326,-1,0,-1,1
299374,313,-8279,-320,-1,-1,-1,1
299379,313,-8280,-323,-1,-1,-1,1
299384,312,-8282,-325,-1,-1,-1,1
299389,314,-8282,-331,-1,0,-1,1
299394,316,-8280,-341,-1,0,-1,1
299399,318,-8282,-346,-1,0,-1,1
299404,319,-8282,-352,-1,0,-1,1
299409,321,-8284,-352,-1,0,-1,1
299414,320,-8285,-351,-1,1,-1,1
299419,316,-8285,-342,-1,1,-1,1
299424,318,-8288,-334,-1,1,-1,1
299429,321,-8290,-328,-1,1,-1,1
299434,324,-8292,-326,-1,0,-1,1
299439,324,-8293,-333,-1,0,-1,1
299444,326,-8292,-337,-1,0,-1,1
299449,328,-8292,-335,-1,0,-1,1
299454,328,-8291,-335,-1,0,-1,1
299459,325,-8290,-335,-1,0,-1,1
299464,317,-8291,-331,-1,0,-1,1
299469,309,-8290,-335,-1,0,-1,1
299474,303,-8289,-337,-1,0,-1,1
299479,299,-8286,-346,-1,1,-1,1
299484,296,-8281,-355,-1,1,-1,1
299489,296,-8279,-360,-1,2,-1,1
299494,298,-8280,-361,-1,3,-1,1
299499,298,-8283,-364,-1,4,-1,1
299504,295,-8282,-370,-1,6,-1,1
299509,295,-8281,-377,-1,7,-1,1
299514,292,-8281,-376,-1,8,-1,1
299519,290,-8280,-372,-1,8,-1,1
299524,292,-8279,-368,-1,8,-1,1
299529,296,-8279,-358,-1,7,-1,1
299534,294,-8278,-349,-1,7,-1,1
299539,295,-8279,-335,-1,6,-1,1
299544,300,-8281,-328,-1,5,-1,1
299549,301,-8281,-313,-1,3,-1,1
299554,293,-8281,-306,-1,3,-1,1
299559,294,-8283,-305,-1,3,-1,1
299564,301,-8282,-307,-1,4,-1,1
299569,308,-8283,-315,-1,4,-1,1
299574,311,-8286,-317,-1,4,-1,1
299579,314,-8287,-318,-1,5,-1,1
299584,314,-8286,-318,-1,5,-1,1
299589,306,-8287,-320,-1,6,-1,1
299594,306,-8288,-320,-1,6,-1,1
299599,303,-8289,-314,-1,6,-1,1
299604,301,-8290,-310,-1,6,-1,1
299609,302,-8291,-313,-1,6,-1,1
299614,299,-8290,-318,-1,5,-1,1
299619,299,-8288,-326,-1,5,-1,1
299624,296,-8285,-327,-1,5,-1,1
299629,290,-8283,-325,-1,5,-1,1
299634,286,-8285,-330,-1,6,-1,1
299639,284,-8287,-332,-1,6,-1,1
299644,282,-8287,-332,-1,6,-1,1
299649,283,-8281,-329,-1,6,-1,1
299654,287,-8278,-325,-1,6,-1,1
299659,291,-8279,-310,-1,5,-1,1
299664,293,-8281,-304,-1,5,-1,1
299669,292,-8281,-300,-1,4,-1,1
299674,291,-8282,-297,-1,4,-1,1
299678,290,-8281,-292,-1,4,-1,1
299684,287,-8284,-292,-1,3,-1,1
299689,286,-8283,-283,-1,2,-1,1
299693,288,-8284,-269,-1,2,-1,1
299699,288,-8285,-256,-1,0,-1,1
299704,289,-8285,-245,-1,-1,-1,1
299709,284,-8281,-244,-1,-1,-1,1
299713,278,-8279,-242,-1,-2,-1,1
299719,271,-8285,-251,-1,-2,-1,1
299724,270,-8287,-268,-1,-2,-1,1
299728,268,-8289,-284,-1,-2,-1,1
299734,270,-8289,-298,-1,-2,-1,1
299738,275,-8288,-309,-1,-2,-1,1
299744,276,-8286,-317,-1,-2,-1,1
299749,274,-8286,-327,-1,-1,-1,1
299753,273,-8285,-331,-1,-1,-1,1
299759,271,-8286,-326,-1,-1,-1,1
299764,270,-8291,-320,-1,-1,-1,1
299768,272,-8293,-315,-1,-1,-1,1
299774,276,-8295,-302,-1,-1,-1,1
299778,279,-8296,-295,-1,-1,-1,1
299783,280,-8295,-289,-1,-1,-1,1
299789,281,-8296,-285,-1,-2,-1,1
299793,280,-8293,-278,-1,-2,-1,1
299798,278,-8293,-273,-1,-2,-1,1
299804,278,-8293,-268,-1,-2,-1,1
299808,275,-8292,-273,-1,-3,-1,1
299813,277,-8288,-278,-1,-2,-1,1
299819,278,-8285,-285,-1,-2,-1,1
299823,284,-8286,-294,-1,-2,-1,1
299828,285,-8288,-298,-1,-2,-1,1
299833,288,-8289,-299,-1,-2,-1,1
299838,288,-8290,-292,-1,-2,-1,1
299843,285,-8290,-287,-1,-2,-1,1
299848,282,-8289,-282,-1,-2,-1,1
299853,280,-8289,-281,-1,-2,-1,1
299858,276,-8288,-285,-1,-2,-1,1
299863,273,-8284,-288,-1,-2,-1,1
299868,271,-8287,-294,-1,-2,-1,1
299873,268,-8287,-297,-1,-2,-1,1
299878,262,-8286,-300,-1,-1,-1,1
299883,257,-8287,-301,-1,-1,-1,1
299888,253,-8288,-300,-1,-2,-1,1
299893,245,-8289,-297,-1,-2,-1,1
299898,241,-8288,-299,-1,-2,-1,1
299903,243,-8287,-298,-1,-2,-1,1
299908,244,-8286,-302,-1,-2,-1,1
299913,247,-8286,-299,-1,-2,-1,1
299918,250,-8286,-298,-1,-2,-2,1
299923,250,-8288,-298,-1,-2,-1,1
299928,249,-8289,-297,-1,-1,-1,1
299933,246,-8293,-299,-1,-1,-1,1
299938,246,-8291,-299,-1,-1,-1,1
299943,250,-8287,-300,-1,-1,-1,1
299948,255,-8285,-301,-1,-1,-1,1
299953,257,-8284,-297,-1,-1,-1,1
299958,256,-8283,-300,-1,-1,-2,1
299963,253,-8282,-302,-1,-1,-1,1
299968,249,-8283,-304,-1,0,-2,1
299973,247,-8284,-306,-1,0,-2,1
299978,245,-8284,-307,-1,0,-2,1
299983,246,-8282,-306,-1,0,-2,1
299988,247,-8283,-309,-1,0,-2,1
299993,249,-8282,-316,-1,0,-1,1
299998,249,-8280,-320,-1,0,-2,1
300003,257,-8280,-324,-1,0,-1,1
300008,261,-8280,-326,-1,0,-2,1
300013,264,-8285,-321,-1,0,-2,1
300018,268,-8285,-317,-1,0,-1,1
300023,272,-8284,-317,-1,0,-2,1
300028,278,-8282,-322,-1,1,-1,1
300033,286,-8282,-320,-1,1,-1,1
300038,293,-8282,-316,-1,1,-1,1
300043,293,-8282,-306,-1,1,-1,1
300048,292,-8282,-302,-1,0,-1,1
300053,290,-8284,-297,-1,0,-2,1
300058,288,-8285,-291,-1,-1,-2,1
300063,284,-8286,-290,-1,-1,-1,1
300068,277,-8286,-297,-1,-2,-2,1
300073,270,-8287,-309,-1,-3,-2,1
300078,265,-8287,-316,-1,-3,-2,1
300083,260,-8289,-315,-1,-4,-2,1
300088,259,-8290,-303,-1,-6,-2,1
300093,261,-8290,-283,-1,-8,-2,1
300098,267,-8290,-244,-1,-11,-2,1
300103,283,-8288,-175,-1,-17,-2,1
300108,308,-8288,-68,-1,-29,-2,1
300113,329,-8288,81,-1,-47,-3,1
300118,335,-8291,282,-1,-71,-3,1
300123,306,-8299,503,-1,-100,-4,1
300128,272,-8307,767,-1,-135,-5,1
300133,198,-8316,1056,-1,-177,-7,1
300138,100,-8319,1346,-2,-224,-8,1
300143,-40,-8324,1617,-2,-271,-9,1
300148,-174,-8329,1828,-2,-320,-10,1
300153,-335,-8337,1978,-2,-370,-12,1
300158,-528,-8339,2054,-2,-421,-13,1
300163,-784,-8341,2079,-3,-470,-15,1
300168,-1130,-8344,2049,-3,-520,-17,1
300173,-1576,-8343,1977,-3,-569,-19,1
300178,-2146,-8343,1868,-3,-616,-21,1
300183,-2788,-8346,1722,-3,-664,-23,1
300188,-3534,-8352,1561,-3,-711,-26,1
300193,-4365,-8356,1395,-3,-758,-28,1
300198,-5282,-8363,1258,-3,-799,-31,1
300203,-6254,-8365,1181,-4,-832,-33,1
300208,-7205,-8363,1054,-5,-853,-35,1
300213,-8062,-8361,1011,-6,-859,-37,1
300218,-8629,-8340,928,-7,-859,-39,1
300223,-8865,-8307,764,-8,-853,-39,1
300228,-8804,-8264,478,-9,-840,-40,1
300233,-8459,-8225,18,-10,-819,-40,1
300238,-7948,-8186,-557,-12,-789,-39,1
300243,-7278,-8143,-1192,-14,-752,-38,1
300248,-6439,-8101,-1852,-15,-710,-36,1
300253,-5412,-8061,-2483,-16,-666,-33,1
300258,-4288,-8028,-3136,-16,-615,-30,1
300263,-3163,-8006,-3833,-15,-553,-27,1
300268,-2071,-7993,-4667,-13,-474,-23,1
300273,-1087,-7989,-5658,-12,-380,-19,1
300278,-249,-7995,-6672,-11,-277,-15,1
300283,433,-8006,-7594,-11,-167,-10,1
300288,1041,-8016,-8218,-11,-60,-5,1
300293,1566,-8021,-8415,-11,25,0,1
300298,1888,-8023,-8207,-10,91,3,1
300303,2186,-8024,-7673,-8,146,6,1
300308,2454,-8027,-7019,-5,177,6,1
300313,2568,-8039,-6393,-2,179,7,1
300318,2523,-8055,-5812,1,164,6,1
300323,2306,-8080,-5341,3,144,6,1
300328,2003,-8106,-4897,3,122,5,1
300333,1637,-8132,-4359,3,100,5,1
300338,1268,-8154,-3713,2,81,4,1
300343,929,-8171,-2945,2,63,4,1
300348,588,-8196,-2183,2,47,3,1
300353,259,-8219,-1508,3,32,1,1
300358,-100,-8246,-979,3,20,1,1
300363,-457,-8274,-673,3,10,0,1
300368,-727,-8302,-445,1,5,0,1
300373,-821,-8328,-287,-1,2,0,1
300378,-839,-8333,-96,-2,2,0,1
300383,-753,-8332,167,-3,1,0,1
300388,-647,-8324,404,-3,-2,-1,1
300393,-465,-8316,593,-3,-2,-1,1
300398,-259,-8307,645,-2,-3,-1,1
300403,-55,-8300,549,-1,-5,-1,1
300408,132,-8298,379,-1,-5,-1,1
300413,320,-8296,163,-1,-5,-1,1
300418,503,-8296,-8,-2,-4,-1,1
300423,647,-8294,-84,-2,-3,-1,1
300428,777,-8289,-73,-2,-2,-1,1
300433,850,-8284,-10,-2,-1,0,1
300438,863,-8281,44,-1,0,0,1
300443,848,-8279,37,0,1,0,1
300448,797,-8286,-27,0,2,0,1
300453,736,-8292,-109,0,2,1,1
300458,685,-8299,-166,-1,3,1,1
300463,634,-8300,-153,-2,5,1,1
300468,585,-8301,-68,-2,6,1,1
300473,526,-8300,44,-2,6,0,1
300478,442,-8300,149,-2,4,0,1
300483,342,-8300,222,-1,2,0,1
300488,252,-8303,230,-1,0,0,1
300493,184,-8309,204,-1,-2,0,1
300498,150,-8313,161,-1,-3,0,1
300503,142,-8313,133,-2,-4,0,1
300508,145,-8312,136,-2,-4,0,1
300513,144,-8307,157,-2,-4,-1,1
300518,122,-8304,182,-2,-4,-1,1
300523,85,-8304,186,-2,-3,-1,1
300528,50,-8303,164,-2,-3,-1,1
300533,41,-8302,116,-2,-2,0,1
300538,64,-8302,66,-2,-1,0,1
300543,112,-8302,38,-2,-1,0,1
300548,161,-8300,36,-2,-1,-1,1
300553,191,-8301,54,-2,-1,-1,1
300558,194,-8299,81,-2,-1,-1,1
300563,166,-8299,111,-2,-2,-1,1
300568,130,-8300,128,-2,-2,-1,1
300573,99,-8303,125,-2,-2,-1,1
300578,87,-8303,116,-2,-3,-1,1
300583,102,-8302,107,-2,-3,-1,1
300588,128,-8302,112,-2,-3,-1,1
300593,143,-8304,127,-2,-4,-2,1
300598,136,-8303,149,-2,-4,-2,1
300603,112,-8306,164,-2,-5,-2,1
300608,81,-8304,172,-2,-5,-2,1
300613,60,-8303,162,-2,-6,-2,1
300618,67,-8305,144,-2,-6,-2,1
300623,100,-8306,120,-2,-6,-2,1
300628,149,-8304,97,-3,-6,-2,1
300633,193,-8300,76,-3,-6,-2,1
300638,226,-8298,60,-3,-7,-2,1
300643,233,-8296,40,-3,-7,-2,1
300648,224,-8296,21,-3,-7,-2,1
300653,220,-8295,-3,-2,-7,-2,1
300658,235,-8294,-37,-2,-6,-2,1
300663,270,-8295,-66,-2,-6,-2,1
300668,319,-8295,-96,-2,-5,-2,1
300673,359,-8293,-124,-2,-5,-2,1
300678,381,-8294,-150,-2,-5,-2,1
300683,376,-8296,-162,-2,-4,-2,1
300688,352,-8297,-166,-2,-4,-2,1
300693,331,-8295,-166,-2,-3,-2,1
300698,323,-8295,-163,-2,-3,-2,1
300703,329,-8295,-166,-2,-3,-2,1
300708,350,-8296,-174,-2,-3,-2,1
300713,374,-8296,-181,-2,-3,-2,1
300718,388,-8297,-187,-2,-3,-2,1
300723,387,-8297,-194,-2,-3,-2,1
300728,371,-8296,-198,-2,-3,-2,1
300733,352,-8295,-197,-2,-4,-2,1
300738,347,-8295,-191,-2,-3,-2,1
300743,356,-8293,-190,-1,-3,-1,1
300748,375,-8292,-199,-1,-3,-1,1
300753,405,-8292,-210,-1,-3,-2,1
300758,425,-8293,-224,-1,-2,-2,1
300763,426,-8295,-234,-1,-2,-2,1
300768,415,-8294,-232,-1,-1,-2,1
300773,389,-8297,-220,-1,-1,-2,1
300778,363,-8298,-200,-1,-1,-1,1
300783,351,-8299,-173,-1,0,-1,1
300788,347,-8300,-138,-1,0,-1,1
300793,352,-8300,-114,-1,0,-1,1
300798,360,-8301,-92,-1,0,-1,1
300803,348,-8303,-68,-1,0,-2,1
300808,324,-8306,-40,-1,-1,-2,1
300813,297,-8307,-6,-1,-1,-2,1
300818,269,-8306,27,-2,-1,-2,1
300823,254,-8304,55,-1,-2,-2,1
300828,248,-8301,72,-1,-2,-2,1
300833,256,-8297,71,-1,-2,-2,1
300838,269,-8296,63,-1,-2,-2,1
300843,278,-8297,52,-2,-2,-2,1
300848,274,-8299,43,-2,-3,-2,1
300853,270,-8299,38,-2,-2,-2,1
300858,261,-8297,38,-2,-2,-2,1
300863,255,-8297,36,-2,-2,-2,1
300868,267,-8296,30,-2,-2,-2,1
300873,284,-8297,15,-2,-2,-2,1
300878,301,-8299,-6,-2,-2,-2,1
300883,319,-8298,-26,-2,-2,-2,1
300888,320,-8297,-46,-2,-2,-2,1
300893,308,-8296,-52,-2,-2,-2,1
300898,294,-8296,-55,-2,-2,-2,1
300903,274,-8298,-48,-2,-2,-2,1
300908,262,-8297,-51,-2,-1,-2,1
300913,265,-8298,-44,-1,-2,-2,1
300918,266,-8299,-55,-1,-2,-2,1
300923,271,-8299,-71,-1,-2,-2,1
300928,276,-8298,-90,-2,-2,-2,1
300933,275,-8297,-99,-2,-2,-2,1
300938,276,-8296,-106,-2,-2,-2,1
300943,283,-8298,-111,-1,-2,-2,1
300948,288,-8299,-124,-1,-2,-2,1
300953,299,-8300,-138,-1,-2,-2,1
300958,312,-8303,-151,-1,-2,-2,1
300963,319,-8303,-163,-1,-2,-2,1
300968,321,-8302,-182,-1,-2,-2,1
300973,313,-8302,-184,-1,-2,-2,1
300978,297,-8302,-184,-1,-2,-2,1
300983,285,-8302,-171,-1,-1,-2,1
300988,276,-8299,-157,-1,-1,-2,1
300993,269,-8296,-152,-1,-1,-2,1
300998,275,-8296,-151,-1,-1,-2,1
301003,285,-8298,-154,-1,-1,-2,1
301008,297,-8298,-158,-1,-2,-2,1
301013,309,-8296,-158,-1,-2,-2,1
301018,312,-8295,-160,-1,-2,-2,1
301023,311,-8295,-153,-1,-2,-2,1
301028,311,-8291,-150,-1,-2,-2,1
301033,314,-8292,-149,-1,-2,-2,1
301038,319,-8293,-150,-1,-2,-2,1
301043,329,-8294,-148,-1,-1,-2,1
301048,338,-8295,-147,-1,-1,-2,1
301053,343,-8295,-140,-1,-1,-2,1
301058,344,-8295,-129,-1,-1,-2,1
301063,339,-8295,-116,-1,-1,-2,1
301068,328,-8295,-107,-1,-1,-2,1
301073,322,-8298,-95,-1,-1,-2,1
301078,320,-8300,-87,-1,-1,-2,1
301083,327,-8299,-78,-1,-1,-2,1
301088,334,-8299,-69,-1,-1,-2,1
301093,341,-8301,-59,-1,-1,-2,1
301098,344,-8302,-48,-1,-1,-2,1
301103,342,-8303,-31,-1,-1,-2,1
301108,338,-8303,-16,-1,-1,-2,1
301113,338,-8305,-4,-1,-1,-2,1
301118,341,-8305,7,-1,-1,-2,1
301123,347,-8306,11,-1,-1,-2,1
301128,357,-8306,10,-1,-1,-2,1
301133,365,-8306,7,-1,-1,-2,1
301137,368,-8305,7,-1,-1,-2,1
301143,365,-8306,18,-1,-1,-2,1
301148,354,-8305,30,-1,-1,-2,1
301152,336,-8305,42,-1,-1,-2,1
301158,325,-8304,55,-1,-1,-2,1
301163,317,-8304,60,-1,-2,-2,1
301167,316,-8305,56,-1,-2,-2,1
301173,328,-8306,52,-1,-2,-2,1
301177,340,-8306,49,-1,-2,-2,1
301183,355,-8306,45,-1,-2,-2,1
301188,363,-8304,37,-1,-2,-2,1
301192,367,-8304,27,-1,-2,-2,1
301197,373,-8304,13,-1,-2,-2,1
301203,381,-8302,-1,-1,-2,-2,1
301208,391,-8302,-15,-1,-2,-2,1
301212,399,-8301,-26,-1,-1,-2,1
301217,406,-8299,-34,-1,-1,-2,1
301222,409,-8298,-38,-1,-1,-2,1
301227,407,-8298,-42,-1,-1,-2,1
301232,394,-8296,-44,-1,-1,-2,1
301238,378,-8293,-38,-1,-1,-2,1
301242,367,-8293,-28,-1,-1,-2,1
301247,358,-8293,-22,-1,-1,-2,1
301252,353,-8294,-18,-1,-1,-2,1
301257,349,-8296,-16,-1,-1,-2,1
301262,343,-8297,-8,-1,-1,-2,1
301267,332,-8299,-5,-1,-2,-2,1
301272,323,-8299,3,-1,-2,-2,1
301277,312,-8301,11,-1,-2,-2,1
301282,308,-8300,15,-1,-2,-2,1
301288,313,-8301,11,-1,-3,-2,1
301292,321,-8301,11,-1,-3,-2,1
301297,335,-8299,1,-1,-3,-2,1
301302,348,-8296,-7,-1,-2,-2,1
301307,361,-8293,-18,-1,-2,-2,1
301312,368,-8291,-28,-1,-2,-2,1
301317,375,-8291,-37,-1,-2,-2,1
301322,378,-8292,-44,-1,-2,-2,1
301327,385,-8292,-56,-1,-2,-2,1
301332,392,-8295,-64,-1,-2,-2,1
301337,399,-8295,-66,-1,-1,-2,1
301342,406,-8296,-67,-1,-1,-2,1
301347,407,-8299,-68,-1,-1,-2,1
301352,404,-8299,-65,-1,-1,-2,1
301357,400,-8299,-54,-1,-1,-2,1
301362,390,-8300,-42,-1,-1,-2,1
301367,377,-8300,-28,-1,-1,-2,1
301372,366,-8298,-18,-1,-2,-2,1
301377,357,-8297,-19,-1,-2,-2,1
301382,352,-8296,-20,-1,-2,-2,1
301387,349,-8293,-20,-1,-2,-2,1
301392,350,-8290,-19,-1,-2,-2,1
301397,356,-8292,-12,-1,-2,-2,1
301402,366,-8292,-9,-1,-2,-2,1
301407,374,-8294,-7,-1,-2,-2,1
301412,386,-8296,-13,-1,-2,-2,1
301417,395,-8299,-26,-1,-2,-2,1
301422,400,-8299,-34,-1,-2,-2,1
301427,406,-8301,-45,-1,-1,-2,1
301432,410,-8300,-55,-1,-1,-2,1
301437,412,-8296,-56,-1,-1,-2,1
301442,418,-8294,-47,-1,-1,-2,1
301447,422,-8294,-38,-1,-1,-2,1
301452,421,-8296,-25,-1,-1,-2,1
301457,417,-8296,-18,-1,-1,-2,1
301462,407,-8298,-14,-1,-1,-2,1
301467,392,-8297,-6,-1,-1,-2,1
301472,377,-8295,1,-1,-1,-2,1
301477,367,-8296,2,-1,-1,-2,1
301482,365,-8295,4,-1,-1,-2,1
301487,370,-8296,9,-1,-2,-2,1
301492,375,-8297,13,-1,-2,-2,1
301497,379,-8297,18,-1,-2,-2,1
301502,379,-8296,14,-1,-2,-2,1
301507,380,-8295,12,-1,-2,-2,1
301512,380,-8293,7,-1,-2,-2,1
301517,382,-8295,0,-1,-2,-2,1
301522,386,-8295,2,-1,-2,-2,1
301527,395,-8300,2,-1,-1,-2,1
301532,406,-8302,4,-1,-1,-2,1
301537,412,-8301,-7,-1,-1,-2,1
301542,414,-8300,-12,-1,-1,-2,1
301547,413,-8299,-19,-1,-1,-2,1
301552,406,-8298,-24,-1,-1,-2,1
301557,402,-8296,-20,-1,-1,-2,1
301562,394,-8295,-20,-1,-1,-2,1
301567,388,-8296,-14,-1,-1,-2,1
301572,380,-8296,-10,-1,-1,-2,1
301577,378,-8299,-6,-1,-1,-2,1
301582,379,-8296,-7,-1,-1,-2,1
301587,386,-8293,-11,-1,-1,-2,1
301592,389,-8293,-9,-1,-1,-2,1
301597,396,-8295,-8,-1,-1,-2,1
301602,401,-8294,-3,-1,-1,-2,1
301607,399,-8296,3,-1,-1,-2,1
301612,397,-8298,10,-1,-2,-2,1
301617,388,-8300,15,-1,-2,-2,1
301622,379,-8304,17,-1,-2,-2,1
301627,370,-8306,22,-1,-2,-2,1
301632,371,-8303,20,-1,-2,-2,1
301637,372,-8304,18,-1,-2,-2,1
301642,379,-8304,19,-1,-2,-2,1
301647,386,-8302,20,-1,-2,-2,1
301652,390,-8300,24,-1,-2,-2,1
301657,393,-8300,24,-1,-2,-2,1
301662,396,-8297,16,-1,-2,-2,1
301667,399,-8297,10,-1,-2,-2,1
301672,404,-8295,2,-1,-1,-2,1
301677,408,-8293,-5,-1,-1,-2,1
301682,407,-8294,-11,-1,-1,-2,1
301687,411,-8296,-16,-1,-1,-2,1
301692,409,-8296,-15,-1,-1,-2,1
301697,406,-8297,-23,-1,-1,-2,1
301702,401,-8299,-28,-1,-1,-2,1
301707,396,-8299,-21,-1,-1,-2,1
301712,390,-8297,-18,-1,-1,-2,1
301717,385,-8295,-13,-1,-1,-1,1
301722,380,-8292,0,-1,-1,-2,1
301727,374,-8293,10,-1,-1,-2,1
301732,366,-8294,20,-1,-2,-2,1
301737,355,-8294,26,-1,-2,-2,1
301742,344,-8296,30,-1,-2,-2,1
301747,335,-8295,37,-1,-3,-2,1
301752,332,-8294,44,-2,-3,-2,1
301757,336,-8294,43,-2,-3,-2,1
301762,348,-8292,40,-2,-3,-2,1
301767,362,-8298,33,-2,-3,-2,1
301772,375,-8301,28,-2,-3,-2,1
301777,386,-8303,19,-2,-3,-2,1
301782,394,-8303,7,-2,-2,-2,1
301787,404,-8304,-11,-2,-2,-2,1
301792,415,-8303,-29,-2,-2,-1,1
301797,429,-8303,-39,-1,-1,-1,1
301802,442,-8303,-47,-1,-1,-1,1
301807,445,-8301,-50,-1,-1,-1,1
301812,443,-8299,-53,-1,-1,-1,1
301817,438,-8299,-53,-1,-1,-1,1
301822,426,-8301,-51,-1,-1,-1,1
301827,413,-8303,-45,-1,-1,-1,1
301832,400,-8301,-39,-1,-1,-1,1
301837,390,-8297,-30,-1,-1,-1,1
301842,380,-8295,-28,-1,-1,-1,1
301847,371,-8299,-23,-1,-2,-1,1
301852,362,-8300,-13,-1,-2,-1,1
301857,352,-8302,-3,-1,-2,-1,1
301862,339,-8306,4,-2,-2,-1,1
301867,327,-8306,7,-2,-3,-1,1
301872,321,-8302,10,-2,-3,-1,1
301877,317,-8300,5,-2,-3,-1,1
301882,316,-8297,3,-2,-3,-2,1
301887,318,-8296,-5,-2,-3,-1,1
301892,320,-8296,-13,-2,-3,-1,1
301897,324,-8297,-21,-2,-3,-1,1
301902,329,-8296,-34,-2,-3,-2,1
301907,335,-8297,-45,-2,-3,-2,1
301912,340,-8298,-58,-1,-2,-2,1
301917,349,-8300,-70,-1,-2,-2,1
301922,358,-8300,-80,-1,-2,-1,1
301927,365,-8303,-87,-1,-2,-1,1
301932,369,-8305,-95,-1,-2,-2,1
301937,365,-8306,-105,-1,-2,-2,1
301942,357,-8307,-108,-1,-2,-2,1
301947,343,-8305,-107,-1,-2,-2,1
301952,331,-8304,-105,-1,-2,-2,1
301957,321,-8304,-100,-1,-2,-2,1
301962,318,-8303,-90,-1,-2,-2,1
301967,319,-8299,-80,-1,-2,-2,1
301972,323,-8298,-79,-1,-2,-2,1
301977,326,-8299,-78,-1,-2,-2,1
301982,327,-8301,-75,-1,-2,-2,1
301987,328,-8301,-68,-1,-2,-2,1
301992,327,-8300,-64,-1,-2,-2,1
301997,332,-8296,-59,-1,-2,-2,1
302002,340,-8298,-60,-1,-2,-2,1
302007,348,-8297,-55,-1,-2,-2,1
302012,355,-8296,-54,-1,-2,-2,1
302017,359,-8297,-54,-1,-2,-2,1
302022,358,-8296,-56,-1,-2,-2,1
302027,357,-8298,-56,-1,-2,-2,1
302032,356,-8302,-47,-1,-2,-2,1
302037,353,-8303,-40,-1,-2,-2,1
302042,347,-8303,-31,-1,-2,-2,1
302047,341,-8301,-22,-1,-2,-2,1
302052,334,-8300,-17,-1,-2,-2,1
302057,327,-8302,-15,-1,-2,-2,1
302062,324,-8303,-14,-1,-2,-2,1
302067,320,-8303,-14,-1,-2,-2,1
302072,324,-8304,-15,-1,-2,-2,1
302077,326,-8300,-15,-1,-2,-2,1
302082,328,-8300,-16,-1,-2,-2,1
302087,332,-8300,-22,-1,-2,-2,1
302092,340,-8297,-36,-1,-2,-2,1
302097,341,-8298,-50,-1,-2,-2,1
302102,341,-8301,-66,-1,-2,-2,1
302107,342,-8302,-68,-1,-2,-2,1
302112,345,-8302,-70,-1,-2,-2,1
302117,347,-8301,-71,-1,-1,-2,1
302122,350,-8299,-68,-1,-1,-2,1
302127,353,-8301,-68,-1,-1,-2,1
302132,356,-8298,-69,-1,-1,-2,1
302137,349,-8296,-68,-1,-1,-2,1
302142,338,-8294,-70,-1,-2,-2,1
302147,327,-8297,-65,-1,-2,-2,1
302152,312,-8295,-54,-1,-2,-2,1
302157,302,-8294,-39,-1,-2,-2,1
302162,295,-8294,-24,-1,-2,-2,1
302167,290,-8295,-13,-1,-2,-2,1
302172,293,-8293,-14,-1,-2,-2,1
302177,298,-8294,-15,-1,-3,-2,1
302182,305,-8295,-16,-1,-3,-2,1
302187,315,-8297,-23,-1,-3,-2,1
302192,324,-8298,-33,-1,-3,-2,1
302197,334,-8297,-41,-1,-3,-2,1
302202,344,-8298,-48,-1,-2,-2,1
302207,355,-8301,-57,-1,-2,-2,1
302212,368,-8303,-69,-1,-2,-2,1
302217,379,-8303,-81,-1,-2,-2,1
302222,386,-8304,-95,-1,-1,-2,1
302227,388,-8303,-103,-1,-1,-2,1
302232,392,-8302,-101,-1,-1,-2,1
302237,393,-8304,-90,-1,-1,-2,1
302242,395,-8305,-77,-1,-1,-2,1
302247,392,-8303,-66,-1,-1,-2,1
302252,381,-8302,-53,-1,-1,-2,1
302257,366,-8303,-40,-1,-1,-2,1
302262,349,-8302,-28,-1,-1,-2,1
302267,332,-8303,-24,-1,-2,-2,1
302272,318,-8301,-19,-1,-2,-2,1
302277,311,-8301,-9,-1,-2,-2,1
302282,310,-8301,-1,-1,-2,-2,1
302287,316,-8301,8,-1,-2,-2,1
302292,323,-8297,18,-1,-2,-2,1
302297,331,-8294,17,-1,-3,-2,1
302302,336,-8295,9,-1,-3,-2,1
302307,339,-8297,-10,-1,-3,-2,1
302312,341,-8298,-26,-1,-3,-2,1
302317,345,-8298,-40,-1,-2,-2,1
302322,355,-8300,-50,-1,-2,-2,1
302327,361,-8300,-54,-1,-2,-2,1
302332,364,-8300,-58,-1,-2,-2,1
302337,365,-8300,-63,-1,-2,-2,1
302342,365,-8302,-70,-1,-2,-2,1
302347,364,-8301,-80,-1,-2,-2,1
302352,362,-8300,-88,-1,-1,-2,1
302357,361,-8298,-90,-1,-1,-2,1
302362,359,-8298,-83,-1,-1,-2,1
302367,357,-8296,-76,-1,-1,-2,1
302372,356,-8296,-68,-1,-1,-2,1
302377,351,-8296,-66,-1,-2,-2,1
302382,343,-8297,-63,-1,-2,-2,1
302387,334,-8301,-59,-1,-2,-2,1
302392,324,-8303,-54,-1,-2,-2,1
302397,317,-8302,-45,-1,-2,-2,1
302402,312,-8300,-34,-1,-3,-2,1
302407,311,-8299,-28,-1,-3,-2,1
302412,314,-8303,-26,-1,-3,-2,1
302417,324,-8303,-27,-1,-3,-2,1
302422,332,-8302,-30,-1,-3,-2,1
302427,341,-8302,-36,-1,-3,-2,1
302432,352,-8303,-44,-1,-3,-2,1
302437,361,-8301,-49,-1,-2,-2,1
302442,371,-8298,-58,-1,-2,-2,1
302447,379,-8297,-62,-1,-2,-2,1
302452,387,-8296,-64,-1,-2,-2,1
302457,389,-8294,-64,-1,-2,-2,1
302462,384,-8293,-62,-1,-2,-2,1
302467,378,-8294,-60,-1,-2,-2,1
302472,368,-8293,-49,-1,-2,-2,1
302477,358,-8293,-42,-1,-2,-2,1
302481,346,-8296,-31,-1,-2,-2,1
302487,338,-8296,-19,-1,-2,-2,1
302492,333,-8296,-7,-1,-2,-2,1
302496,336,-8296,-6,-1,-2,-2,1
302502,341,-8295,-5,-1,-2,-2,1
302507,350,-8293,-8,-1,-2,-2,1
302511,357,-8291,-16,-1,-2,-2,1
302517,367,-8291,-25,-1,-2,-2,1
302521,380,-8292,-28,-1,-2,-2,1
302526,387,-8291,-34,-1,-2,-2,1
302532,391,-8293,-38,-1,-2,-2,1
302536,390,-8295,-44,-1,-2,-2,1
302541,387,-8296,-49,-1,-1,-2,1
302547,385,-8294,-47,-1,-1,-2,1
302551,379,-8294,-48,-1,-1,-2,1
302556,367,-8295,-39,-1,-1,-2,1
302562,354,-8294,-28,-1,-2,-2,1
302566,340,-8297,-15,-1,-2,-2,1
302572,328,-8298,-3,-1,-2,-2,1
302577,317,-8299,7,-1,-2,-2,1
302582,312,-8301,15,-1,-2,-2,1
302586,315,-8300,16,-1,-3,-2,1
302591,318,-8299,13,-1,-3,-2,1
302596,322,-8297,3,-1,-3,-2,1
302601,331,-8296,-12,-1,-3,-2,1
302606,342,-8298,-24,-1,-3,-2,1
302612,348,-8296,-33,-1,-3,-2,1
302616,359,-8293,-44,-1,-3,-2,1
302622,370,-8293,-55,-1,-2,-2,1
302626,377,-8295,-70,-1,-2,-2,1
302631,378,-8297,-80,-1,-2,-2,1
302636,379,-8298,-83,-1,-2,-2,1
302641,382,-8299,-87,-1,-1,-2,1
302646,381,-8300,-79,-1,-1,-2,1
302651,378,-8301,-71,-1,-1,-2,1
302656,376,-8300,-62,-1,-1,-2,1
302661,373,-8298,-54,-1,-1,-2,1
302666,365,-8297,-48,-1,-1,-2,1
302671,350,-8299,-35,-1,-2,-2,1
302676,335,-8301,-24,-1,-2,-2,1
302681,323,-8301,-10,-1,-2,-2,1
302686,315,-8301,2,-1,-2,-2,1
302691,312,-8298,13,-1,-2,-2,1
302696,317,-8300,16,-1,-3,-2,1
302701,324,-8300,16,-1,-3,-2,1
302706,333,-8300,16,-1,-3,-2,1
302711,342,-8299,5,-1,-3,-2,1
302716,355,-8299,-9,-1,-3,-2,1
302721,373,-8299,-24,-1,-2,-2,1
302726,388,-8298,-34,-1,-2,-2,1
302731,399,-8295,-46,-1,-2,-2,1
302736,410,-8295,-53,-1,-1,-2,1
302741,413,-8296,-59,-1,-1,-2,1
302746,411,-8298,-54,-1,-1,-2,1
302751,402,-8298,-48,-1,-1,-2,1
302756,388,-8298,-43,-1,-1,-2,1
302761,373,-8300,-38,-1,-1,-2,1
302766,356,-8298,-30,-1,-1,-2,1
302771,339,-8298,-22,-1,-2,-2,1
302776,326,-8293,-12,-1,-2,-2,1
302781,322,-8292,-6,-1,-2,-2,1
302786,321,-8294,-9,-1,-2,-2,1
302791,320,-8295,-13,-1,-3,-2,1
302796,321,-8296,-19,-1,-3,-2,1
302801,326,-8295,-25,-1,-3,-2,1
302806,331,-8294,-37,-1,-3,-2,1
302811,334,-8297,-56,-1,-2,-2,1
302816,340,-8295,-71,-1,-2,-2,1
302821,345,-8296,-85,-1,-2,-2,1
302826,349,-8293,-97,-1,-2,-2,1
302831,355,-8293,-104,-1,-1,-2,1
302836,359,-8292,-105,-1,-1,-2,1
302841,358,-8291,-103,-1,-1,-2,1
302846,355,-8293,-100,-1,-1,-2,1
302851,351,-8294,-99,-1,-1,-2,1
302856,343,-8292,-93,-1,-1,-2,1
302861,336,-8291,-83,-1,-1,-2,1
302866,325,-8294,-71,-1,-1,-2,1
302871,311,-8292,-60,-1,-1,-2,1
302876,300,-8292,-43,-1,-2,-2,1
302881,292,-8293,-32,-1,-2,-2,1
302886,290,-8293,-24,-1,-2,-2,1
302891,287,-8295,-15,-1,-2,-2,1
302896,285,-8293,-9,-1,-3,-2,1
302901,283,-8294,-8,-1,-3,-2,1
302906,288,-8298,-8,-1,-3,-2,1
302911,299,-8298,-10,-1,-3,-2,1
302916,311,-8299,-19,-1,-3,-2,1
302921,327,-8300,-27,-1,-3,-2,1
302926,342,-8298,-39,-1,-2,-2,1
302931,359,-8296,-48,-1,-2,-2,1
302936,373,-8295,-59,-1,-2,-2,1
302941,387,-8298,-65,-1,-2,-2,1
302946,402,-8300,-71,-1,-1,-2,1
302951,410,-8300,-83,-1,-1,-2,1
302956,413,-8298,-85,-1,-1,-2,1
302961,413,-8300,-80,-1,-1,-2,1
302966,407,-8300,-70,-1,-1,-2,1
302971,395,-8301,-65,-1,-1,-2,1
