millis,ax,ay,az,gx,gy,gz,label
120959,-1213,-7857,1029,1,10,-1,0
120964,-1164,-7859,1016,1,10,-1,1
120969,-1122,-7856,1011,1,10,-1,1
120974,-1092,-7854,1009,1,11,-1,1
120979,-1075,-7852,1016,1,11,-1,1
120984,-1071,-7849,1021,1,10,-1,1
120989,-1084,-7850,1022,1,10,-1,1
120994,-1111,-7848,1023,1,9,-1,1
120999,-1147,-7849,1027,1,10,-1,1
121004,-1183,-7851,1030,1,10,-1,1
121009,-1209,-7852,1029,2,12,-1,1
121014,-1229,-7850,1022,2,14,-1,1
121019,-1244,-7842,1017,2,15,-1,1
121024,-1250,-7840,1014,2,17,-1,1
121029,-1248,-7844,1024,2,19,-1,1
121034,-1238,-7844,1032,2,19,-1,1
121039,-1220,-7842,1046,2,20,0,1
121044,-1193,-7844,1057,2,20,0,1
121049,-1156,-7848,1067,2,19,0,1
121054,-1108,-7847,1061,2,18,0,1
121059,-1053,-7844,1042,2,18,0,1
121064,-996,-7847,1019,2,17,0,1
121069,-938,-7847,1004,2,18,0,1
121074,-876,-7847,998,3,17,0,1
121079,-818,-7850,998,3,16,0,1
121084,-771,-7848,1000,3,13,0,1
121089,-739,-7849,1002,3,9,0,1
121094,-732,-7849,1009,3,6,0,1
121099,-743,-7845,1013,3,4,1,1
121104,-747,-7842,1029,3,2,1,1
121109,-760,-7840,1056,3,0,1,1
121114,-772,-7839,1072,3,-1,1,1
121119,-793,-7834,1087,3,-1,1,1
121124,-819,-7838,1094,3,-1,1,1
121129,-855,-7828,1094,3,1,1,1
121134,-881,-7828,1096,3,2,1,1
121139,-920,-7825,1096,4,2,1,1
121144,-976,-7824,1091,3,2,2,1
121149,-1026,-7822,1085,4,3,2,1
121154,-1094,-7815,1082,4,6,2,1
121159,-1159,-7821,1089,4,10,2,1
121164,-1213,-7818,1107,4,14,2,1
121169,-1273,-7815,1123,4,17,2,1
121174,-1331,-7816,1155,4,19,2,1
121179,-1382,-7813,1170,4,20,2,1
121184,-1436,-7816,1170,4,20,2,1
121189,-1473,-7817,1176,4,19,2,1
121194,-1497,-7814,1168,4,19,2,1
121199,-1518,-7815,1154,4,18,2,1
121204,-1515,-7817,1140,4,17,1,1
121209,-1492,-7812,1115,4,15,2,1
121214,-1483,-7813,1096,4,14,1,1
121219,-1474,-7813,1075,4,14,1,1
121224,-1467,-7806,1046,4,16,1,1
121229,-1491,-7801,1019,4,20,1,1
121234,-1522,-7800,996,5,24,1,1
121239,-1552,-7797,963,5,29,1,1
121244,-1587,-7789,950,5,34,1,1
121249,-1621,-7785,931,5,38,1,1
121254,-1659,-7791,924,5,42,1,1
121259,-1687,-7786,919,5,44,1,1
121264,-1705,-7788,927,5,47,1,1
121269,-1723,-7787,950,5,50,1,1
121274,-1732,-7784,967,5,54,1,1
121279,-1750,-7781,983,5,60,2,1
121284,-1750,-7766,997,5,69,2,1
121289,-1728,-7755,1025,5,78,2,1
121294,-1718,-7764,1051,5,84,2,1
121299,-1685,-7761,1066,5,89,2,1
121304,-1658,-7759,1102,5,94,2,1
121309,-1650,-7760,1137,5,99,2,1
121314,-1623,-7755,1173,5,104,3,1
121319,-1575,-7743,1216,5,107,3,1
121324,-1522,-7726,1254,5,107,3,1
121329,-1470,-7728,1267,5,105,3,1
121334,-1398,-7733,1231,6,98,3,1
121339,-1315,-7739,1145,6,87,3,1
121344,-1241,-7750,1025,7,73,3,1
121349,-1171,-7763,878,7,60,3,1
121354,-1125,-7776,745,7,48,3,1
121359,-1092,-7784,636,7,38,3,1
121364,-1108,-7790,537,7,29,2,1
121369,-1174,-7788,486,7,20,3,1
121374,-1273,-7783,484,7,14,3,1
121379,-1394,-7768,514,7,11,3,1
121384,-1522,-7752,580,7,13,3,1
121389,-1639,-7740,674,7,18,3,1
121393,-1737,-7727,762,7,24,3,1
121399,-1836,-7715,858,7,33,3,1
121404,-1928,-7705,907,7,38,3,1
121408,-2004,-7708,933,8,43,3,1
121414,-2067,-7712,943,7,45,3,1
121419,-2117,-7719,920,7,49,3,1
121423,-2145,-7714,876,7,56,3,1
121428,-2118,-7708,828,7,62,4,1
121433,-1993,-7705,789,7,67,4,1
121438,-1751,-7680,741,7,71,5,1
121444,-1436,-7648,706,7,74,6,1
121448,-1528,-7647,845,7,76,6,1
121453,-2060,-7641,1058,6,66,0,1
121459,-2317,-7790,1222,6,48,-2,1
121464,-2577,-7725,1342,7,38,-2,1
121468,-3147,-7739,1309,8,33,1,1
121474,-3298,-7718,1148,9,32,3,1
121478,-3250,-7674,927,9,43,5,1
121483,-3011,-7656,745,9,52,5,1
121488,-2706,-7670,530,8,63,4,1
121493,-2502,-7702,356,8,72,2,1
121498,-2344,-7753,295,7,74,1,1
121503,-2244,-7746,251,7,69,0,1
121508,-2207,-7728,255,7,57,0,1
121513,-2272,-7714,321,8,44,1,1
121518,-2248,-7704,391,8,30,3,1
121523,-2115,-7684,479,8,18,4,1
121528,-1901,-7672,583,8,13,4,1
121533,-1694,-7656,661,8,14,4,1
121538,-1549,-7663,744,8,19,4,1
121543,-1459,-7665,830,8,28,3,1
121548,-1480,-7637,875,8,39,2,1
121553,-1589,-7632,919,8,48,2,1
121558,-1749,-7648,990,8,56,3,1
121563,-1967,-7637,1043,8,58,4,1
121568,-2137,-7622,1057,8,55,5,1
121573,-2268,-7607,1038,8,56,5,1
121578,-2352,-7602,952,8,64,6,1
121583,-2355,-7534,831,8,87,6,1
121588,-2355,-7489,808,8,109,5,1
121593,-2406,-7550,830,7,117,4,1
121598,-2462,-7647,825,7,113,4,1
121603,-2530,-7687,821,7,100,4,1
121608,-2580,-7679,762,8,85,5,1
121613,-2587,-7660,713,7,74,6,1
121618,-2552,-7638,703,7,72,7,1
121623,-2441,-7633,743,7,74,6,1
121628,-2294,-7623,838,6,76,6,1
121633,-2195,-7632,915,6,73,5,1
121638,-2164,-7650,989,7,65,4,1
121643,-2197,-7649,1031,7,54,4,1
121648,-2275,-7641,1005,7,42,5,1
121653,-2377,-7636,969,7,32,5,1
121658,-2466,-7627,929,7,26,5,1
121663,-2542,-7626,912,6,22,5,1
121668,-2607,-7634,916,6,20,5,1
121673,-2635,-7625,891,6,18,4,1
121678,-2666,-7608,841,7,16,4,1
121683,-2719,-7608,746,7,14,4,1
121688,-2772,-7585,618,7,13,4,1
121693,-2816,-7556,508,7,14,4,1
121698,-2841,-7541,419,7,14,4,1
121703,-2861,-7513,377,7,13,4,1
121708,-2880,-7450,355,7,15,4,1
121713,-2943,-7408,358,7,20,4,1
121718,-3023,-7414,376,8,27,4,1
121723,-3081,-7403,338,8,36,4,1
121728,-3146,-7390,255,9,46,4,1
121733,-3183,-7372,139,9,56,5,1
121738,-3209,-7372,26,9,67,5,1
121743,-3191,-7384,-75,10,78,5,1
121748,-3153,-7398,-165,10,86,5,1
121753,-3101,-7410,-254,11,91,5,1
121758,-3066,-7423,-326,12,98,5,1
121763,-3041,-7443,-380,12,105,5,1
121768,-3038,-7467,-414,13,113,5,1
121773,-3025,-7504,-514,12,121,5,1
121778,-3001,-7529,-627,12,129,6,1
121783,-2972,-7514,-734,11,133,6,1
121788,-2951,-7519,-792,11,134,6,1
121793,-2926,-7541,-757,11,131,6,1
121798,-2953,-7633,-665,11,127,6,1
121803,-2954,-7680,-577,11,124,6,1
121808,-2986,-7683,-516,11,123,6,1
121813,-3060,-7671,-475,11,126,6,1
121818,-3149,-7655,-480,12,131,6,1
121823,-3254,-7631,-514,11,138,6,1
121828,-3356,-7608,-539,11,144,6,1
121833,-3437,-7598,-564,11,148,6,1
121838,-3470,-7579,-560,11,150,7,1
121843,-3438,-7554,-521,11,152,7,1
121848,-3350,-7506,-457,11,153,8,1
121853,-3220,-7475,-399,11,154,8,1
121858,-3082,-7479,-349,11,152,8,1
121863,-2922,-7507,-321,11,147,8,1
121868,-2777,-7530,-330,11,140,8,1
121873,-2676,-7532,-350,11,131,9,1
121878,-2590,-7534,-358,11,123,9,1
121883,-2525,-7516,-362,10,116,9,1
121888,-2494,-7503,-335,10,108,9,1
121893,-2482,-7526,-293,10,100,9,1
121898,-2521,-7560,-255,9,91,9,1
121903,-2629,-7629,-238,9,85,9,1
121908,-2830,-7753,-291,9,85,9,1
121913,-3125,-7913,-403,9,90,9,1
121918,-3490,-8000,-489,9,101,9,1
121923,-3962,-7914,-613,9,117,8,1
121928,-4120,-7717,-454,8,125,7,1
121933,-3878,-7452,-92,5,126,9,1
121938,-3572,-7169,-167,1,115,12,1
121943,-2939,-6929,-124,1,92,15,1
121948,-2447,-6757,136,2,73,16,1
121953,-2173,-6645,335,4,60,15,1
121958,-2155,-6619,232,5,58,14,1
121963,-2361,-6693,-68,6,62,14,1
121968,-2663,-6826,-400,5,64,15,1
121973,-2957,-6963,-683,4,64,16,1
121978,-3135,-7061,-827,3,70,17,1
121983,-3218,-7118,-827,2,84,17,1
121988,-3247,-7162,-785,2,96,17,1
121993,-3229,-7212,-754,2,100,18,1
121998,-3192,-7282,-754,1,96,18,1
122003,-3225,-7356,-799,0,86,19,1
122008,-3277,-7425,-867,-1,78,19,1
122013,-3343,-7508,-916,-2,74,20,1
122018,-3450,-7586,-924,-3,72,21,1
122023,-3547,-7622,-913,-4,71,22,1
122028,-3624,-7643,-952,-5,69,23,1
122033,-3744,-7682,-1071,-5,66,24,1
122038,-3931,-7744,-1241,-5,68,25,1
122043,-4153,-7824,-1472,-5,76,26,1
122048,-4363,-7906,-1719,-6,87,27,1
122053,-4527,-7959,-1953,-7,97,28,1
122058,-4639,-7983,-2135,-7,106,29,1
122063,-4733,-7991,-2237,-8,115,30,1
122068,-4845,-7996,-2292,-9,122,31,1
122073,-4985,-8005,-2324,-9,128,32,1
122078,-5137,-8016,-2373,-10,134,33,1
122083,-5260,-8030,-2439,-11,140,34,1
122088,-5334,-8038,-2481,-12,143,35,1
122093,-5375,-8054,-2461,-13,144,36,1
122098,-5399,-8075,-2405,-15,141,37,1
122103,-5412,-8091,-2340,-16,137,38,1
122108,-5427,-8091,-2285,-17,131,39,1
122113,-5461,-8069,-2278,-19,123,40,1
122118,-5517,-8032,-2306,-20,115,41,1
122123,-5575,-7983,-2350,-22,105,42,1
122128,-5626,-7935,-2394,-23,96,43,1
122133,-5657,-7888,-2438,-24,88,43,1
122138,-5664,-7843,-2483,-25,82,44,1
122143,-5666,-7802,-2554,-26,77,45,1
122148,-5669,-7760,-2655,-27,73,46,1
122153,-5680,-7724,-2758,-28,70,47,1
122157,-5704,-7703,-2848,-29,68,48,1
122163,-5729,-7696,-2932,-29,69,48,1
122167,-5742,-7696,-3008,-30,71,49,1
122173,-5740,-7686,-3094,-30,76,50,1
122177,-5725,-7656,-3199,-30,82,51,1
122183,-5710,-7604,-3307,-31,87,52,1
122187,-5703,-7543,-3406,-31,91,52,1
122193,-5707,-7474,-3483,-31,94,53,1
122197,-5701,-7399,-3527,-32,98,53,1
122203,-5679,-7322,-3556,-32,100,53,1
122207,-5638,-7244,-3580,-32,101,54,1
122213,-5589,-7168,-3622,-33,100,54,1
122217,-5534,-7101,-3672,-33,100,54,1
122223,-5469,-7027,-3731,-33,99,54,1
122227,-5402,-6934,-3789,-34,98,54,1
122232,-5338,-6832,-3835,-34,97,54,1
122237,-5285,-6744,-3881,-35,95,55,1
122242,-5247,-6686,-3935,-35,95,55,1
122247,-5203,-6657,-3993,-36,96,55,1
122252,-5142,-6637,-4055,-37,97,55,1
122257,-5063,-6612,-4121,-37,97,55,1
122262,-4979,-6583,-4173,-38,97,55,1
122267,-4892,-6543,-4220,-39,97,55,1
122272,-4812,-6497,-4270,-40,95,55,1
122277,-4742,-6450,-4332,-40,94,55,1
122282,-4693,-6422,-4404,-41,93,55,1
122287,-4651,-6423,-4474,-42,92,55,1
122292,-4596,-6435,-4533,-42,93,54,1
122297,-4518,-6440,-4574,-43,93,54,1
122302,-4418,-6424,-4605,-44,92,54,1
122307,-4319,-6389,-4629,-44,90,53,1
122312,-4217,-6330,-4671,-45,88,52,1
122317,-4127,-6256,-4725,-45,83,52,1
122322,-4061,-6174,-4792,-45,79,51,1
122327,-4004,-6089,-4869,-46,76,50,1
122332,-3945,-6005,-4939,-46,73,50,1
122337,-3883,-5921,-4997,-46,72,49,1
122342,-3811,-5838,-5059,-46,71,48,1
122347,-3741,-5753,-5105,-46,70,47,1
122352,-3691,-5666,-5150,-46,70,46,1
122357,-3649,-5590,-5213,-46,70,45,1
122362,-3617,-5525,-5290,-46,72,45,1
122367,-3575,-5469,-5381,-46,75,44,1
122372,-3526,-5421,-5451,-46,79,43,1
122377,-3473,-5378,-5494,-46,82,42,1
122382,-3413,-5332,-5535,-46,83,41,1
122387,-3347,-5292,-5567,-46,84,40,1
122392,-3268,-5255,-5600,-46,84,39,1
122397,-3181,-5212,-5633,-46,83,37,1
122402,-3090,-5161,-5661,-46,82,36,1
122407,-2998,-5104,-5691,-47,81,35,1
122412,-2899,-5044,-5715,-47,79,33,1
122417,-2844,-4989,-5713,-47,77,32,1
122422,-2838,-4947,-5710,-47,74,31,1
122427,-2838,-4910,-5723,-47,73,30,1
122432,-2813,-4863,-5761,-47,74,29,1
122437,-2751,-4799,-5820,-47,74,28,1
122442,-2658,-4723,-5871,-48,72,27,1
122447,-2552,-4646,-5905,-48,69,25,1
122452,-2444,-4575,-5918,-48,64,24,1
122457,-2351,-4521,-5939,-48,60,23,1
122462,-2271,-4473,-5978,-47,58,22,1
122467,-2205,-4431,-6045,-47,56,21,1
122472,-2152,-4388,-6128,-47,54,20,1
122477,-2116,-4343,-6203,-47,53,19,1
122482,-2082,-4304,-6255,-47,53,19,1
122487,-2041,-4277,-6299,-47,54,18,1
122492,-1994,-4264,-6353,-46,55,17,1
122497,-1941,-4256,-6427,-46,57,16,1
122502,-1891,-4242,-6518,-45,59,15,1
122507,-1853,-4213,-6602,-45,61,14,1
122512,-1823,-4173,-6654,-45,62,13,1
122517,-1797,-4125,-6679,-44,61,13,1
122522,-1769,-4072,-6700,-44,61,12,1
122527,-1745,-4021,-6740,-43,59,11,1
122532,-1731,-3981,-6814,-42,58,10,1
122537,-1722,-3950,-6906,-42,57,9,1
122542,-1705,-3925,-6996,-41,58,8,1
122547,-1674,-3894,-7062,-41,60,8,1
122552,-1633,-3864,-7104,-41,61,7,1
122557,-1593,-3838,-7133,-40,61,6,1
122562,-1557,-3818,-7161,-40,61,6,1
122567,-1525,-3807,-7196,-39,61,5,1
122572,-1489,-3800,-7235,-39,62,5,1
122577,-1443,-3788,-7273,-39,63,4,1
122582,-1395,-3765,-7300,-39,64,4,1
122587,-1354,-3733,-7328,-38,64,3,1
122592,-1310,-3698,-7366,-38,63,3,1
122597,-1265,-3663,-7413,-38,62,2,1
122602,-1208,-3636,-7449,-37,59,2,1
122607,-1133,-3606,-7469,-37,56,2,1
122612,-1059,-3564,-7480,-37,51,1,1
122617,-998,-3510,-7491,-36,45,1,1
122622,-964,-3460,-7510,-36,38,1,1
122627,-953,-3422,-7536,-36,32,0,1
122632,-951,-3389,-7567,-36,26,0,1
122637,-941,-3362,-7587,-35,22,0,1
122642,-922,-3334,-7589,-35,19,0,1
122647,-888,-3299,-7584,-35,18,0,1
122652,-846,-3261,-7581,-35,17,0,1
122657,-807,-3222,-7600,-34,16,0,1
122662,-778,-3183,-7640,-34,15,0,1
122667,-764,-3146,-7687,-34,14,0,1
122672,-761,-3103,-7721,-33,14,0,1
122677,-763,-3057,-7753,-33,15,0,1
122682,-766,-3008,-7775,-32,16,0,1
122687,-761,-2961,-7805,-32,16,0,1
122692,-743,-2923,-7834,-31,16,0,1
122697,-714,-2890,-7866,-31,16,0,1
122702,-679,-2858,-7890,-30,16,0,1
122707,-653,-2811,-7914,-29,16,0,1
122712,-638,-2754,-7940,-28,15,0,1
122717,-639,-2702,-7969,-28,14,0,1
122722,-645,-2662,-7994,-27,13,0,1
122727,-648,-2620,-8027,-26,13,0,1
122732,-641,-2578,-8055,-25,14,1,1
122737,-626,-2530,-8084,-24,16,1,1
122742,-609,-2480,-8107,-24,17,1,1
122747,-596,-2431,-8130,-23,18,1,1
122752,-588,-2388,-8149,-22,18,1,1
122757,-593,-2348,-8174,-21,18,0,1
122762,-598,-2308,-8191,-20,18,0,1
122767,-605,-2265,-8199,-19,18,0,1
122772,-600,-2224,-8191,-19,18,0,1
122777,-587,-2187,-8165,-18,17,0,1
122782,-568,-2149,-8133,-17,17,0,1
122787,-551,-2114,-8112,-17,16,0,1
122792,-541,-2086,-8104,-16,14,0,1
122797,-536,-2063,-8100,-16,13,0,1
122802,-537,-2040,-8088,-16,12,0,1
122807,-530,-2022,-8065,-15,11,0,1
122812,-514,-2008,-8042,-15,10,0,1
122817,-494,-1993,-8022,-14,9,0,1
122822,-474,-1974,-8021,-14,8,0,1
122827,-458,-1953,-8034,-14,7,0,1
122832,-451,-1930,-8047,-14,6,0,1
122837,-456,-1916,-8054,-14,4,0,1
122842,-463,-1909,-8054,-13,4,0,1
122847,-471,-1904,-8046,-13,4,0,1
122852,-472,-1901,-8039,-13,4,1,1
122857,-467,-1901,-8031,-13,5,1,1
122862,-461,-1902,-8032,-13,4,1,1
122867,-453,-1900,-8039,-13,3,1,1
122872,-448,-1893,-8045,-13,2,2,1
122877,-451,-1886,-8050,-13,1,2,1
122882,-455,-1881,-8057,-13,0,2,1
122886,-459,-1872,-8069,-13,-1,2,1
122892,-464,-1864,-8095,-13,-2,2,1
122897,-471,-1860,-8130,-13,-3,3,1
122902,-482,-1856,-8162,-13,-4,3,1
122907,-496,-1847,-8180,-13,-4,3,1
122911,-511,-1840,-8188,-13,-5,4,1
122916,-523,-1827,-8195,-13,-5,4,1
122922,-533,-1818,-8211,-13,-5,4,1
122926,-545,-1805,-8231,-13,-6,4,1
122931,-555,-1801,-8254,-13,-7,5,1
122936,-568,-1802,-8266,-13,-8,5,1
122941,-584,-1798,-8278,-13,-8,5,1
122946,-597,-1784,-8298,-13,-8,6,1
122952,-609,-1766,-8324,-13,-8,6,1
122956,-623,-1752,-8358,-13,-9,6,1
122962,-628,-1743,-8383,-13,-9,7,1
122966,-629,-1739,-8401,-13,-9,7,1
122971,-625,-1737,-8418,-13,-8,8,1
122976,-625,-1733,-8434,-13,-7,8,1
122981,-632,-1719,-8456,-13,-6,8,1
122986,-645,-1703,-8480,-13,-4,9,1
122991,-662,-1679,-8504,-12,-3,9,1
122996,-676,-1656,-8533,-12,-2,10,1
123001,-683,-1625,-8555,-12,-1,10,1
123006,-686,-1588,-8574,-12,-1,10,1
123011,-688,-1554,-8587,-12,-1,11,1
123016,-682,-1529,-8592,-12,-1,11,1
123021,-674,-1510,-8592,-11,-2,12,1
123026,-665,-1490,-8585,-11,-2,12,1
123031,-664,-1468,-8575,-11,-2,12,1
123036,-664,-1441,-8566,-11,-1,13,1
123041,-670,-1411,-8558,-11,-1,13,1
123046,-678,-1381,-8554,-11,-1,14,1
123051,-683,-1350,-8556,-11,-1,14,1
123056,-679,-1315,-8554,-11,-1,14,1
123061,-676,-1269,-8553,-11,-2,15,1
123066,-682,-1220,-8561,-11,-3,15,1
123071,-695,-1180,-8572,-11,-4,15,1
123076,-706,-1151,-8589,-11,-5,16,1
123081,-712,-1130,-8595,-11,-4,16,1
123086,-706,-1103,-8596,-11,-3,16,1
123091,-694,-1074,-8592,-11,-3,17,1
123096,-684,-1049,-8595,-11,-2,17,1
123101,-683,-1037,-8599,-12,-2,17,1
123106,-687,-1037,-8604,-12,-1,18,1
123111,-686,-1037,-8610,-12,0,18,1
123116,-683,-1026,-8618,-12,1,19,1
123121,-678,-1010,-8627,-12,1,19,1
123126,-677,-998,-8640,-12,0,19,1
123131,-677,-994,-8657,-12,0,20,1
123136,-677,-995,-8679,-12,-1,20,1
123141,-683,-996,-8706,-12,-2,20,1
123146,-698,-997,-8731,-12,-2,21,1
123151,-723,-996,-8756,-12,-1,21,1
123156,-754,-997,-8773,-12,-1,21,1
123161,-779,-999,-8789,-11,0,22,1
123166,-795,-1003,-8798,-11,1,22,1
123171,-807,-1006,-8812,-11,2,22,1
123176,-814,-1008,-8828,-11,2,23,1
123181,-821,-1000,-8853,-11,3,23,1
123186,-838,-992,-8874,-11,3,23,1
123191,-854,-986,-8900,-11,4,23,1
123196,-869,-979,-8921,-11,5,24,1
123201,-875,-974,-8941,-11,6,24,1
123206,-877,-963,-8952,-11,7,24,1
123211,-878,-948,-8962,-11,8,25,1
123216,-881,-932,-8970,-11,9,25,1
123221,-892,-912,-8975,-11,10,25,1
123226,-913,-890,-8976,-11,10,25,1
123231,-942,-862,-8969,-11,11,25,1
123236,-978,-824,-8965,-11,10,25,1
123241,-1010,-784,-8961,-11,10,25,1
123246,-1027,-749,-8945,-11,10,25,1
123251,-1025,-717,-8915,-11,9,25,1
123256,-1021,-687,-8866,-11,9,25,1
123261,-1017,-658,-8810,-12,10,25,1
123266,-1024,-641,-8763,-12,9,25,1
123271,-1037,-636,-8727,-12,9,25,1
123276,-1045,-647,-8689,-13,9,25,1
123281,-1034,-662,-8647,-13,9,25,1
123286,-996,-668,-8603,-14,8,25,1
123291,-950,-663,-8553,-15,6,25,1
123296,-903,-661,-8512,-15,3,25,1
123301,-864,-673,-8480,-16,-1,25,1
123306,-842,-694,-8472,-16,-4,25,1
123311,-835,-720,-8481,-17,-6,25,1
123316,-839,-741,-8504,-17,-7,25,1
123321,-850,-750,-8524,-17,-8,25,1
123326,-867,-758,-8552,-18,-10,25,1
123331,-883,-771,-8589,-18,-12,25,1
123336,-900,-795,-8636,-18,-14,25,1
123341,-916,-818,-8695,-18,-16,25,1
123346,-935,-840,-8758,-18,-17,25,1
123351,-960,-860,-8827,-18,-17,25,1
123356,-988,-871,-8903,-18,-16,25,1
123361,-1017,-879,-8995,-17,-15,25,1
123366,-1044,-892,-9092,-17,-12,25,1
123371,-1061,-903,-9165,-17,-9,25,1
123376,-1071,-910,-9204,-17,-5,25,1
123381,-1069,-906,-9214,-16,-1,25,1
123386,-1063,-891,-9202,-16,2,25,1
123391,-1062,-869,-9185,-16,5,25,1
123396,-1060,-846,-9174,-16,7,24,1
123401,-1058,-823,-9149,-16,8,24,1
123406,-1054,-799,-9115,-16,9,24,1
123411,-1040,-776,-9057,-16,9,24,1
123416,-1021,-753,-8973,-16,9,24,1
123421,-990,-726,-8876,-16,9,23,1
123426,-951,-695,-8774,-16,9,23,1
123431,-910,-665,-8683,-16,7,23,1
123436,-875,-627,-8602,-16,4,23,1
123441,-847,-585,-8525,-16,0,22,1
123446,-830,-541,-8443,-16,-6,22,1
123451,-802,-494,-8360,-16,-11,22,1
123456,-757,-452,-8270,-16,-17,21,1
123461,-715,-419,-8186,-16,-24,21,1
123466,-691,-389,-8116,-15,-31,20,1
123471,-705,-361,-8067,-15,-37,20,1
123476,-746,-329,-8036,-15,-41,19,1
123481,-799,-289,-8024,-14,-43,19,1
123486,-847,-250,-8025,-14,-43,18,1
123491,-875,-214,-8032,-13,-43,18,1
123496,-883,-186,-8033,-12,-41,18,1
123501,-876,-161,-8029,-12,-39,17,1
123506,-878,-132,-8033,-11,-36,17,1
123511,-896,-100,-8052,-10,-34,16,1
123516,-934,-68,-8065,-9,-31,16,1
123521,-979,-41,-8058,-9,-29,16,1
123526,-1005,-10,-8016,-8,-27,15,1
123531,-1007,19,-7945,-7,-27,15,1
123536,-989,46,-7863,-7,-29,14,1
123541,-971,64,-7791,-6,-32,14,1
123546,-973,72,-7747,-5,-35,13,1
123551,-1009,88,-7704,-5,-37,12,1
123556,-1046,108,-7676,-4,-40,12,1
123561,-1084,142,-7641,-4,-44,11,1
123566,-1123,185,-7613,-3,-49,11,1
123571,-1175,233,-7601,-2,-53,10,1
123576,-1235,273,-7599,-1,-56,9,1
123581,-1298,301,-7609,-1,-58,9,1
123586,-1354,309,-7618,0,-58,8,1
123591,-1404,296,-7628,0,-57,8,1
123596,-1452,268,-7625,1,-53,7,1
123601,-1511,232,-7629,1,-48,7,1
123606,-1577,190,-7629,2,-41,7,1
123611,-1647,137,-7643,2,-35,6,1
123616,-1710,75,-7648,2,-31,6,1
123621,-1758,15,-7635,3,-27,6,1
123626,-1782,-40,-7600,3,-24,5,1
123631,-1796,-91,-7562,3,-22,5,1
123636,-1811,-134,-7533,3,-21,5,1
123641,-1840,-167,-7534,3,-22,4,1
123646,-1879,-185,-7567,3,-24,4,1
123651,-1931,-190,-7610,3,-28,4,1
123656,-1984,-184,-7660,3,-32,3,1
123660,-2030,-162,-7716,4,-36,3,1
123666,-2066,-128,-7767,4,-40,2,1
123671,-2096,-95,-7808,4,-45,2,1
123675,-2122,-74,-7831,4,-50,2,1
123681,-2152,-58,-7843,4,-54,1,1
123686,-2190,-52,-7854,4,-56,1,1
123690,-2238,-52,-7871,4,-56,1,1
123695,-2301,-54,-7892,4,-54,1,1
123701,-2375,-54,-7910,4,-51,1,1
123706,-2450,-52,-7919,3,-48,1,1
123710,-2510,-54,-7917,3,-43,1,1
123715,-2542,-59,-7915,3,-39,1,1
123720,-2552,-70,-7923,3,-36,1,1
123725,-2553,-89,-7931,2,-34,1,1
123730,-2563,-115,-7928,2,-32,1,1
123735,-2580,-141,-7918,1,-31,1,1
123740,-2600,-156,-7896,1,-32,1,1
123745,-2622,-166,-7868,0,-36,1,1
123750,-2641,-182,-7841,0,-40,1,1
123755,-2664,-219,-7823,-1,-45,1,1
123760,-2690,-273,-7808,-1,-50,2,1
123765,-2723,-341,-7795,-2,-53,2,1
123770,-2755,-415,-7787,-2,-54,2,1
123775,-2787,-491,-7782,-3,-55,2,1
123780,-2819,-555,-7784,-3,-55,2,1
123785,-2851,-612,-7807,-4,-55,2,1
123790,-2882,-655,-7837,-4,-55,3,1
123795,-2919,-684,-7879,-4,-55,3,1
123800,-2961,-703,-7907,-4,-56,3,1
123805,-3004,-719,-7923,-4,-57,3,1
123810,-3047,-737,-7929,-4,-58,3,1
123815,-3085,-750,-7928,-4,-59,3,1
123820,-3118,-738,-7924,-4,-62,3,1
123825,-3139,-707,-7919,-4,-66,4,1
123830,-3152,-666,-7907,-4,-72,4,1
123835,-3176,-629,-7891,-4,-80,4,1
123840,-3213,-604,-7869,-4,-85,4,1
123845,-3249,-587,-7842,-4,-90,4,1
123850,-3277,-580,-7809,-4,-94,4,1
123855,-3294,-569,-7765,-4,-99,4,1
123860,-3311,-557,-7703,-4,-105,4,1
123865,-3335,-546,-7633,-4,-111,5,1
123870,-3378,-530,-7551,-4,-117,5,1
123875,-3442,-513,-7458,-4,-122,5,1
123880,-3549,-517,-7365,-4,-127,5,1
123885,-3687,-519,-7259,-4,-128,5,1
123890,-3839,-501,-7156,-4,-126,5,1
123895,-4003,-467,-7043,-4,-119,5,1
123900,-4151,-415,-6937,-4,-107,5,1
123905,-4289,-349,-6834,-5,-93,5,1
123910,-4406,-289,-6715,-5,-81,4,1
123915,-4519,-260,-6560,-5,-73,4,1
123920,-4618,-268,-6365,-6,-67,4,1
123925,-4674,-308,-6171,-6,-60,4,1
123930,-4689,-361,-6020,-6,-54,3,1
123935,-4682,-390,-5936,-7,-50,3,1
123940,-4698,-340,-5908,-7,-49,2,1
123945,-4751,-210,-5925,-7,-48,2,1
123950,-4848,-36,-5956,-7,-43,1,1
123955,-4968,131,-5992,-6,-34,0,1
123960,-5087,264,-6036,-6,-21,0,1
123965,-5171,347,-6082,-5,-7,-1,1
123970,-5206,379,-6113,-5,6,-1,1
123975,-5207,410,-6130,-4,15,-2,1
123980,-5173,439,-6130,-4,24,-2,1
123985,-5110,462,-6126,-3,35,-3,1
123990,-5049,478,-6119,-2,45,-4,1
123995,-5014,496,-6102,-2,51,-4,1
124000,-5005,521,-6063,-1,52,-5,1
124005,-4992,547,-6022,0,49,-5,1
124010,-4957,566,-5986,0,46,-6,1
124015,-4901,570,-5963,1,44,-7,1
124020,-4854,560,-5967,2,43,-8,1
124025,-4829,535,-6005,3,43,-8,1
124030,-4832,513,-6065,4,44,-9,1
124035,-4849,502,-6127,5,47,-9,1
124040,-4858,509,-6192,6,50,-10,1
124045,-4846,525,-6258,7,51,-10,1
124050,-4823,535,-6312,8,51,-10,1
124055,-4799,520,-6349,9,51,-11,1
124060,-4788,477,-6369,9,52,-11,1
124065,-4793,416,-6370,10,56,-12,1
124070,-4808,358,-6376,11,59,-12,1
124075,-4829,313,-6381,11,62,-12,1
124080,-4834,280,-6381,11,64,-12,1
124085,-4816,252,-6388,12,66,-12,1
124090,-4785,219,-6411,12,67,-12,1
124095,-4742,180,-6443,12,68,-12,1
124100,-4696,139,-6480,12,69,-11,1
124105,-4642,110,-6508,12,68,-11,1
124110,-4576,94,-6517,12,66,-11,1
124115,-4510,75,-6517,12,63,-10,1
124120,-4455,44,-6522,12,60,-10,1
124125,-4419,5,-6550,12,56,-9,1
124130,-4400,-45,-6598,12,52,-9,1
124135,-4383,-97,-6649,11,47,-8,1
124140,-4369,-140,-6689,11,43,-7,1
124145,-4345,-173,-6712,10,40,-7,1
124150,-4315,-197,-6741,10,38,-6,1
124155,-4279,-212,-6791,10,35,-5,1
124160,-4249,-226,-6864,10,32,-5,1
124165,-4238,-244,-6956,9,28,-4,1
124170,-4257,-265,-7043,9,26,-4,1
124175,-4289,-276,-7107,9,26,-3,1
124180,-4314,-284,-7164,9,26,-3,1
124185,-4310,-288,-7224,8,26,-2,1
124190,-4277,-295,-7305,8,26,-2,1
124195,-4234,-305,-7388,8,25,-1,1
124200,-4204,-319,-7454,7,24,-1,1
124205,-4197,-340,-7498,7,22,0,1
124210,-4209,-362,-7528,7,20,0,1
124215,-4221,-384,-7557,6,18,0,1
124220,-4221,-411,-7601,6,16,1,1
124225,-4204,-440,-7661,5,15,1,1
124230,-4184,-467,-7717,5,14,1,1
124235,-4165,-478,-7745,4,12,1,1
124240,-4148,-465,-7742,3,12,1,1
124245,-4125,-436,-7730,3,11,2,1
124250,-4100,-392,-7736,2,9,2,1
124255,-4074,-354,-7783,2,6,2,1
124260,-4059,-341,-7853,1,4,2,1
124265,-4060,-353,-7922,0,2,2,1
124270,-4071,-368,-7968,-1,3,3,1
124275,-4081,-374,-7996,-1,5,3,1
124280,-4082,-365,-8017,-2,8,3,1
124285,-4074,-352,-8050,-2,10,3,1
124290,-4060,-346,-8092,-3,12,3,1
124295,-4048,-349,-8136,-3,13,3,1
124300,-4038,-355,-8182,-4,13,3,1
124305,-4030,-361,-8209,-4,13,3,1
124310,-4025,-356,-8219,-4,12,3,1
124315,-4017,-343,-8229,-5,12,3,1
124320,-4003,-323,-8252,-5,11,3,1
124325,-3977,-300,-8306,-5,9,3,1
124330,-3949,-280,-8374,-6,7,3,1
124335,-3916,-259,-8434,-6,6,3,1
124340,-3878,-232,-8467,-6,5,3,1
124345,-3843,-196,-8489,-6,3,3,1
124350,-3825,-166,-8507,-6,2,3,1
124355,-3823,-153,-8529,-6,1,3,1
124360,-3832,-154,-8553,-6,2,3,1
124365,-3855,-176,-8540,-7,1,3,1
124370,-3866,-171,-8519,-7,-3,3,1
124375,-3825,-159,-8486,-7,2,3,1
124380,-3727,-137,-8474,-7,7,3,1
124385,-3671,-103,-8482,-7,5,3,1
124390,-3665,-63,-8490,-8,0,3,1
124395,-3693,-17,-8462,-8,-3,3,1
124400,-3706,31,-8415,-8,-3,3,1
124405,-3698,76,-8366,-8,-3,2,1
124410,-3667,114,-8343,-8,-4,2,1
124415,-3621,156,-8345,-8,-6,2,1
124420,-3579,192,-8347,-8,-7,2,1
124425,-3551,220,-8325,-9,-9,2,1
124430,-3546,249,-8276,-9,-10,2,1
124435,-3549,279,-8204,-9,-12,2,1
124440,-3543,310,-8128,-9,-12,1,1
124445,-3530,329,-8075,-9,-13,1,1
124450,-3503,339,-8040,-9,-13,1,1
124455,-3473,348,-8019,-9,-14,1,1
124460,-3458,361,-8004,-9,-16,0,1
124465,-3467,375,-8007,-8,-18,0,1
124470,-3504,379,-8016,-8,-19,0,1
124475,-3549,359,-8023,-8,-18,-1,1
124480,-3580,332,-8030,-8,-14,-1,1
124484,-3595,318,-8029,-7,-10,-1,1
124489,-3591,308,-8041,-7,-6,-1,1
124495,-3581,293,-8064,-6,-4,-2,1
124500,-3585,265,-8093,-6,-2,-2,1
124505,-3613,236,-8116,-6,-1,-2,1
124509,-3655,212,-8127,-5,-1,-2,1
124514,-3701,196,-8142,-5,-2,-2,1
124519,-3744,179,-8180,-5,-2,-3,1
124524,-3776,161,-8246,-4,-2,-3,1
124529,-3801,137,-8347,-4,-2,-3,1
124535,-3850,123,-8473,-4,-1,-2,1
124539,-3923,125,-8613,-4,-1,-2,1
124544,-4015,144,-8756,-4,-2,-2,1
124549,-4140,176,-8898,-4,-5,-2,1
124554,-4293,210,-9030,-4,-8,-2,1
124559,-4471,247,-9157,-4,-10,-2,1
124564,-4663,283,-9288,-5,-10,-2,1
124569,-4857,318,-9437,-6,-7,-2,1
124574,-5014,346,-9592,-7,-1,-1,1
124579,-5134,375,-9720,-8,6,-1,1
124584,-5214,401,-9792,-9,13,0,1
124589,-5257,421,-9822,-11,18,1,1
124594,-5290,443,-9842,-13,18,2,1
124599,-5318,478,-9877,-14,17,3,1
124604,-5341,523,-9944,-16,15,4,1
124609,-5363,582,-10035,-18,10,5,1
124614,-5377,637,-10138,-20,5,6,1
124619,-5390,669,-10245,-22,-1,7,1
124624,-5421,668,-10333,-24,-5,8,1
124629,-5472,640,-10398,-26,-7,10,1
124634,-5520,605,-10434,-28,-7,11,1
124639,-5546,585,-10455,-30,-6,13,1
124644,-5545,577,-10473,-32,-8,14,1
124649,-5534,571,-10483,-34,-10,16,1
124654,-5526,556,-10466,-36,-13,17,1
124659,-5525,540,-10433,-38,-15,19,1
124664,-5526,523,-10389,-40,-17,20,1
124669,-5523,514,-10341,-42,-17,22,1
124674,-5508,507,-10281,-44,-17,23,1
124679,-5475,499,-10220,-46,-17,25,1
124684,-5427,491,-10146,-48,-18,26,1
124689,-5358,474,-10060,-49,-18,27,1
124694,-5274,451,-9964,-51,-18,29,1
124699,-5186,417,-9856,-52,-18,30,1
124704,-5095,381,-9737,-54,-17,31,1
124709,-4999,352,-9610,-55,-15,32,1
124714,-4890,339,-9476,-56,-13,33,1
124719,-4763,334,-9329,-57,-11,34,1
124724,-4610,339,-9170,-57,-10,35,1
124729,-4444,350,-9006,-58,-10,36,1
124734,-4278,357,-8836,-58,-10,37,1
124739,-4102,352,-8648,-58,-10,38,1
124744,-3918,332,-8434,-58,-6,38,1
124749,-3727,296,-8199,-58,-2,39,1
124754,-3535,242,-7952,-58,3,39,1
124759,-3356,162,-7716,-57,6,39,1
124764,-3203,92,-7478,-57,9,40,1
124769,-3063,55,-7230,-56,13,40,1
124774,-2911,46,-6966,-55,19,39,1
124779,-2740,64,-6671,-54,25,39,1
124784,-2528,124,-6366,-53,27,39,1
124789,-2347,222,-6080,-52,26,38,1
124794,-2173,324,-5808,-51,32,38,1
124799,-1914,389,-5473,-50,51,38,1
124804,-1700,409,-5210,-49,68,37,1
124809,-1546,395,-4894,-47,74,35,1
124814,-1334,384,-4519,-44,77,32,1
124819,-1039,395,-3945,-41,85,31,1
124824,-751,430,-3327,-43,96,34,1
124829,-981,533,-3743,-45,100,34,1
124834,-1181,589,-4037,-39,85,28,1
124839,-1286,650,-4072,-38,77,27,1
124844,-1381,808,-4058,-37,77,27,1
124849,-1276,1032,-3634,-35,80,25,1
124854,-1053,1240,-3289,-32,88,23,1
124859,-824,1401,-2956,-29,91,21,1
124864,-641,1436,-2875,-26,85,19,1
124869,-508,1407,-2813,-23,68,17,1
124874,-396,1392,-2693,-21,44,15,1
124879,-341,1428,-2503,-18,26,14,1
124884,-280,1488,-2289,-15,17,12,1
124889,-233,1537,-2120,-12,13,10,1
124894,-197,1553,-2011,-8,8,8,1
124899,-134,1536,-1947,-5,0,7,1
124904,-54,1500,-1869,-2,-9,6,1
124909,25,1471,-1782,1,-13,4,1
124914,104,1453,-1700,4,-16,3,1
124919,164,1445,-1633,7,-17,1,1
124924,181,1429,-1618,11,-18,0,1
124929,177,1406,-1629,14,-18,-2,1
124934,173,1353,-1638,18,-14,-3,1
124939,167,1280,-1627,21,-9,-4,1
124944,173,1192,-1632,24,-4,-6,1
124949,173,1116,-1631,28,-1,-7,1
124954,145,1045,-1621,31,0,-9,1
124959,87,985,-1627,35,-1,-11,1
124964,27,938,-1602,38,-1,-12,1
124969,-42,890,-1572,41,-1,-14,1
124974,-99,843,-1583,44,-2,-16,1
124979,-126,799,-1606,48,-5,-18,1
124984,-162,763,-1651,51,-9,-19,1
124989,-204,725,-1730,54,-14,-21,1
124994,-236,675,-1822,57,-18,-23,1
124999,-290,626,-1930,60,-18,-25,1
125004,-341,586,-2085,63,-16,-27,1
125009,-385,562,-2293,66,-12,-28,1
125014,-455,549,-2532,69,-10,-30,1
125019,-557,535,-2811,72,-7,-31,1
125024,-663,506,-3119,75,-3,-33,1
125029,-769,459,-3437,78,1,-34,1
125034,-882,396,-3775,81,2,-36,1
125039,-966,319,-4122,84,1,-37,1
125044,-984,245,-4533,87,-1,-39,1
125049,-883,176,-5123,90,-2,-39,1
125054,-894,72,-5768,95,-5,-40,1
125059,-1126,-42,-5911,95,-13,-44,1
125064,-1525,-177,-6226,94,-13,-45,1
125069,-2152,-275,-6722,94,-7,-45,1
125074,-2864,-321,-7337,97,0,-47,1
125079,-2975,-352,-7277,99,14,-48,1
125084,-2755,-387,-7314,99,37,-47,1
125089,-2324,-503,-7485,101,43,-47,1
125094,-1889,-706,-7750,101,35,-48,1
125099,-1735,-888,-8288,101,26,-48,1
125104,-1908,-1003,-8870,100,18,-48,1
125109,-2330,-1068,-9431,99,15,-48,1
125114,-2797,-1118,-9927,97,19,-47,1
125119,-3136,-1171,-10382,96,26,-46,1
125124,-3253,-1230,-10742,94,32,-44,1
125129,-3120,-1291,-11051,92,36,-43,1
125134,-2950,-1353,-11463,90,37,-42,1
125139,-2912,-1413,-11885,87,32,-41,1
125144,-3059,-1461,-12360,83,29,-40,1
125149,-3343,-1485,-12805,79,29,-38,1
125154,-3648,-1484,-13224,75,31,-36,1
125159,-3859,-1472,-13588,71,33,-34,1
125164,-3942,-1455,-13968,67,33,-32,1
125169,-3945,-1437,-14313,62,29,-30,1
125174,-3955,-1417,-14609,56,22,-28,1
125179,-4064,-1394,-14862,51,15,-27,1
125184,-4279,-1351,-15080,45,9,-25,1
125189,-4549,-1284,-15266,39,5,-23,1
125194,-4807,-1198,-15426,33,3,-21,1
125199,-4999,-1113,-15563,27,2,-19,1
125204,-5112,-1027,-15680,20,1,-18,1
125209,-5206,-952,-15781,14,-2,-16,1
125214,-5344,-884,-15867,8,-6,-14,1
125219,-5552,-839,-15941,1,-9,-12,1
125224,-5784,-814,-16004,-5,-9,-10,1
125229,-5970,-804,-16058,-11,-7,-8,1
125234,-6064,-809,-16105,-17,-5,-5,1
125239,-6076,-837,-16145,-23,-5,-2,1
125244,-6052,-884,-16179,-29,-6,1,1
125249,-6058,-949,-16208,-35,-8,4,1
125254,-6113,-1007,-16234,-41,-9,7,1
125259,-6213,-1037,-16255,-47,-8,10,1
125264,-6322,-1022,-16274,-52,-8,14,1
125269,-6408,-982,-16289,-58,-7,17,1
125274,-6449,-933,-16303,-63,-7,20,1
125278,-6453,-882,-16315,-68,-7,23,1
125284,-6444,-826,-16325,-73,-7,26,1
125289,-6441,-760,-16333,-78,-7,28,1
125294,-6451,-678,-16325,-83,-7,31,1
125299,-6465,-591,-16271,-87,-7,33,1
125304,-6458,-516,-16161,-91,-8,35,1
125308,-6402,-454,-15991,-94,-9,37,1
125314,-6292,-412,-15759,-98,-9,39,1
125319,-6143,-383,-15477,-101,-9,40,1
125323,-5984,-372,-15147,-104,-9,42,1
125329,-5853,-367,-14789,-106,-11,43,1
125333,-5753,-368,-14410,-109,-12,45,1
125339,-5649,-383,-14013,-111,-11,46,1
125344,-5506,-425,-13600,-112,-8,47,1
125348,-5318,-477,-13155,-114,-6,48,1
125353,-5104,-521,-12672,-115,-4,49,1
125359,-4887,-560,-12159,-116,-5,49,1
125363,-4685,-594,-11658,-117,-6,50,1
125368,-4505,-620,-11180,-117,-8,50,1
125373,-4318,-651,-10714,-117,-8,50,1
125378,-4110,-694,-10258,-117,-7,51,1
125383,-3867,-733,-9777,-117,-4,51,1
125388,-3582,-764,-9290,-117,-1,51,1
125393,-3280,-793,-8811,-116,2,51,1
125398,-2986,-824,-8359,-114,4,51,1
125403,-2716,-852,-7944,-113,7,51,1
125408,-2448,-871,-7522,-111,11,51,1
125413,-2149,-844,-7064,-110,16,51,1
125418,-1810,-801,-6575,-107,19,50,1
125423,-1399,-753,-5951,-104,24,50,1
125428,-951,-764,-5095,-101,28,49,1
125433,-458,-747,-4201,-104,31,50,1
125438,-422,-707,-4834,-101,28,47,1
125443,-438,-661,-4962,-94,18,44,1
125448,-619,-586,-5072,-93,17,43,1
125453,-861,-484,-4981,-91,18,43,1
125458,-905,-404,-4426,-89,22,42,1
125463,-704,-333,-3809,-85,28,41,1
125468,-277,-299,-3177,-81,29,39,1
125473,118,-292,-2847,-77,21,37,1
125478,363,-268,-2656,-73,7,34,1
125483,402,-204,-2503,-70,-3,32,1
125488,306,-100,-2338,-67,-5,31,1
125493,206,8,-2118,-63,-4,29,1
125498,193,90,-1874,-59,-2,28,1
125503,303,137,-1655,-55,-3,26,1
125508,503,163,-1452,-51,-5,25,1
125513,708,182,-1256,-47,-9,22,1
125518,815,203,-1090,-43,-11,21,1
125523,827,238,-943,-39,-11,19,1
125528,801,286,-839,-36,-8,17,1
125533,787,332,-790,-32,-5,16,1
125538,835,368,-741,-28,-2,15,1
125543,923,401,-697,-24,0,13,1
125548,1004,435,-655,-20,1,12,1
125553,1036,469,-602,-17,0,10,1
125558,1022,494,-516,-13,0,8,1
125563,977,516,-451,-9,-1,7,1
125568,975,537,-382,-5,-2,6,1
125573,1018,561,-324,-2,-2,4,1
125578,1091,579,-302,2,-4,3,1
125583,1157,599,-273,5,-6,2,1
125588,1183,627,-222,9,-8,1,1
125593,1158,654,-198,12,-8,-1,1
125598,1124,684,-174,15,-8,-2,1
125603,1114,716,-158,19,-7,-3,1
125608,1119,758,-179,22,-6,-4,1
125613,1139,808,-212,25,-6,-5,1
125618,1137,857,-234,29,-7,-6,1
125623,1088,906,-262,32,-6,-7,1
125628,1032,958,-289,35,-5,-8,1
125633,990,1002,-297,39,-4,-10,1
125638,955,1048,-338,42,-3,-11,1
125643,929,1100,-394,46,-2,-12,1
125648,900,1153,-437,49,-2,-14,1
125653,845,1202,-490,53,-3,-15,1
125658,776,1246,-562,56,-2,-17,1
125663,730,1285,-638,60,-1,-18,1
125668,710,1320,-737,64,1,-19,1
125673,710,1349,-860,67,2,-21,1
125678,713,1377,-977,71,3,-22,1
125683,677,1404,-1107,75,4,-24,1
125688,607,1425,-1268,79,6,-25,1
125693,521,1434,-1448,83,6,-27,1
125698,408,1441,-1656,87,6,-29,1
125703,281,1453,-1901,91,5,-30,1
125708,166,1460,-2154,96,4,-32,1
125713,55,1445,-2423,100,2,-35,1
125718,-55,1413,-2720,104,1,-37,1
125723,-152,1368,-3019,108,1,-39,1
125728,-279,1311,-3339,112,1,-41,1
125733,-470,1257,-3731,116,2,-43,1
125738,-704,1199,-4212,121,5,-45,1
125743,-944,1117,-4755,125,9,-47,1
125748,-1145,1008,-5308,128,13,-49,1
125753,-1231,883,-5989,132,15,-50,1
125758,-1381,738,-6873,138,16,-51,1
125763,-1764,573,-7620,142,12,-54,1
125768,-2073,338,-8007,144,6,-57,1
125773,-2300,87,-8781,140,13,-54,1
125778,-2627,-151,-9355,140,8,-51,1
125783,-2387,-371,-9103,143,10,-51,1
125788,-1890,-618,-9161,146,21,-51,1
125793,-1608,-974,-9637,147,13,-51,1
125798,-1502,-1337,-10220,146,3,-50,1
125803,-1657,-1602,-10943,144,16,-50,1
125808,-2011,-1790,-11596,141,27,-48,1
125813,-2439,-1898,-12152,137,39,-45,1
125818,-2749,-1935,-12542,133,54,-42,1
125823,-2893,-1909,-12881,129,64,-40,1
125828,-2920,-1842,-13285,124,67,-37,1
125833,-2954,-1748,-13728,119,63,-35,1
125838,-3069,-1614,-14107,112,57,-33,1
125843,-3306,-1464,-14432,105,52,-31,1
125848,-3555,-1334,-14711,98,49,-29,1
125853,-3727,-1233,-14950,90,47,-26,1
125858,-3784,-1174,-15155,82,42,-24,1
125863,-3737,-1149,-15331,74,33,-21,1
125868,-3662,-1148,-15481,66,22,-19,1
125873,-3655,-1160,-15610,57,10,-17,1
125878,-3756,-1171,-15721,48,2,-15,1
125883,-3928,-1156,-15815,40,-1,-12,1
125888,-4092,-1113,-15897,32,-1,-10,1
125893,-4199,-1050,-15966,24,-2,-7,1
125898,-4250,-989,-16026,16,-4,-5,1
125903,-4281,-933,-16077,9,-6,-3,1
125908,-4355,-870,-16121,2,-8,-1,1
125913,-4461,-801,-16159,-4,-7,1,1
125918,-4562,-745,-16191,-11,-5,3,1
125923,-4612,-704,-16219,-17,-4,5,1
125928,-4578,-677,-16242,-22,-5,7,1
125933,-4487,-661,-16263,-28,-6,8,1
125938,-4380,-650,-16280,-33,-8,10,1
125943,-4300,-646,-16295,-38,-10,12,1
125948,-4259,-645,-16308,-43,-12,14,1
125953,-4236,-648,-16319,-47,-13,16,1
125958,-4205,-655,-16328,-51,-14,17,1
125963,-4152,-654,-16336,-55,-15,19,1
125968,-4081,-643,-16286,-59,-15,21,1
125973,-3999,-616,-16182,-62,-14,22,1
125978,-3923,-577,-16047,-66,-11,24,1
125983,-3846,-531,-15905,-68,-9,25,1
125988,-3764,-479,-15748,-71,-7,26,1
125993,-3680,-429,-15557,-73,-7,27,1
125998,-3585,-391,-15320,-75,-8,28,1
126003,-3478,-361,-15029,-77,-8,28,1
126008,-3355,-335,-14695,-79,-8,29,1
126013,-3238,-317,-14360,-80,-8,29,1
126018,-3110,-301,-14025,-81,-8,29,1
126023,-2997,-288,-13703,-82,-7,29,1
126028,-2898,-290,-13372,-83,-6,29,1
126033,-2796,-302,-13021,-83,-3,29,1
126038,-2669,-314,-12646,-84,-1,29,1
126043,-2537,-317,-12269,-84,1,29,1
126048,-2403,-318,-11900,-83,1,29,1
126053,-2267,-328,-11565,-83,1,29,1
126058,-2142,-342,-11245,-83,0,29,1
126062,-2036,-353,-10920,-82,-1,28,1
126068,-1925,-368,-10573,-82,0,28,1
126073,-1813,-393,-10222,-81,2,28,1
126078,-1686,-431,-9875,-80,4,28,1
126082,-1544,-472,-9537,-79,5,27,1
126088,-1403,-507,-9218,-78,7,27,1
126093,-1269,-526,-8911,-77,7,27,1
126097,-1124,-529,-8619,-76,9,26,1
126102,-1020,-516,-8356,-75,11,26,1
126108,-935,-490,-8117,-74,10,25,1
126112,-876,-457,-7886,-73,9,25,1
126118,-828,-423,-7676,-71,9,24,1
126122,-763,-383,-7476,-70,8,24,1
126127,-690,-335,-7272,-69,7,23,1
126132,-617,-283,-7079,-67,6,22,1
126137,-551,-231,-6890,-66,6,21,1
126142,-489,-178,-6704,-64,6,21,1
126147,-431,-121,-6526,-63,6,20,1
126153,-376,-60,-6353,-62,5,19,1
126157,-315,0,-6185,-60,5,18,1
126162,-252,58,-6029,-59,3,17,1
126167,-200,121,-5881,-57,1,16,1
126172,-152,187,-5738,-56,-3,15,1
126177,-148,250,-5655,-54,-6,14,1
126182,-183,306,-5600,-53,-9,14,1
126187,-217,374,-5544,-52,-10,13,1
126192,-217,453,-5482,-50,-9,13,1
126197,-175,529,-5411,-49,-7,12,1
126202,-122,592,-5340,-47,-6,11,1
126207,-76,642,-5276,-45,-5,10,1
126212,-59,695,-5222,-43,-3,10,1
126217,-64,748,-5178,-42,-1,9,1
126222,-73,802,-5137,-40,2,9,1
126227,-70,856,-5101,-38,5,8,1
126232,-44,907,-5069,-36,7,7,1
126237,1,956,-5045,-34,8,7,1
126242,34,1000,-5026,-33,7,6,1
126247,34,1045,-5010,-31,5,6,1
126252,9,1090,-4999,-30,2,5,1
126257,-21,1136,-4977,-28,1,5,1
126262,-29,1181,-4945,-26,0,4,1
126267,-7,1227,-4908,-25,0,4,1
126272,32,1276,-4883,-23,0,3,1
126277,64,1320,-4872,-22,-1,3,1
126282,69,1364,-4878,-21,-1,2,1
126287,57,1401,-4890,-19,-1,2,1
126292,41,1434,-4896,-18,0,2,1
126297,34,1465,-4886,-17,2,1,1
126302,39,1506,-4870,-15,3,1,1
126307,49,1556,-4861,-14,3,1,1
126312,52,1606,-4863,-13,3,0,1
126317,47,1653,-4867,-12,3,0,1
126322,34,1696,-4863,-10,2,0,1
126327,17,1738,-4845,-9,2,-1,1
126332,0,1775,-4808,-8,2,-1,1
126337,-11,1809,-4764,-7,2,-1,1
126342,-12,1839,-4728,-6,2,-2,1
126347,-11,1866,-4690,-5,2,-2,1
126352,-11,1890,-4646,-4,0,-2,1
126357,-24,1911,-4595,-3,-2,-2,1
126362,-48,1931,-4541,-2,-4,-3,1
126367,-80,1951,-4488,-1,-5,-3,1
126372,-112,1972,-4444,0,-5,-3,1
126377,-132,1992,-4416,1,-5,-4,1
126382,-146,2015,-4398,2,-6,-4,1
126387,-165,2037,-4379,3,-6,-4,1
126392,-194,2060,-4359,4,-7,-5,1
126397,-239,2081,-4346,5,-7,-5,1
126402,-294,2103,-4332,7,-7,-5,1
126407,-340,2113,-4315,8,-7,-6,1
126412,-366,2108,-4296,9,-6,-6,1
126417,-378,2100,-4271,10,-6,-6,1
126422,-380,2096,-4247,12,-6,-7,1
126427,-400,2092,-4223,13,-6,-7,1
126432,-444,2083,-4208,14,-6,-7,1
126437,-500,2067,-4186,16,-6,-8,1
126442,-560,2044,-4161,17,-5,-8,1
126447,-594,2020,-4132,18,-5,-8,1
126452,-596,1994,-4101,20,-4,-9,1
126457,-578,1970,-4074,21,-3,-9,1
126462,-535,1953,-4057,23,-3,-9,1
126467,-485,1936,-4022,25,-2,-9,1
126472,-470,1912,-3938,28,-1,-9,1
126477,-468,1882,-3845,30,0,-9,1
126482,-466,1843,-3705,33,0,-10,1
126487,-518,1780,-3658,34,-1,-10,1
126492,-551,1731,-3715,33,-5,-11,1
126497,-573,1700,-3772,34,-6,-11,1
126502,-614,1678,-3798,36,-6,-11,1
126507,-635,1637,-3778,38,-9,-12,1
126512,-644,1578,-3752,40,-11,-12,1
126517,-636,1514,-3714,42,-12,-12,1
126522,-629,1435,-3633,44,-12,-13,1
126527,-626,1358,-3652,45,-11,-13,1
126532,-587,1277,-3871,49,-9,-14,1
126537,-545,1191,-4054,52,-10,-14,1
126542,-528,1108,-4298,54,-13,-15,1
126547,-549,1024,-4377,56,-14,-15,1
126552,-575,933,-4386,58,-15,-16,1
126557,-584,830,-4329,61,-15,-17,1
126562,-570,715,-4343,64,-15,-17,1
126567,-609,600,-4498,67,-15,-18,1
126572,-678,496,-4737,70,-18,-19,1
126577,-754,411,-5010,72,-21,-19,1
126582,-801,334,-5258,75,-22,-20,1
126587,-811,250,-5478,78,-22,-21,1
126592,-829,161,-5723,81,-21,-22,1
126597,-824,87,-6031,84,-19,-23,1
126602,-795,24,-6449,88,-17,-24,1
126607,-786,-31,-7005,91,-15,-25,1
126612,-779,-63,-7675,95,-15,-26,1
126617,-913,-141,-7710,98,-16,-27,1
126622,-1243,-229,-7791,94,-19,-29,1
126627,-1700,-285,-8209,94,-17,-29,1
126632,-2076,-328,-8151,97,-12,-28,1
126637,-2010,-340,-8215,101,-5,-29,1
126642,-1640,-376,-8463,105,-2,-30,1
126647,-1247,-463,-9038,106,-10,-31,1
126652,-1104,-557,-9767,107,-23,-32,1
126657,-1319,-602,-10421,106,-28,-33,1
126662,-1777,-618,-10934,105,-23,-33,1
126667,-2276,-655,-11301,104,-8,-33,1
126672,-2679,-700,-11670,103,9,-31,1
126677,-2803,-729,-11796,103,25,-30,1
126682,-2784,-713,-12191,101,38,-30,1
126687,-2766,-704,-12609,99,40,-29,1
126692,-2896,-679,-13148,95,40,-28,1
126697,-3164,-648,-13527,91,41,-27,1
126702,-3480,-599,-13867,87,43,-25,1
126707,-3703,-566,-14038,83,45,-24,1
126712,-3763,-538,-14256,78,43,-22,1
126717,-3691,-526,-14498,73,37,-20,1
126722,-3562,-514,-14768,67,29,-19,1
126727,-3501,-498,-14999,61,20,-17,1
126732,-3571,-471,-15196,55,15,-15,1
126737,-3720,-463,-15366,49,14,-13,1
126742,-3847,-476,-15512,42,15,-11,1
126747,-3897,-484,-15636,36,17,-8,1
126752,-3865,-472,-15743,29,17,-6,1
126757,-3802,-452,-15835,23,15,-4,1
126762,-3781,-444,-15913,16,12,-2,1
126767,-3820,-457,-15980,10,9,0,1
126772,-3887,-481,-16038,3,7,2,1
126777,-3946,-510,-16088,-3,5,4,1
126782,-3959,-536,-16130,-10,2,6,1
126787,-3925,-554,-16166,-16,-1,8,1
126792,-3874,-569,-16198,-22,-4,10,1
126797,-3836,-582,-16224,-28,-8,11,1
126802,-3826,-593,-16247,-33,-12,13,1
126807,-3852,-601,-16248,-38,-17,14,1
126812,-3883,-599,-16205,-44,-20,16,1
126817,-3877,-592,-16121,-48,-21,17,1
126822,-3830,-588,-16011,-53,-23,18,1
126827,-3757,-598,-15876,-57,-25,19,1
126832,-3679,-616,-15724,-61,-26,20,1
126837,-3633,-627,-15554,-64,-27,21,1
126841,-3613,-627,-15362,-68,-27,22,1
126847,-3593,-629,-15150,-71,-25,23,1
126851,-3534,-640,-14921,-73,-23,24,1
126857,-3434,-652,-14668,-76,-22,24,1
126861,-3306,-666,-14385,-78,-22,25,1
126866,-3183,-682,-14083,-80,-22,25,1
126871,-3088,-692,-13787,-81,-22,25,1
126876,-3014,-696,-13495,-82,-22,26,1
126881,-2950,-698,-13216,-83,-21,26,1
126886,-2881,-701,-12944,-84,-20,27,1
126891,-2789,-709,-12659,-85,-17,27,1
126896,-2686,-709,-12358,-86,-14,27,1
126902,-2582,-699,-12041,-86,-12,27,1
126906,-2480,-686,-11724,-86,-10,27,1
126911,-2379,-669,-11408,-86,-8,27,1
126917,-2292,-646,-11111,-85,-7,27,1
126922,-2215,-614,-10822,-85,-5,27,1
126926,-2130,-575,-10544,-84,-3,27,1
126931,-2035,-530,-10272,-83,-1,27,1
126936,-1930,-483,-9990,-82,1,27,1
126941,-1819,-434,-9697,-81,2,27,1
126946,-1713,-386,-9402,-80,2,26,1
126951,-1626,-336,-9116,-79,3,26,1
126956,-1547,-285,-8847,-78,4,26,1
126961,-1475,-228,-8603,-77,7,25,1
126966,-1399,-164,-8381,-75,9,25,1
126971,-1315,-92,-8176,-74,11,25,1
126976,-1241,-19,-7978,-73,12,24,1
126981,-1178,51,-7775,-71,13,23,1
126986,-1122,111,-7571,-70,13,23,1
126991,-1069,166,-7366,-68,13,22,1
126996,-1013,225,-7166,-67,13,21,1
127001,-950,284,-6976,-65,12,21,1
127006,-883,343,-6792,-64,10,20,1
127011,-825,396,-6610,-62,7,19,1
127016,-768,447,-6424,-61,5,18,1
127021,-718,498,-6247,-59,3,18,1
127026,-685,544,-6085,-58,2,17,1
127031,-652,584,-5937,-56,2,16,1
127036,-621,618,-5807,-55,2,16,1
127041,-587,657,-5683,-53,2,15,1
127046,-550,701,-5554,-52,2,15,1
127051,-506,750,-5424,-50,3,14,1
127056,-469,804,-5298,-49,4,13,1
127061,-434,856,-5182,-47,4,12,1
127066,-394,902,-5072,-45,4,12,1
127071,-386,942,-4984,-44,4,11,1
127076,-415,978,-4911,-42,2,11,1
127081,-443,1024,-4822,-41,2,10,1
127086,-445,1070,-4733,-40,2,10,1
127091,-410,1107,-4632,-38,2,9,1
127096,-357,1132,-4528,-37,1,9,1
127101,-303,1155,-4419,-35,0,8,1
127106,-261,1179,-4301,-34,-1,7,1
127111,-231,1201,-4178,-32,-1,7,1
127116,-185,1222,-4042,-31,-1,6,1
127121,-114,1251,-3903,-29,0,6,1
127126,-64,1288,-3776,-27,-1,5,1
127131,-33,1327,-3647,-25,-2,4,1
127136,-49,1364,-3511,-23,-2,4,1
127141,-39,1377,-3429,-21,-2,3,1
127146,-33,1376,-3474,-21,-3,4,1
127151,-29,1389,-3505,-21,-5,4,1
127156,-9,1421,-3500,-20,-4,3,1
127161,-29,1449,-3416,-18,-3,3,1
127166,-214,1465,-3526,-15,-6,1,1
127171,-370,1475,-3660,-12,-9,0,1
127176,-488,1495,-3728,-10,-8,0,1
127181,-482,1531,-3744,-8,-7,-1,1
127186,-384,1559,-3609,-6,-6,-1,1
127191,-271,1564,-3464,-4,-8,-2,1
127196,-206,1555,-3333,-2,-11,-3,1
127201,-223,1546,-3288,1,-14,-4,1
127206,-267,1547,-3305,3,-15,-4,1
127211,-315,1561,-3333,5,-13,-4,1
127216,-317,1572,-3345,7,-11,-5,1
127221,-286,1581,-3341,9,-9,-5,1
127226,-242,1587,-3311,12,-8,-6,1
127231,-225,1593,-3276,14,-7,-7,1
127236,-235,1601,-3254,17,-7,-7,1
127241,-275,1612,-3254,19,-7,-8,1
127246,-330,1623,-3266,21,-7,-8,1
127251,-368,1633,-3284,24,-7,-9,1
127256,-377,1644,-3289,26,-7,-9,1
127261,-377,1652,-3276,29,-6,-10,1
127266,-385,1657,-3262,31,-6,-11,1
127271,-406,1656,-3256,34,-5,-11,1
127276,-443,1647,-3264,36,-4,-12,1
127281,-477,1629,-3282,39,-2,-13,1
127286,-490,1598,-3301,41,0,-13,1
127291,-487,1566,-3317,43,-1,-14,1
127296,-493,1532,-3340,46,-3,-15,1
127301,-517,1493,-3370,48,-5,-16,1
127306,-553,1446,-3407,51,-7,-16,1
127311,-580,1391,-3459,53,-9,-17,1
127316,-589,1341,-3534,56,-9,-18,1
127321,-593,1298,-3635,59,-10,-18,1
127326,-617,1251,-3757,61,-10,-19,1
127331,-664,1186,-3901,64,-10,-20,1
127336,-722,1104,-4037,66,-10,-21,1
127341,-771,1025,-4157,69,-10,-22,1
127346,-793,950,-4267,71,-9,-22,1
127351,-800,880,-4402,74,-8,-23,1
127356,-809,806,-4576,77,-7,-24,1
127361,-837,730,-4793,79,-7,-25,1
127366,-884,649,-5061,82,-8,-26,1
127371,-955,572,-5378,85,-8,-26,1
127376,-1024,502,-5685,88,-8,-27,1
127381,-1102,439,-5911,90,-8,-28,1
127386,-1190,379,-6098,92,-8,-29,1
127391,-1323,315,-6368,94,-9,-30,1
127396,-1581,243,-6858,97,-14,-31,1
127401,-1714,138,-7126,100,-19,-34,1
127406,-1659,18,-7464,99,-14,-32,1
127411,-1757,-65,-8288,98,-12,-30,1
127416,-1774,-121,-8437,99,-14,-31,1
127421,-1629,-146,-8290,102,1,-33,1
127426,-1504,-209,-8345,106,18,-33,1
127431,-1515,-354,-8690,108,23,-34,1
127436,-1709,-512,-9353,109,30,-33,1
127441,-2012,-606,-10088,109,44,-33,1
127446,-2349,-612,-10744,108,57,-33,1
127451,-2648,-574,-11244,108,69,-32,1
127456,-2865,-540,-11641,107,81,-31,1
127461,-3002,-524,-12087,107,91,-29,1
127466,-2976,-548,-12253,107,98,-28,1
127471,-2903,-588,-12674,105,102,-27,1
127476,-2843,-681,-13079,103,100,-25,1
127481,-2843,-773,-13551,100,97,-23,1
127486,-2874,-871,-13955,96,95,-21,1
127491,-2894,-956,-14302,92,94,-18,1
127496,-2893,-1051,-14600,88,93,-16,1
127501,-2824,-1153,-14854,83,92,-13,1
127506,-2711,-1262,-15073,77,90,-11,1
127511,-2580,-1338,-15260,71,86,-9,1
127516,-2488,-1385,-15421,64,81,-6,1
127521,-2445,-1408,-15558,57,75,-4,1
127526,-2427,-1421,-15676,50,70,-2,1
127531,-2391,-1424,-15777,42,67,0,1
127536,-2313,-1413,-15864,35,64,2,1
127541,-2188,-1391,-15938,27,60,4,1
127546,-2044,-1361,-16002,19,55,5,1
127551,-1911,-1318,-16057,11,47,6,1
127556,-1823,-1265,-16104,3,40,7,1
127561,-1777,-1204,-16144,-4,32,7,1
127566,-1737,-1146,-16178,-12,27,8,1
127571,-1674,-1091,-16197,-19,22,9,1
127576,-1576,-1033,-16155,-26,16,9,1
127581,-1449,-970,-16071,-32,9,9,1
127586,-1327,-909,-15956,-39,1,9,1
127591,-1240,-861,-15830,-44,-8,9,1
127596,-1192,-830,-15683,-50,-16,9,1
127601,-1155,-806,-15513,-55,-21,9,1
127606,-1118,-788,-15326,-60,-25,9,1
127610,-1052,-781,-15129,-64,-27,9,1
127616,-983,-787,-14926,-68,-29,9,1
127621,-903,-799,-14696,-71,-32,9,1
127625,-837,-809,-14445,-74,-35,9,1
127631,-779,-818,-14167,-76,-37,9,1
127635,-729,-827,-13884,-78,-40,9,1
127641,-669,-837,-13597,-80,-41,9,1
127645,-599,-844,-13320,-81,-43,9,1
127650,-520,-832,-13036,-82,-44,9,1
127656,-451,-806,-12746,-83,-46,10,1
127660,-401,-779,-12439,-83,-49,10,1
127665,-394,-751,-12126,-84,-54,10,1
127671,-382,-704,-11791,-83,-56,10,1
127675,-359,-638,-11456,-83,-60,10,1
127680,-366,-572,-11135,-82,-65,11,1
127685,-367,-485,-10829,-82,-68,11,1
127690,-352,-385,-10537,-80,-73,11,1
127695,-334,-294,-10255,-79,-80,12,1
127700,-341,-216,-9989,-78,-85,12,1
127705,-366,-155,-9744,-76,-86,13,1
127710,-387,-126,-9519,-74,-85,13,1
127715,-413,-135,-9324,-72,-84,14,1
127720,-474,-144,-9145,-70,-80,15,1
127725,-567,-154,-8957,-68,-69,15,1
127730,-654,-177,-8768,-66,-54,16,1
127735,-762,-254,-8635,-64,-38,16,1
127740,-844,-282,-8472,-61,-14,17,1
127745,-840,-192,-8341,-59,5,16,1
127750,-813,-87,-8150,-57,30,17,1
127755,-825,61,-7942,-55,49,16,1
127760,-844,214,-7672,-52,54,14,1
127765,-929,289,-7447,-50,68,13,1
127770,-973,245,-7231,-48,73,12,1
127775,-1011,229,-7031,-45,68,10,1
127780,-1001,334,-6845,-43,64,9,1
127785,-924,546,-6654,-41,61,7,1
127790,-826,777,-6467,-40,53,6,1
127795,-735,951,-6259,-39,42,5,1
127800,-671,1030,-6028,-37,30,4,1
127805,-599,1037,-5780,-35,19,3,1
127810,-499,1028,-5568,-34,8,2,1
127815,-391,1028,-5395,-32,-4,1,1
127820,-286,1023,-5248,-30,-15,0,1
127825,-206,995,-5100,-29,-24,0,1
127830,-155,940,-4947,-28,-28,0,1
127835,-118,876,-4809,-26,-27,0,1
127840,-78,830,-4691,-25,-25,0,1
127845,-54,803,-4582,-24,-23,0,1
127850,-34,783,-4454,-23,-22,0,1
127855,-24,759,-4313,-22,-21,1,1
127860,-43,722,-4172,-20,-20,1,1
127865,-80,684,-4056,-19,-14,1,1
127870,-115,653,-3980,-18,-2,1,1
127875,-137,611,-3924,-17,14,1,1
127880,-153,542,-3857,-16,30,2,1
127885,-154,427,-3783,-15,50,2,1
127890,-204,343,-3718,-14,71,2,1
127895,-252,323,-3560,-14,105,3,1
127900,-333,315,-3395,-14,148,3,1
127905,-493,281,-3184,-13,197,3,1
127910,-674,244,-3169,-13,255,4,1
127915,-906,320,-3342,-10,320,4,1
127920,-748,462,-3224,-7,365,3,1
127925,-402,634,-3267,-7,381,4,1
127930,-133,777,-3421,-8,367,4,1
127935,-165,788,-3449,-6,346,2,1
127940,-201,753,-3262,-4,354,2,1
127945,-197,716,-3137,-2,353,2,1
127950,-121,688,-3040,0,335,1,1
127955,114,691,-3024,3,298,0,1
127960,349,723,-3016,4,252,-1,1
127965,455,787,-3119,7,209,-2,1
127970,659,862,-3377,10,170,-3,1
127975,902,902,-3691,14,133,-3,1
127980,1217,908,-3956,17,92,-2,1
127985,1493,901,-4188,19,56,-2,1
127990,1695,889,-4249,22,32,-2,1
127995,1795,864,-4345,26,18,-2,1
128000,1800,815,-4480,30,12,-1,1
128005,1816,737,-4692,33,9,0,1
128010,1840,634,-4884,36,9,1,1
128015,1892,526,-5045,38,13,2,1
128020,1951,422,-5100,41,22,3,1
128025,2043,325,-5124,44,33,4,1
128030,2161,231,-5185,48,46,6,1
128035,2298,142,-5259,51,55,8,1
128040,2480,71,-5351,53,58,10,1
128045,2643,10,-5396,56,60,12,1
128050,2740,-44,-5378,58,63,14,1
128055,2780,-103,-5332,61,71,16,1
128060,2765,-181,-5261,63,84,18,1
128065,2749,-283,-5182,64,96,21,1
128070,2758,-403,-5092,65,104,23,1
128075,2771,-542,-4938,66,107,26,1
128080,2815,-708,-4561,65,105,29,1
128085,2869,-870,-4537,63,100,32,1
128090,2890,-1011,-4595,62,90,34,1
128095,2915,-1123,-4476,63,81,36,1
128100,2970,-1195,-4226,66,88,36,1
128105,3177,-1193,-4062,67,105,39,1
128110,3408,-1128,-4199,67,115,42,1
128115,3736,-1028,-4416,67,105,44,1
128120,4004,-922,-4736,66,90,47,1
128125,4196,-845,-5017,66,82,49,1
128130,4339,-816,-5297,66,86,51,1
128135,4515,-825,-5572,67,95,53,1
128140,4756,-838,-5850,67,100,56,1
128145,5010,-826,-6126,67,97,58,1
128150,5285,-773,-6396,67,93,60,1
128155,5589,-691,-6723,67,93,62,1
128160,5909,-618,-7129,67,95,63,1
128165,6254,-577,-7602,67,101,65,1
128170,6634,-570,-8079,67,109,67,1
128175,7018,-587,-8519,67,117,68,1
128180,7390,-613,-8922,66,120,69,1
128185,7787,-643,-9299,65,118,70,1
128190,8281,-692,-9692,64,114,71,1
128195,8724,-776,-9950,62,108,72,1
128200,9225,-901,-10200,60,101,72,1
128205,9775,-1080,-10414,58,97,72,1
128210,10337,-1295,-10649,55,93,72,1
128215,10892,-1529,-10861,52,94,70,1
128220,11360,-1758,-11023,47,97,69,1
128225,11752,-1959,-11148,43,102,67,1
128230,12072,-2119,-11249,38,106,65,1
128235,12382,-2248,-11352,33,110,62,1
128240,12680,-2341,-11432,28,113,58,1
128245,12982,-2393,-11466,22,113,53,1
128250,13228,-2393,-11434,16,111,48,1
128255,13414,-2349,-11360,11,104,42,1
128260,13546,-2271,-11271,6,95,36,1
128265,13641,-2160,-11188,0,84,29,1
128270,13699,-2031,-11114,-5,72,22,1
128275,13729,-1886,-11031,-10,62,15,1
128280,13722,-1723,-10918,-14,52,7,1
128285,13683,-1560,-10782,-19,44,0,1
128290,13635,-1419,-10639,-23,38,-7,1
128295,13593,-1300,-10498,-26,31,-15,1
128300,13547,-1195,-10356,-30,24,-22,1
128305,13471,-1083,-10209,-33,16,-29,1
128310,13362,-969,-10064,-36,9,-35,1
128315,13242,-874,-9926,-38,2,-42,1
128320,13113,-823,-9784,-41,-6,-48,1
128325,12970,-805,-9618,-43,-14,-53,1
128330,12820,-812,-9410,-45,-20,-58,1
128335,12664,-828,-9175,-47,-26,-63,1
128340,12507,-865,-8924,-48,-32,-67,1
128345,12346,-919,-8696,-50,-37,-71,1
128350,12178,-993,-8495,-51,-43,-74,1
128355,11996,-1086,-8312,-53,-47,-77,1
128360,11798,-1188,-8116,-54,-50,-80,1
128365,11592,-1283,-7903,-55,-52,-82,1
128370,11383,-1367,-7678,-56,-52,-83,1
128375,11173,-1447,-7458,-57,-52,-84,1
128380,10967,-1520,-7248,-58,-51,-85,1
128385,10769,-1577,-7058,-58,-49,-86,1
128390,10572,-1614,-6884,-59,-47,-86,1
128395,10371,-1635,-6713,-59,-45,-85,1
128399,10162,-1636,-6543,-59,-44,-85,1
128404,9942,-1615,-6370,-59,-43,-84,1
128409,9718,-1572,-6187,-59,-42,-84,1
128415,9503,-1514,-6008,-58,-41,-83,1
128419,9291,-1446,-5835,-58,-39,-81,1
128424,9073,-1368,-5683,-57,-38,-80,1
128429,8850,-1280,-5535,-56,-38,-79,1
128434,8613,-1182,-5393,-56,-39,-78,1
128439,8365,-1075,-5259,-55,-41,-76,1
128444,8112,-971,-5142,-54,-41,-75,1
128449,7865,-874,-5023,-53,-38,-73,1
128454,7643,-776,-4885,-53,-34,-72,1
128459,7444,-674,-4737,-52,-31,-70,1
128464,7257,-565,-4589,-51,-29,-69,1
128469,7067,-453,-4458,-50,-30,-67,1
128474,6868,-343,-4357,-49,-30,-65,1
128479,6666,-245,-4279,-49,-31,-64,1
128484,6467,-153,-4212,-48,-30,-62,1
128489,6273,-66,-4140,-47,-29,-60,1
128494,6090,19,-4073,-46,-28,-58,1
128499,5924,90,-4018,-45,-26,-57,1
128504,5766,143,-3968,-44,-24,-55,1
128509,5618,177,-3925,-43,-20,-53,1
128514,5452,174,-3842,-42,-14,-51,1
128519,5260,153,-3701,-42,1,-50,1
128524,5113,281,-3617,-40,12,-48,1
128529,4869,474,-3589,-39,11,-47,1
128534,4453,604,-3600,-37,19,-46,1
128539,4164,694,-3545,-35,40,-46,1
128544,4075,805,-3450,-34,48,-44,1
128549,4127,947,-3346,-33,35,-43,1
128554,4171,1083,-3291,-32,17,-42,1
128559,4120,1186,-3284,-31,5,-41,1
128564,4022,1255,-3295,-29,4,-41,1
128569,3895,1300,-3305,-28,6,-40,1
128574,3762,1337,-3330,-27,5,-38,1
128579,3637,1370,-3331,-26,-3,-37,1
128584,3548,1379,-3257,-25,-13,-36,1
128589,3515,1372,-3120,-25,-21,-35,1
128594,3496,1320,-3014,-24,-31,-34,1
128599,3440,1190,-2950,-24,-44,-32,1
128604,3328,1031,-2911,-24,-53,-31,1
128609,3215,908,-2874,-24,-57,-30,1
128614,3121,862,-2811,-24,-60,-29,1
128619,3042,875,-2740,-24,-67,-28,1
128624,2952,908,-2680,-23,-72,-26,1
128629,2808,950,-2668,-23,-73,-25,1
128634,2653,975,-2703,-22,-60,-23,1
128639,2549,980,-2741,-21,-36,-22,1
128644,2459,903,-2762,-21,-12,-20,1
128649,2417,853,-2731,-21,14,-19,1
128654,2408,839,-2695,-20,33,-17,1
128659,2349,850,-2623,-20,50,-16,1
128664,2053,833,-2711,-18,78,-15,1
128669,1765,680,-2713,-16,138,-13,1
128674,1521,633,-2508,-14,214,-10,1
128679,1437,715,-2299,-14,272,-7,1
128684,1701,721,-2291,-15,302,-7,1
128689,1967,848,-2220,-15,322,-6,1
128694,2191,1113,-2003,-15,317,-6,1
128699,2304,1453,-1744,-14,297,-6,1
128704,2345,1794,-1536,-12,270,-5,1
128709,2469,2053,-1512,-10,244,-4,1
128714,2672,2187,-1627,-9,221,-3,1
128719,2976,2204,-1799,-8,204,-1,1
128724,3239,2144,-1931,-7,195,0,1
128729,3463,2051,-2011,-6,189,2,1
128734,3679,1954,-2108,-4,178,4,1
128739,3908,1887,-2295,-2,159,6,1
128744,4144,1884,-2470,0,133,8,1
128749,4440,1940,-2608,2,105,11,1
128754,4728,2020,-2673,3,85,14,1
128759,4901,2094,-2669,5,72,18,1
128764,5084,2158,-2576,7,64,20,1
128769,5246,2215,-2493,8,61,23,1
128774,5331,2245,-2412,10,61,26,1
128779,5355,2253,-2343,11,58,30,1
128784,5323,2238,-2246,12,55,33,1
128789,5236,2219,-2109,13,57,37,1
128794,5134,2205,-1956,14,64,40,1
128799,5051,2194,-1826,15,72,43,1
128804,4998,2184,-1731,15,76,46,1
128809,4963,2178,-1632,15,75,49,1
128814,4942,2167,-1516,15,69,52,1
128819,4908,2158,-1383,16,61,54,1
128824,4852,2148,-1264,16,53,57,1
128829,4788,2129,-1179,16,46,59,1
128834,4700,2091,-1148,17,40,61,1
128839,4633,2032,-1141,17,36,63,1
128844,4574,1939,-1119,16,33,65,1
128849,4546,1811,-1071,16,33,67,1
128854,4533,1659,-993,16,37,69,1
128859,4544,1503,-908,16,41,71,1
128864,4584,1357,-825,15,43,72,1
128869,4664,1221,-754,15,42,74,1
128874,4787,1087,-694,14,39,76,1
128879,4953,962,-667,13,37,77,1
128884,5195,861,-716,13,38,79,1
128889,5589,787,-855,13,40,82,1
128894,5800,689,-901,13,42,86,1
128899,5729,586,-846,12,29,85,1
128904,6138,479,-987,11,31,83,1
128909,5986,376,-897,11,43,86,1
128914,5780,263,-930,11,41,89,1
128919,5777,132,-922,10,56,93,1
128924,6151,-16,-922,9,70,95,1
128929,6756,-144,-832,7,77,96,1
128934,7311,-207,-708,6,77,96,1
128939,7714,-220,-587,5,77,97,1
128944,8012,-222,-428,4,79,98,1
128949,8405,-257,-241,2,84,99,1
128954,8709,-328,-307,0,88,100,1
128959,9060,-416,-288,1,86,99,1
128964,9508,-507,-204,0,90,98,1
128969,10027,-581,-314,-1,90,98,1
128974,10438,-621,-479,-3,81,98,1
128979,10908,-662,-551,-5,74,97,1
128984,11445,-718,-424,-6,75,95,1
128989,12011,-741,-160,-6,74,92,1
128994,12495,-717,102,-7,73,89,1
128999,12939,-675,279,-7,75,86,1
129004,13377,-649,325,-7,82,83,1
129009,13806,-648,308,-8,91,79,1
129014,14174,-645,301,-9,102,75,1
129019,14490,-618,369,-10,108,69,1
129024,14760,-572,515,-10,108,64,1
129029,14992,-525,699,-10,101,58,1
129034,15190,-496,870,-9,88,51,1
129039,15361,-492,1002,-8,71,44,1
129044,15507,-522,1113,-8,55,37,1
129049,15632,-576,1239,-7,43,29,1
129054,15739,-611,1409,-7,36,21,1
129059,15831,-630,1611,-6,31,13,1
129064,15910,-630,1794,-5,24,6,1
129069,15977,-617,1921,-3,18,-2,1
129074,16035,-573,1999,-2,14,-10,1
129079,16085,-493,2048,-1,10,-18,1
129084,16128,-395,2082,0,5,-26,1
129089,16164,-302,2135,2,1,-33,1
129094,16195,-213,2195,3,-3,-40,1
129099,16222,-117,2251,4,-6,-47,1
129104,16189,-21,2285,6,-8,-53,1
129109,16125,73,2285,7,-10,-59,1
129114,16044,172,2250,9,-12,-65,1
129119,15945,264,2195,10,-15,-70,1
129124,15803,338,2134,11,-19,-75,1
129129,15598,399,2071,12,-23,-79,1
129134,15341,450,2018,13,-27,-82,1
129139,15063,478,1977,14,-31,-86,1
129144,14770,474,1936,14,-35,-88,1
129148,14487,439,1887,15,-40,-90,1
129154,14208,394,1815,15,-44,-92,1
129158,13918,357,1740,15,-48,-94,1
129164,13616,321,1679,15,-50,-95,1
129168,13312,276,1643,14,-51,-95,1
129173,12994,229,1625,14,-50,-95,1
129179,12667,180,1598,13,-49,-95,1
129184,12340,134,1561,12,-47,-94,1
129188,12016,99,1512,11,-44,-94,1
129194,11698,64,1469,10,-39,-92,1
129199,11397,32,1442,9,-33,-91,1
129203,11094,13,1428,8,-25,-90,1
129209,10786,16,1410,7,-17,-88,1
129213,10467,31,1386,6,-8,-86,1
129218,10142,51,1345,5,1,-84,1
129224,9826,77,1289,5,10,-82,1
129228,9525,99,1226,4,17,-80,1
129234,9239,125,1146,3,21,-78,1
129239,8966,144,1060,3,23,-76,1
129243,8685,179,972,3,21,-74,1
129248,8383,232,882,2,19,-72,1
129253,8077,281,800,2,19,-71,1
129258,7793,319,736,2,18,-69,1
129263,7592,323,719,2,10,-67,1
129268,7444,334,722,1,-4,-65,1
129273,7308,373,735,1,-19,-63,1
129278,7150,444,750,0,-30,-62,1
129283,6837,479,812,0,-38,-60,1
129288,6510,520,858,-1,-37,-59,1
129293,6272,627,882,-2,-39,-57,1
129298,6087,814,735,-3,-45,-54,1
129303,5932,957,420,-2,-49,-52,1
129308,5744,1030,162,-2,-53,-51,1
129313,5507,1042,-40,-3,-57,-50,1
129318,5197,1041,-30,-4,-60,-48,1
129323,4863,1054,-27,-4,-58,-47,1
129328,4562,1083,-45,-4,-52,-45,1
129333,4272,1118,-139,-4,-44,-44,1
129338,3996,1153,-272,-4,-34,-43,1
129343,3744,1181,-358,-5,-23,-41,1
129348,3523,1198,-407,-6,-11,-40,1
129353,3286,1221,-392,-6,6,-38,1
129358,3038,1237,-374,-6,34,-36,1
129363,2788,1244,-407,-6,75,-34,1
129368,2611,1219,-405,-7,120,-31,1
129373,2510,1173,-426,-7,149,-29,1
129378,2483,1107,-420,-7,162,-28,1
129383,2461,1030,-390,-7,168,-27,1
129388,2394,944,-311,-7,173,-25,1
129393,2408,892,-142,-6,183,-26,1
129398,2428,874,-15,-6,196,-25,1
129403,2344,900,73,-5,207,-24,1
129408,2208,966,87,-5,210,-24,1
129413,2056,1045,125,-6,207,-23,1
129418,1941,1106,203,-6,203,-22,1
129423,1942,1144,270,-5,197,-21,1
129428,2011,1156,297,-4,186,-21,1
129433,2129,1143,217,-4,167,-20,1
129438,2290,1128,70,-3,147,-19,1
129443,2527,1134,-96,-2,128,-18,1
129448,2853,1172,-241,-2,112,-16,1
129453,3186,1239,-327,-1,101,-14,1
129458,3449,1324,-345,-1,95,-11,1
129463,3615,1398,-280,0,92,-9,1
129468,3672,1455,-128,0,90,-7,1
129473,3612,1491,64,-1,87,-4,1
129478,3448,1506,283,-1,86,-2,1
129483,3280,1490,552,-2,86,-1,1
129488,3739,1460,715,-3,82,3,1
129493,4219,1403,1013,-4,84,9,1
129498,4599,1340,1278,-6,71,11,1
129503,4774,1294,1617,-7,47,11,1
129508,4596,1290,1927,-9,21,13,1
129513,4308,1312,2127,-10,-3,16,1
129518,4042,1326,2283,-12,-18,19,1
129523,3969,1323,2362,-14,-25,22,1
129528,4021,1300,2429,-16,-23,24,1
129533,4081,1271,2452,-17,-20,26,1
129538,4099,1239,2472,-19,-18,28,1
129543,4022,1205,2466,-20,-18,30,1
129548,3931,1165,2436,-22,-18,33,1
129553,3907,1128,2378,-23,-18,36,1
129558,3979,1094,2311,-24,-16,38,1
129563,4089,1070,2247,-25,-16,41,1
129568,4174,1051,2180,-26,-17,43,1
129573,4189,1037,2147,-27,-18,45,1
129578,4126,1021,2131,-28,-17,48,1
129583,4075,1036,2109,-29,-14,50,1
129588,4088,1070,2103,-30,-10,53,1
129593,4103,1060,2089,-31,-5,55,1
129598,4093,1010,2065,-32,6,57,1
129603,4073,952,2066,-33,19,59,1
129608,4013,934,2115,-35,31,61,1
129613,3953,964,2205,-37,37,63,1
129618,3959,1033,2311,-38,40,65,1
129623,4039,1133,2404,-39,44,67,1
129628,4200,1236,2461,-41,44,68,1
129633,4432,1310,2546,-42,41,70,1
129638,4633,1356,2575,-44,34,71,1
129643,4711,1363,2542,-44,22,73,1
129648,4831,1335,2578,-45,12,74,1
129653,4961,1296,2596,-46,7,75,1
129658,5130,1242,2691,-46,6,77,1
129663,5333,1163,2812,-47,9,79,1
129668,5548,1060,3009,-48,18,81,1
129673,5831,948,3211,-49,27,81,1
129678,6163,856,3370,-50,34,82,1
129683,6289,816,3455,-51,38,85,1
129688,6310,801,3556,-52,44,88,1
129693,6356,760,3712,-53,51,89,1
129698,6539,662,3961,-54,52,89,1
129703,6796,537,4282,-54,48,88,1
129708,7060,428,4597,-54,40,87,1
129713,7367,354,4877,-54,34,86,1
129718,7736,285,5134,-54,33,86,1
129723,8096,205,5372,-54,36,85,1
129728,8429,122,5635,-54,39,83,1
129733,8852,29,5976,-53,45,82,1
129738,9338,-68,6359,-52,46,80,1
129743,9920,-146,6765,-51,42,77,1
129748,10501,-225,7121,-49,34,75,1
129753,11018,-326,7438,-47,26,71,1
129758,11427,-445,7722,-45,21,68,1
129763,11745,-565,8017,-43,21,64,1
129768,12046,-673,8357,-40,25,60,1
129773,12376,-766,8723,-38,30,56,1
129778,12748,-832,9082,-35,34,51,1
129783,13130,-881,9389,-31,37,45,1
129788,13465,-919,9630,-28,40,40,1
129793,13726,-946,9811,-24,43,34,1
129798,13919,-958,9978,-20,47,27,1
129803,14096,-950,10161,-16,48,21,1
129808,14310,-922,10359,-12,45,15,1
129813,14570,-871,10538,-7,36,8,1
129818,14815,-818,10655,-2,24,1,1
129823,14973,-767,10692,3,12,-6,1
129828,15027,-703,10672,8,3,-13,1
129833,15008,-629,10648,13,-5,-19,1
129838,14964,-535,10639,18,-13,-26,1
129843,14934,-427,10623,23,-22,-32,1
129848,14920,-316,10567,27,-29,-38,1
129853,14883,-206,10447,32,-36,-45,1
129858,14790,-106,10278,36,-42,-50,1
129863,14641,-19,10096,40,-47,-56,1
129868,14454,58,9932,44,-52,-61,1
129873,14253,131,9776,47,-58,-66,1
129878,14055,196,9620,50,-63,-70,1
129883,13860,251,9422,52,-69,-75,1
129888,13651,295,9178,55,-75,-78,1
129893,13424,325,8913,56,-81,-82,1
129898,13169,335,8659,58,-86,-85,1
129903,12896,331,8429,58,-92,-87,1
129908,12616,326,8220,59,-98,-90,1
129913,12349,321,8010,59,-104,-92,1
129918,12100,319,7779,59,-110,-93,1
129923,11868,312,7529,58,-115,-94,1
129928,11627,295,7281,57,-120,-95,1
129933,11366,274,7042,55,-124,-96,1
129938,11080,256,6821,54,-127,-96,1
129943,10772,252,6613,52,-130,-96,1
129948,10463,260,6394,50,-132,-96,1
129953,10160,288,6149,47,-136,-96,1
129958,9888,326,5909,45,-142,-96,1
129963,9612,332,5672,42,-151,-95,1
129968,9316,343,5435,39,-161,-95,1
129973,9000,392,5199,37,-167,-95,1
129978,8679,539,4940,34,-173,-94,1
129983,8412,701,4691,31,-182,-93,1
129988,8198,843,4465,27,-200,-93,1
129993,8027,953,4267,24,-224,-92,1
129998,7903,1005,4087,20,-251,-91,1
130003,7794,1053,3906,17,-280,-90,1
130008,7672,1081,3735,13,-312,-89,1
130013,7591,1129,3544,9,-342,-87,1
130017,7452,1179,3349,4,-368,-85,1
130023,7267,1232,3119,0,-390,-84,1
130027,7062,1215,2880,-4,-407,-81,1
130032,6794,1119,2605,-8,-418,-79,1
130037,6498,917,2283,-12,-422,-75,1
130042,6118,611,1887,-15,-412,-72,1
130047,5662,242,1403,-18,-389,-69,1
130053,5076,-149,861,-20,-350,-66,1
130058,4366,-489,258,-22,-293,-63,1
130063,3617,-698,-341,-23,-220,-60,1
130067,2871,-742,-879,-23,-138,-58,1
130072,2202,-629,-1289,-23,-56,-56,1
130077,1635,-407,-1545,-22,23,-55,1
130082,1219,-141,-1657,-21,96,-54,1
130087,1020,129,-1675,-20,159,-53,1
130092,1098,382,-1619,-18,203,-52,1
130097,1337,589,-1490,-16,217,-52,1
130102,1674,747,-1327,-14,210,-51,1
130107,2077,858,-1147,-12,193,-50,1
130112,2534,916,-954,-11,170,-49,1
130117,3064,946,-749,-10,133,-47,1
130122,3670,979,-643,-9,86,-45,1
130127,4023,1039,-584,-8,39,-41,1
130132,4282,1123,-603,-8,-9,-38,1
130137,4371,1206,-639,-8,-46,-37,1
130142,4319,1274,-646,-8,-68,-36,1
130147,4188,1330,-634,-7,-69,-36,1
130152,3913,1356,-688,-5,-52,-35,1
130157,3545,1351,-826,-5,-28,-33,1
130162,3133,1324,-949,-5,-5,-31,1
130167,2795,1283,-990,-5,16,-29,1
130172,2594,1233,-920,-4,36,-27,1
130177,2493,1188,-782,-4,52,-26,1
130182,2480,1165,-689,-3,60,-25,1
130187,2507,1182,-662,-2,58,-23,1
130192,2497,1240,-662,-1,49,-22,1
130197,2385,1325,-617,-1,37,-20,1
130202,2217,1433,-541,0,28,-19,1
130207,2160,1542,-495,1,22,-18,1
130212,2196,1620,-535,2,16,-15,1
130217,2605,1656,-603,3,6,-12,1
130222,2960,1679,-636,3,-3,-9,1
130227,3152,1706,-582,4,-19,-7,1
130232,3137,1758,-468,4,-30,-5,1
130237,2936,1827,-348,5,-31,-2,1
130242,2730,1892,-291,6,-28,1,1
130247,2587,1934,-299,6,-20,5,1
130252,2537,1952,-300,6,-14,8,1
130257,2523,1951,-225,6,-10,10,1
130262,2500,1938,-93,6,-11,13,1
130267,2458,1923,42,6,-15,15,1
130272,2406,1923,99,7,-22,18,1
130277,2431,1922,13,7,-32,21,1
130282,2500,1919,-138,7,-45,24,1
130287,2397,1920,-163,7,-53,27,1
130292,2376,1944,-225,7,-43,30,1
130297,2375,2003,-204,8,-40,33,1
130302,2346,2084,-247,9,-36,37,1
130307,2324,2144,-286,10,-28,40,1
130312,2339,2175,-342,10,-18,44,1
130317,2408,2187,-384,10,-11,48,1
130322,2549,2208,-444,11,-11,52,1
130327,2729,2257,-581,12,-18,55,1
130332,2867,2330,-761,14,-28,59,1
130337,2931,2403,-965,15,-36,63,1
130342,2950,2463,-1117,17,-37,66,1
130347,2993,2499,-1186,18,-32,70,1
130352,3103,2500,-1184,20,-25,74,1
130357,3294,2477,-1167,21,-20,79,1
130362,3518,2438,-1178,23,-20,82,1
130367,3711,2394,-1213,24,-23,86,1
130372,3868,2344,-1224,26,-24,90,1
130377,4016,2294,-1188,27,-18,94,1
130382,4201,2253,-1168,28,-7,98,1
130387,4487,2204,-1221,30,3,103,1
130392,4881,2152,-1379,31,6,107,1
130397,5318,2094,-1612,33,1,111,1
130402,5724,2017,-1852,35,-6,114,1
130407,6109,1911,-2025,36,-8,117,1
130412,6722,1774,-2073,38,1,122,1
130417,7669,1634,-2249,39,17,129,1
130422,8283,1448,-2587,43,21,133,1
130427,8273,1151,-2179,44,1,127,1
130432,7851,888,-1847,41,13,120,1
130437,6856,627,-1586,39,45,122,1
130442,6098,343,-1379,38,79,125,1
130447,5541,-24,-1284,35,95,131,1
130452,6502,-441,-1171,32,109,131,1
130457,7913,-800,-1200,30,111,129,1
130462,9122,-922,-1256,28,92,124,1
130467,9839,-840,-1498,27,69,119,1
130472,10012,-743,-1709,25,52,116,1
130477,9914,-786,-1864,24,47,115,1
130482,10147,-955,-1799,22,45,112,1
130487,10746,-1127,-1677,20,43,109,1
130492,11551,-1178,-1571,19,38,104,1
130497,12241,-1105,-1611,19,30,98,1
130502,12833,-988,-1803,18,21,91,1
130507,13149,-906,-2043,16,17,86,1
130512,13396,-865,-2248,15,20,81,1
130517,13763,-831,-2362,14,27,76,1
130522,14137,-767,-2381,13,32,71,1
130527,14457,-660,-2369,12,32,65,1
130532,14732,-526,-2404,10,27,58,1
130537,14968,-420,-2478,9,19,51,1
130542,15170,-377,-2590,8,13,45,1
130547,15343,-385,-2671,6,11,39,1
130552,15492,-414,-2677,5,13,33,1
130557,15619,-438,-2620,3,16,26,1
130562,15728,-438,-2561,2,16,20,1
130567,15822,-423,-2546,0,10,13,1
130572,15902,-403,-2602,-1,2,6,1
130577,15971,-377,-2697,-2,-5,-1,1
130582,16029,-346,-2769,-4,-8,-8,1
130587,16080,-302,-2775,-5,-8,-14,1
130592,16123,-244,-2718,-6,-7,-20,1
130597,16160,-180,-2648,-7,-7,-26,1
130602,16192,-110,-2613,-8,-10,-32,1
130607,16219,-47,-2631,-9,-14,-38,1
130612,16243,12,-2666,-10,-17,-44,1
130617,16263,60,-2677,-11,-17,-49,1
130622,16280,108,-2638,-12,-16,-54,1
130627,16284,162,-2555,-12,-15,-59,1
130632,16250,215,-2461,-13,-14,-63,1
130637,16144,257,-2399,-14,-14,-67,1
130642,15970,277,-2375,-14,-15,-71,1
130647,15736,282,-2381,-15,-15,-75,1
130652,15468,280,-2394,-16,-14,-78,1
130657,15197,271,-2376,-16,-12,-80,1
130662,14928,253,-2329,-17,-11,-83,1
130667,14634,235,-2265,-17,-11,-85,1
130672,14315,224,-2203,-17,-13,-87,1
130677,13964,213,-2142,-17,-13,-88,1
130682,13584,196,-2083,-18,-12,-90,1
130687,13198,165,-2015,-18,-9,-91,1
130692,12818,131,-1923,-18,-5,-91,1
130697,12443,105,-1831,-19,-1,-92,1
130702,12070,89,-1741,-19,1,-92,1
130707,11701,88,-1654,-19,2,-92,1
130712,11336,105,-1585,-19,3,-92,1
130717,10985,135,-1528,-19,4,-91,1
130722,10635,163,-1473,-19,5,-91,1
130727,10272,179,-1412,-19,5,-90,1
130732,9899,190,-1348,-18,5,-90,1
130737,9518,206,-1283,-18,5,-89,1
130742,9136,236,-1204,-18,5,-88,1
130746,8783,281,-1133,-18,6,-86,1
130751,8471,329,-1066,-18,8,-85,1
130756,8190,371,-1013,-18,8,-84,1
130761,7914,412,-977,-17,9,-82,1
130766,7637,452,-940,-17,9,-81,1
130771,7369,494,-910,-17,10,-79,1
130776,7111,535,-882,-16,12,-77,1
130781,6872,571,-854,-16,12,-75,1
130787,6623,583,-807,-15,12,-73,1
130791,6378,625,-781,-15,12,-72,1
130796,6162,674,-775,-14,13,-70,1
130801,5922,720,-745,-14,13,-68,1
130806,5659,752,-696,-14,13,-66,1
130811,5390,774,-614,-14,14,-64,1
130816,5148,785,-542,-13,14,-62,1
130821,4926,789,-506,-12,11,-61,1
130826,4738,797,-539,-12,6,-59,1
130831,4565,810,-600,-11,2,-57,1
130836,4388,836,-655,-11,1,-55,1
130841,4206,875,-683,-11,2,-52,1
130846,4011,917,-672,-10,4,-50,1
130851,3815,952,-628,-10,4,-47,1
130856,3631,980,-569,-9,4,-45,1
130861,3453,1009,-524,-9,4,-43,1
130866,3201,1040,-487,-9,5,-42,1
130871,2919,1078,-381,-8,5,-42,1
130876,2816,1125,-366,-7,9,-42,1
130881,3023,1146,-364,-6,16,-39,1
130886,3404,1157,-385,-6,17,-34,1
130891,3618,1169,-394,-6,8,-32,1
130896,3610,1201,-333,-5,-1,-31,1
130901,3379,1258,-298,-4,-2,-29,1
130906,3059,1310,-294,-4,-2,-26,1
130911,2829,1325,-348,-3,-2,-23,1
130916,2759,1310,-397,-3,-2,-20,1
130921,2771,1289,-401,-2,-4,-18,1
130926,2763,1285,-356,-2,-9,-17,1
130931,2703,1295,-289,-1,-13,-15,1
130936,2599,1309,-235,-1,-15,-12,1
130941,2500,1312,-213,0,-15,-10,1
130946,2447,1305,-214,0,-14,-7,1
130951,2423,1296,-211,0,-11,-4,1
130956,2410,1292,-191,1,-8,-2,1
130961,2405,1303,-143,1,-5,1,1
130966,2406,1327,-96,1,-3,4,1
130971,2415,1356,-73,2,-1,6,1
130976,2442,1381,-81,2,0,9,1
130981,2469,1403,-115,2,0,12,1
130986,2488,1428,-151,3,0,15,1
130991,2503,1454,-174,3,-1,18,1
130996,2516,1481,-183,4,-3,21,1
131001,2528,1504,-195,5,-6,25,1
131006,2555,1526,-216,5,-9,28,1
131011,2590,1548,-248,6,-12,31,1
131016,2613,1570,-283,7,-14,34,1
131021,2634,1593,-299,7,-14,37,1
131026,2665,1620,-294,8,-11,40,1
131031,2698,1643,-286,9,-9,43,1
131036,2749,1655,-285,9,-7,47,1
131041,2806,1659,-300,10,-5,50,1
131046,2858,1655,-338,11,-4,53,1
131051,2910,1646,-381,11,-3,56,1
131056,2979,1636,-421,12,-3,59,1
131061,3074,1621,-448,13,-2,62,1
131066,3195,1604,-472,14,-1,66,1
131071,3336,1587,-502,14,-1,69,1
131076,3475,1563,-544,15,-1,72,1
131081,3611,1530,-597,16,-1,75,1
131086,3759,1485,-656,17,-2,78,1
131091,3929,1434,-726,18,-3,81,1
131096,4138,1383,-790,19,-4,85,1
131101,4401,1331,-839,20,-4,88,1
131106,4695,1275,-870,21,-5,91,1
131111,4995,1205,-881,21,-6,94,1
131116,5366,1122,-850,22,-7,97,1
131121,5793,1041,-798,23,-4,101,1
131126,6207,980,-797,24,-3,104,1
131131,6756,945,-897,25,-1,107,1
131136,7190,926,-1139,26,7,111,1
131141,7476,879,-1310,28,10,111,1
131146,7899,775,-1139,29,21,108,1
131151,7489,680,-993,26,35,108,1
131156,6902,572,-909,25,41,110,1
131161,6853,407,-794,24,61,113,1
131166,6996,171,-757,23,74,116,1
131171,7793,-77,-645,21,70,116,1
131176,8706,-263,-629,20,68,114,1
131181,9602,-368,-604,20,54,112,1
131186,10098,-404,-658,19,41,110,1
131191,10368,-434,-704,18,28,108,1
131196,10597,-505,-712,17,26,107,1
131201,11025,-610,-644,16,29,105,1
131206,11641,-694,-573,15,34,102,1
131211,12319,-732,-518,14,37,99,1
131216,12899,-732,-507,13,39,95,1
131221,13319,-725,-546,12,37,90,1
131226,13620,-732,-602,11,38,86,1
131231,13924,-759,-644,10,41,82,1
131236,14275,-787,-638,9,44,77,1
131241,14576,-791,-601,8,48,72,1
131246,14834,-763,-559,8,50,66,1
131251,15055,-715,-548,7,49,60,1
131256,15245,-673,-575,7,46,54,1
131261,15407,-648,-622,6,42,48,1
131266,15547,-631,-652,6,37,42,1
131271,15666,-607,-653,5,34,35,1
131276,15768,-558,-593,5,31,29,1
131281,15856,-480,-517,5,25,23,1
131286,15931,-399,-431,5,18,16,1
131291,15996,-323,-393,5,12,10,1
131296,16051,-267,-402,5,7,4,1
131301,16099,-222,-419,5,3,-1,1
131306,16139,-176,-399,5,1,-6,1
131311,16174,-116,-352,5,-1,-11,1
131316,16204,-39,-282,6,-6,-16,1
131321,16229,26,-246,6,-10,-21,1
131326,16251,72,-259,6,-13,-26,1
131331,16188,95,-300,6,-14,-30,1
131336,16058,116,-322,5,-12,-34,1
131341,15841,136,-283,5,-8,-37,1
131346,15594,147,-200,4,-4,-40,1
131351,15482,135,-128,4,2,-43,1
131356,15369,119,-66,4,2,-46,1
131361,15257,93,-82,3,1,-49,1
131366,15027,52,-140,3,3,-52,1
131371,14709,10,-242,2,9,-54,1
131376,14350,-14,-295,2,16,-56,1
131381,14028,-21,-279,1,20,-57,1
131386,13725,-41,-207,1,22,-59,1
131391,13449,-75,-149,1,23,-60,1
131396,13184,-103,-120,0,25,-62,1
131401,12873,-116,-147,0,27,-63,1
131406,12509,-126,-190,0,29,-64,1
131411,12136,-139,-246,-1,32,-65,1
131416,11765,-160,-260,-1,35,-66,1
131421,11411,-179,-237,-2,38,-66,1
131426,11101,-200,-177,-2,40,-67,1
131431,10774,-216,-129,-2,45,-67,1
131436,10403,-210,-100,-3,54,-67,1
131441,10017,-191,-76,-3,72,-67,1
131446,9682,-167,-63,-3,88,-67,1
131451,9359,-149,-32,-3,98,-66,1
131456,9091,-129,10,-3,103,-66,1
131461,8791,-112,45,-3,106,-66,1
131466,8462,-82,80,-2,112,-65,1
131471,8096,-51,91,-2,124,-65,1
131476,7714,-25,128,-1,142,-63,1
131481,7239,10,213,-1,175,-62,1
131486,6875,91,389,-1,230,-59,1
131491,6642,168,607,0,272,-58,1
131496,6495,222,871,1,285,-57,1
131501,6481,295,1132,2,272,-55,1
131506,6532,421,1393,3,232,-53,1
131511,6570,580,1511,4,181,-52,1
131516,6412,712,1556,5,135,-50,1
131521,6122,795,1428,6,105,-50,1
131526,5706,810,1213,6,96,-48,1
131531,5199,769,1012,6,100,-47,1
131536,4725,702,828,6,110,-45,1
131541,4273,629,702,7,122,-44,1
131545,3771,578,602,8,137,-43,1
131551,3318,539,541,8,161,-42,1
131556,2976,498,434,9,173,-42,1
131561,2715,440,310,10,173,-41,1
131565,2546,370,227,11,167,-39,1
131571,2509,328,203,11,159,-39,1
131576,2629,327,185,12,156,-37,1
131580,2676,347,198,13,158,-33,1
131586,2722,379,242,13,157,-30,1
131591,2763,419,293,11,155,-27,1
131595,2688,466,393,11,151,-26,1
131600,2683,494,577,13,137,-28,1
131605,2776,488,817,14,124,-28,1
131610,2971,457,1073,12,113,-25,1
131616,3692,425,1477,9,111,-19,1
131620,4107,387,1690,8,126,-15,1
131625,4392,340,1843,8,130,-14,1
131630,4536,313,1887,6,127,-12,1
131635,4467,322,1906,4,121,-8,1
131640,4407,370,2000,2,111,-4,1
131645,4325,445,2155,0,104,-1,1
131650,4276,528,2355,-2,99,1,1
131655,4148,618,2493,-4,93,2,1
131660,3953,717,2599,-6,82,3,1
131665,3721,823,2656,-8,65,4,1
131670,3486,930,2712,-11,47,6,1
131675,3294,1000,2774,-13,31,7,1
131680,3163,1008,2847,-15,22,8,1
131685,3063,942,2925,-17,18,9,1
131690,2996,812,2984,-19,16,10,1
131695,2977,638,3015,-20,14,12,1
131700,3007,451,3018,-23,10,13,1
131705,3061,280,3039,-25,5,15,1
131710,3102,142,3084,-27,1,16,1
131715,3083,40,3146,-29,1,18,1
131720,2983,-34,3199,-31,10,20,1
131725,2819,-90,3245,-33,28,22,1
131730,2623,-127,3305,-36,54,23,1
131735,2430,-138,3386,-38,77,24,1
131740,2291,-108,3491,-40,90,25,1
131745,2225,-38,3627,-43,89,26,1
131750,2187,53,3809,-45,80,27,1
131755,2182,151,4022,-48,70,27,1
131760,2214,229,4284,-50,65,28,1
131765,2249,274,4608,-53,60,29,1
131770,2326,296,4984,-55,52,30,1
131775,2417,323,5136,-58,43,32,1
131780,2423,298,5359,-57,33,34,1
131785,2572,256,5369,-58,25,36,1
131790,2775,217,5142,-61,20,38,1
131795,2933,178,5184,-63,14,40,1
131800,3023,169,5457,-64,7,41,1
131805,3024,197,5966,-65,0,44,1
131810,3020,272,6547,-65,-3,46,1
131815,3003,391,6889,-66,1,49,1
131820,2946,492,7016,-65,10,51,1
131825,2955,522,7116,-65,25,52,1
131830,3005,458,7204,-65,41,52,1
131835,3085,330,7413,-65,50,53,1
131840,3158,215,7716,-64,52,54,1
131845,3218,149,8059,-63,52,55,1
131850,3211,107,8404,-62,52,56,1
131855,3095,61,8708,-61,53,58,1
131860,3056,-18,8994,-60,52,59,1
131865,3186,-129,9311,-58,49,60,1
131870,3380,-237,9532,-56,45,60,1
131875,3618,-328,9873,-54,46,60,1
131880,3829,-403,10223,-51,52,59,1
131885,3956,-460,10626,-48,57,59,1
131890,4020,-495,10928,-45,60,58,1
131895,4084,-519,11161,-41,61,57,1
131900,4210,-536,11306,-38,59,56,1
131905,4419,-541,11469,-34,56,55,1
131910,4726,-519,11684,-30,52,54,1
131915,5085,-477,11969,-25,49,53,1
131920,5434,-444,12250,-21,46,52,1
131925,5735,-412,12472,-16,48,50,1
131930,5923,-385,12617,-11,45,48,1
131935,6003,-384,12705,-6,37,46,1
131940,6128,-425,12784,-1,30,44,1
131945,6376,-466,12876,4,22,41,1
131950,6710,-470,12984,9,14,39,1
131955,7066,-438,13109,15,10,35,1
131960,7341,-387,13222,20,6,32,1
131965,7492,-345,13306,25,1,28,1
131970,7539,-329,13350,30,-5,24,1
131975,7556,-331,13347,35,-10,21,1
131980,7621,-344,13305,40,-13,16,1
131985,7759,-352,13251,45,-13,12,1
131990,7971,-347,13198,49,-12,8,1
131995,8214,-330,13151,54,-10,3,1
132000,8452,-304,13082,58,-10,-1,1
132005,8592,-286,12955,62,-10,-6,1
132010,8654,-279,12772,66,-12,-11,1
132015,8669,-275,12538,69,-17,-16,1
132020,8707,-274,12300,72,-26,-20,1
132025,8830,-270,12058,75,-37,-25,1
132030,9036,-257,11801,78,-48,-30,1
132035,9239,-236,11524,80,-55,-34,1
132040,9377,-211,11236,82,-59,-39,1
132045,9386,-190,10945,83,-58,-44,1
132050,9282,-173,10666,84,-55,-49,1
132055,9112,-171,10406,84,-51,-53,1
132060,8945,-164,10163,84,-47,-57,1
132065,8830,-155,9916,84,-43,-62,1
132070,8777,-144,9628,83,-38,-66,1
132075,8792,-139,9278,82,-32,-69,1
132080,8785,-141,8892,81,-25,-72,1
132085,8664,-142,8540,80,-19,-76,1
132090,8482,-133,8209,78,-15,-79,1
132095,8312,-107,7900,76,-13,-81,1
132100,8198,-68,7601,75,-13,-82,1
132105,8034,-29,7360,73,-14,-85,1
132110,7821,0,7108,70,-11,-88,1
132115,7497,22,6886,68,-6,-90,1
132120,7152,45,6666,65,-2,-91,1
132125,6869,70,6396,63,-1,-92,1
132130,6674,97,6104,60,-1,-93,1
132135,6541,131,5790,58,2,-94,1
132140,6430,162,5474,55,6,-96,1
132145,6260,197,5220,52,10,-96,1
132150,6030,228,4995,49,11,-97,1
132155,5740,254,4781,46,9,-97,1
132160,5439,273,4551,43,5,-97,1
132165,5150,285,4294,40,5,-97,1
132170,4891,297,4037,36,8,-97,1
132175,4653,326,3804,33,14,-97,1
132180,4413,362,3598,31,19,-96,1
132185,4200,371,3678,29,24,-96,1
132190,4018,383,3726,26,25,-96,1
132195,3806,390,3708,24,23,-95,1
132200,3532,393,3617,22,16,-96,1
132205,3194,396,3337,20,11,-96,1
132210,2835,441,3094,18,6,-95,1
132215,2638,492,3050,13,14,-93,1
132220,2426,569,2996,10,28,-91,1
132225,2367,626,3134,8,30,-90,1
132230,2253,688,3153,6,30,-88,1
132235,2045,735,3099,4,23,-87,1
132240,1830,778,2966,1,18,-85,1
132245,1701,829,2801,-2,19,-83,1
132250,1648,883,2731,-5,24,-79,1
132255,1588,934,2712,-7,28,-77,1
132260,1528,980,2665,-9,27,-75,1
132265,1434,1019,2601,-11,25,-72,1
132270,1264,1050,2544,-14,25,-70,1
132275,1041,1076,2499,-16,24,-67,1
132280,841,1090,2480,-18,24,-65,1
132285,654,1101,2492,-20,24,-62,1
132290,495,1105,2512,-22,21,-59,1
132294,378,1102,2529,-24,17,-57,1
132300,250,1090,2569,-25,14,-54,1
132305,105,1081,2588,-27,11,-51,1
132309,-12,1066,2575,-29,9,-49,1
132314,-119,1042,2603,-31,10,-46,1
132319,-232,1010,2666,-33,11,-43,1
132324,-299,994,2689,-36,12,-41,1
132330,-356,988,2750,-37,14,-37,1
132335,-445,987,2860,-39,13,-35,1
132340,-564,995,2979,-41,11,-32,1
132344,-705,1011,3121,-43,11,-29,1
132349,-803,1022,3269,-44,12,-26,1
132354,-864,1025,3405,-46,14,-23,1
132359,-874,962,3519,-47,12,-19,1
132364,-919,988,3639,-49,7,-17,1
132369,-1011,1031,3727,-50,2,-14,1
132374,-1154,1022,3805,-51,0,-11,1
132379,-1303,979,3868,-52,-1,-8,1
132384,-1443,936,3970,-53,-2,-5,1
132390,-1534,916,4115,-54,-2,-2,1
132394,-1598,917,4307,-55,-4,1,1
132399,-1649,922,4515,-56,-6,3,1
132404,-1687,931,4678,-57,-9,6,1
132409,-1712,941,4754,-57,-10,9,1
132414,-1710,948,4790,-57,-11,12,1
132419,-1684,944,4839,-58,-8,15,1
132424,-1657,929,4925,-58,-4,18,1
132429,-1645,893,5062,-59,0,21,1
132434,-1642,845,5221,-59,2,24,1
132439,-1634,785,5377,-59,2,27,1
132444,-1592,713,5538,-59,0,30,1
132449,-1508,624,5704,-59,-4,32,1
132454,-1411,516,5878,-59,-9,35,1
132459,-1347,398,6037,-60,-15,37,1
132464,-1330,279,6174,-59,-19,40,1
132469,-1354,160,6286,-59,-22,42,1
132474,-1395,39,6391,-59,-23,44,1
132479,-1417,-88,6505,-59,-22,46,1
132484,-1401,-220,6628,-59,-20,49,1
132489,-1358,-335,6740,-59,-18,51,1
132494,-1293,-427,6840,-59,-17,52,1
132499,-1222,-505,6932,-59,-16,54,1
132504,-1143,-571,7050,-59,-14,56,1
132509,-1036,-624,7208,-59,-13,58,1
132514,-899,-666,7411,-59,-12,60,1
132519,-738,-700,7635,-59,-12,62,1
132524,-575,-733,7837,-59,-13,63,1
132529,-436,-761,8010,-59,-15,65,1
132534,-336,-790,8135,-59,-18,67,1
132539,-260,-817,8241,-59,-19,68,1
132544,-249,-841,8224,-58,-20,69,1
132549,-217,-868,8205,-57,-21,70,1
132554,-113,-896,8232,-56,-18,71,1
132559,-8,-923,8300,-56,-16,72,1
132564,114,-948,8456,-55,-16,72,1
132569,224,-967,8644,-54,-16,73,1
132574,348,-976,8826,-53,-13,74,1
132579,489,-974,8955,-52,-8,75,1
132584,643,-970,9050,-52,-1,76,1
132589,825,-977,9155,-51,7,77,1
132594,1024,-996,9301,-50,14,77,1
132599,1230,-1026,9504,-49,18,76,1
132604,1234,-1062,9720,-48,19,77,1
132609,1141,-1098,9852,-46,18,78,1
132614,1152,-1129,9970,-45,22,78,1
132619,1337,-1165,10081,-43,26,78,1
132624,1640,-1207,10267,-42,26,78,1
132629,1979,-1242,10521,-40,25,77,1
132634,2294,-1246,10824,-37,24,77,1
132639,2569,-1212,11116,-35,23,77,1
132644,2794,-1155,11394,-32,25,77,1
132649,3015,-1108,11658,-30,32,76,1
132654,3252,-1101,11940,-27,41,76,1
132659,3494,-1133,12232,-24,51,75,1
132664,3721,-1184,12525,-21,58,74,1
132669,3898,-1240,12780,-18,59,73,1
132674,4015,-1295,12995,-14,56,71,1
132679,4120,-1351,13170,-10,54,69,1
132684,4239,-1408,13318,-6,52,68,1
132689,4365,-1464,13463,-2,51,65,1
132694,4490,-1507,13598,3,51,62,1
132699,4600,-1533,13707,8,49,60,1
132704,4700,-1536,13775,12,46,57,1
132709,4814,-1520,13804,17,42,54,1
132714,4943,-1485,13800,22,35,52,1
132719,5088,-1430,13781,28,28,49,1
132724,5244,-1363,13757,33,20,46,1
132729,5389,-1282,13736,38,11,44,1
132734,5500,-1183,13705,43,3,41,1
132739,5580,-1071,13642,47,-3,38,1
132744,5633,-958,13531,52,-8,36,1
132749,5677,-852,13387,57,-12,33,1
132754,5725,-771,13224,61,-17,31,1
132759,5787,-701,13059,65,-23,28,1
132764,5854,-624,12896,69,-31,26,1
132769,5923,-536,12738,73,-37,23,1
132774,5989,-447,12557,76,-39,20,1
132779,6039,-370,12367,80,-38,18,1
132784,6053,-312,12151,82,-36,15,1
132789,6044,-275,11921,85,-37,13,1
132794,6040,-250,11674,87,-40,10,1
132799,6073,-233,11421,90,-44,8,1
132804,6151,-216,11161,92,-51,5,1
132809,6227,-189,10891,93,-58,3,1
132814,6270,-161,10613,95,-63,0,1
132819,6415,-127,10356,96,-67,-3,1
132824,6540,-128,10066,96,-64,-3,1
132829,6554,-142,9857,97,-76,-7,1
132834,6375,-163,9518,97,-80,-10,1
132839,6021,-188,9223,97,-85,-13,1
132844,5606,-262,8914,96,-79,-16,1
132849,5328,-339,8699,95,-67,-18,1
132854,5272,-377,8519,94,-53,-20,1
132859,5360,-330,8320,93,-48,-22,1
132864,5445,-202,8028,92,-53,-25,1
132869,5404,-31,7629,91,-63,-27,1
132874,5194,137,7202,89,-67,-29,1
132879,4920,289,6822,87,-57,-30,1
132884,4706,420,6539,86,-40,-32,1
132889,4625,517,6298,84,-25,-33,1
132894,4624,580,6061,83,-15,-33,1
132899,4558,625,5792,82,-13,-34,1
132904,4385,669,5449,80,-8,-35,1
132909,4052,712,5101,79,8,-36,1
132914,3677,761,4777,77,37,-35,1
132919,3315,813,4542,76,77,-35,1
132924,3031,865,4397,74,119,-34,1
132929,3141,612,4142,73,160,-32,1
132934,2979,750,4119,72,193,-28,1
132939,2954,898,4089,70,203,-28,1
132944,2959,1077,4024,68,196,-26,1
132949,2878,1237,3938,68,179,-24,1
132954,2859,1362,3754,67,155,-23,1
132959,2746,1439,3556,66,135,-22,1
132964,2617,1484,3320,65,119,-21,1
132969,2391,1503,3120,64,110,-20,1
132974,2169,1511,2977,63,104,-18,1
132979,1936,1540,2872,61,103,-17,1
132984,1647,1624,2726,58,104,-16,1
132989,1295,1793,2501,57,107,-16,1
132994,998,1962,2192,57,120,-15,1
132999,899,2039,1942,58,124,-15,1
133004,974,2003,1697,57,113,-14,1
133009,1206,1891,1640,55,96,-12,1
133014,1365,1761,1709,53,79,-9,1
133019,1446,1691,1646,49,56,-7,1
133024,1532,1594,1908,50,26,-8,1
133029,1919,1500,3058,46,0,-8,1
133034,2096,1436,3745,41,-6,-6,1
133039,2146,1402,4430,39,-14,-6,1
133044,2224,1415,4793,35,-33,-7,1
133049,2133,1457,5086,29,-59,-7,1
133054,1967,1582,5463,23,-91,-7,1
133059,1639,1804,5754,18,-119,-7,1
133064,1252,2097,5905,15,-137,-7,1
133069,762,2411,5718,12,-139,-9,1
133074,214,2685,5312,8,-122,-10,1
133079,-325,2883,4866,4,-83,-10,1
133084,-819,3023,4531,-1,-22,-10,1
133089,-1195,3113,4336,-4,50,-9,1
133094,-1416,3164,4236,-7,124,-9,1
133099,-1491,3204,4165,-10,187,-9,1
133103,-1448,3230,4116,-13,232,-10,1
133109,-1311,3232,4119,-16,255,-10,1
133114,-1137,3206,4139,-18,262,-11,1
133119,-949,3147,4130,-21,257,-12,1
133124,-745,3063,4067,-22,241,-13,1
133129,-546,2966,3951,-24,218,-15,1
133134,-329,2873,3821,-26,188,-16,1
133139,-59,2795,3750,-28,153,-17,1
133144,186,2694,3844,-30,115,-18,1
133148,293,2567,4022,-32,78,-20,1
133153,208,2422,4179,-34,50,-21,1
133159,-37,2268,4205,-36,34,-22,1
133163,-320,2135,4079,-38,31,-23,1
133168,-596,2062,3809,-40,33,-24,1
133173,-731,2053,3585,-41,33,-26,1
133178,-860,2103,3435,-43,36,-27,1
133183,-995,2193,3345,-45,41,-28,1
133188,-1138,2282,3338,-46,46,-28,1
133193,-1285,2351,3351,-48,54,-29,1
133198,-1392,2392,3369,-49,64,-30,1
133203,-1471,2405,3379,-50,77,-31,1
133208,-1526,2386,3438,-52,90,-32,1
133213,-1573,2345,3554,-54,102,-33,1
133218,-1604,2284,3731,-56,110,-34,1
133223,-1638,2209,3956,-57,115,-35,1
133228,-1696,2118,4180,-60,117,-36,1
133233,-1797,2000,4375,-62,121,-37,1
133238,-1964,1854,4515,-64,131,-38,1
133243,-2178,1669,4659,-65,144,-40,1
133248,-2440,1445,4899,-67,156,-43,1
133253,-2772,1214,5194,-70,161,-46,1
133258,-2562,1062,4806,-70,158,-48,1
133263,-2834,910,4913,-64,161,-44,1
133268,-2777,781,4717,-64,150,-45,1
133273,-2413,718,4086,-66,144,-49,1
133278,-2405,674,3837,-68,147,-53,1
133283,-2614,628,3836,-69,149,-55,1
133288,-3070,561,4221,-68,146,-56,1
133293,-3450,486,4586,-67,129,-56,1
133298,-3652,429,4847,-66,111,-56,1
133303,-3702,420,4909,-66,98,-56,1
133308,-3725,439,4878,-67,94,-57,1
133313,-3855,429,4867,-67,92,-57,1
133318,-4086,362,4882,-67,87,-57,1
133323,-4389,255,4924,-66,76,-57,1
133328,-4696,151,4956,-65,64,-56,1
133333,-4992,67,4979,-65,55,-54,1
133338,-5203,-8,4954,-64,50,-53,1
133343,-5375,-86,4961,-64,51,-52,1
133348,-5630,-182,5009,-64,53,-51,1
133353,-5969,-289,5110,-63,53,-49,1
133358,-6367,-381,5248,-63,55,-47,1
133363,-6706,-441,5367,-63,59,-45,1
133368,-6936,-486,5449,-62,63,-43,1
133373,-7052,-542,5514,-62,66,-41,1
133378,-7133,-612,5575,-62,62,-39,1
133383,-7216,-681,5645,-62,51,-36,1
133388,-7368,-735,5751,-61,38,-33,1
133393,-7581,-781,5863,-61,26,-30,1
133398,-7833,-827,5941,-60,17,-27,1
133403,-8091,-876,5990,-60,13,-24,1
133408,-8355,-938,6024,-60,11,-21,1
133413,-8600,-1009,6069,-60,10,-18,1
133418,-8825,-1077,6173,-59,11,-14,1
133423,-9026,-1131,6315,-59,11,-11,1
133428,-9193,-1171,6455,-58,12,-7,1
133433,-9326,-1189,6574,-57,12,-4,1
133438,-9442,-1190,6665,-57,12,-1,1
133443,-9547,-1177,6740,-56,10,3,1
133448,-9642,-1158,6843,-55,7,6,1
133453,-9737,-1133,6986,-54,2,9,1
133458,-9827,-1097,7150,-53,-3,13,1
133463,-9899,-1055,7301,-52,-5,16,1
133468,-9965,-1017,7425,-51,-7,19,1
133473,-10023,-991,7530,-49,-7,22,1
133478,-10071,-974,7660,-48,-5,25,1
133483,-10119,-945,7838,-47,-1,29,1
133488,-10143,-895,8064,-45,2,32,1
133493,-10129,-825,8313,-44,5,35,1
133498,-10084,-747,8550,-42,8,37,1
133503,-10011,-676,8750,-40,10,40,1
133508,-9921,-610,8946,-39,10,42,1
133513,-9838,-548,9153,-37,8,45,1
133518,-9753,-489,9374,-35,5,47,1
133523,-9638,-432,9586,-32,1,50,1
133528,-9500,-382,9773,-29,-3,52,1
133533,-9336,-344,9919,-26,-7,54,1
133538,-9160,-322,10045,-23,-11,56,1
133543,-8989,-304,10174,-19,-17,57,1
133548,-8828,-293,10311,-15,-23,59,1
133553,-8646,-277,10467,-11,-29,60,1
133558,-8453,-258,10626,-7,-34,62,1
133563,-8244,-239,10771,-2,-38,63,1
133568,-8020,-215,10900,3,-42,63,1
133573,-7810,-194,11006,8,-47,64,1
133578,-7605,-182,11105,13,-52,64,1
133583,-7395,-168,11192,18,-56,65,1
133588,-7193,-155,11290,23,-57,65,1
133593,-6999,-139,11384,28,-57,64,1
133598,-6791,-120,11454,33,-54,64,1
133603,-6556,-100,11487,38,-50,64,1
133608,-6301,-82,11486,43,-47,63,1
133613,-6021,-59,11475,47,-47,63,1
133618,-5727,-30,11467,52,-48,62,1
133623,-5436,9,11456,56,-48,61,1
133628,-5138,56,11435,60,-47,60,1
133633,-4834,105,11381,64,-48,59,1
133638,-4545,162,11282,67,-50,58,1
133643,-4291,222,11137,71,-51,56,1
133648,-4039,279,10976,74,-51,54,1
133653,-3927,345,10785,77,-49,53,1
133658,-3898,409,10581,79,-47,52,1
133663,-3801,469,10383,82,-47,50,1
133668,-3597,531,10169,84,-48,49,1
133673,-3290,589,9953,86,-49,46,1
133678,-2956,637,9729,88,-48,44,1
133683,-2694,670,9496,89,-47,41,1
133688,-2523,696,9250,91,-48,39,1
133693,-2412,718,8982,92,-48,37,1
133698,-2320,743,8693,93,-47,35,1
133703,-2212,783,8407,93,-45,32,1
133708,-2079,832,8133,93,-42,30,1
133713,-1939,889,7884,93,-37,28,1
133718,-1824,947,7632,93,-32,25,1
133723,-1736,1004,7361,93,-27,23,1
133728,-1661,1066,7075,93,-21,21,1
133733,-1595,1131,6775,92,-16,19,1
133738,-1502,1194,6504,91,-12,17,1
133743,-1328,1246,6279,90,-10,15,1
133748,-1087,1267,6100,89,-11,13,1
133753,-787,1260,5932,88,-16,12,1
133758,-545,1248,5730,87,-21,10,1
133763,-493,1257,5461,86,-23,8,1
133768,-613,1319,5108,85,-21,6,1
133773,-855,1422,4779,83,-18,4,1
133778,-988,1540,4499,82,-20,2,1
133783,-982,1636,4284,80,-23,0,1
133788,-889,1695,4115,79,-29,-2,1
133793,-912,1713,4065,77,-32,-5,1
133798,-1014,1715,4019,75,-30,-8,1
133803,-1136,1713,3911,73,-26,-10,1
133808,-1215,1714,3770,71,-25,-11,1
133813,-1198,1731,3534,69,-26,-13,1
133818,-1129,1754,3293,67,-24,-15,1
133823,-1091,1779,3035,65,-19,-17,1
133828,-1141,1801,2801,62,-12,-19,1
133833,-1221,1810,2640,60,-4,-21,1
133838,-1314,1807,2567,58,0,-22,1
133843,-1395,1807,2451,54,2,-23,1
133848,-1439,1805,2365,51,3,-25,1
133853,-1501,1805,2298,49,4,-26,1
133858,-1518,1798,2394,47,9,-28,1
133863,-1498,1812,2545,45,17,-29,1
133868,-1453,1849,2592,43,20,-31,1
133873,-1379,1893,2582,41,15,-32,1
133878,-1381,1912,2470,38,6,-34,1
133883,-1477,1917,2338,35,-1,-36,1
133888,-1613,1926,2196,32,-2,-38,1
133892,-1719,1947,2095,30,-1,-39,1
133897,-1744,1970,2038,27,-3,-40,1
133903,-1728,1988,2004,25,-6,-41,1
133908,-1708,1999,1989,22,-10,-43,1
133913,-1721,2001,1985,19,-14,-44,1
133918,-1779,2002,1997,16,-16,-46,1
133923,-1884,2007,2004,13,-16,-47,1
133928,-2000,2029,1992,10,-15,-48,1
133933,-2102,2066,1967,8,-13,-49,1
133938,-2183,2065,1977,5,-12,-51,1
133943,-2253,2054,1965,1,-7,-52,1
133947,-2321,2025,1946,-1,-2,-53,1
133952,-2399,1980,1906,-4,1,-54,1
133957,-2506,1927,1836,-6,2,-56,1
133963,-2631,1820,1780,-9,3,-57,1
133967,-2738,1765,1727,-11,6,-58,1
133972,-2798,1787,1751,-14,4,-60,1
133978,-2840,1847,1808,-17,1,-61,1
133982,-2912,1893,1879,-19,2,-62,1
133987,-2959,1920,1925,-21,8,-64,1
133992,-2962,1922,1965,-24,10,-65,1
133997,-2964,1902,2002,-27,8,-66,1
134002,-2965,1868,2060,-29,4,-67,1
134007,-2985,1822,2126,-32,1,-68,1
134012,-3043,1779,2200,-34,-2,-69,1
134017,-3142,1743,2263,-37,-6,-69,1
134022,-3283,1713,2307,-40,-8,-70,1
134027,-3483,1687,2347,-42,-10,-71,1
134032,-3677,1658,2391,-45,-12,-72,1
134037,-3758,1617,2427,-48,-13,-72,1
134042,-3809,1558,2504,-50,-12,-71,1
134047,-3821,1490,2577,-53,-14,-71,1
134052,-3794,1426,2631,-55,-16,-71,1
134057,-3856,1362,2707,-58,-19,-71,1
134062,-4014,1302,2782,-61,-26,-71,1
134067,-4116,1247,2811,-64,-32,-71,1
134072,-4233,1180,2916,-66,-38,-69,1
134077,-4363,1109,3072,-68,-48,-68,1
134082,-4458,1035,3163,-70,-59,-66,1
134087,-4563,944,3269,-72,-68,-65,1
134092,-4643,842,3227,-75,-75,-63,1
134097,-4707,727,3102,-78,-79,-62,1
134102,-4830,589,3089,-80,-79,-59,1
134107,-5022,442,3173,-82,-77,-57,1
134112,-5194,284,3309,-84,-70,-54,1
134117,-5370,133,3428,-85,-60,-52,1
134122,-5563,-1,3496,-85,-54,-49,1
134127,-5810,-126,3588,-86,-49,-47,1
134132,-6038,-244,3703,-87,-44,-44,1
134137,-6205,-360,3847,-88,-37,-41,1
134142,-6304,-481,4006,-88,-31,-38,1
134147,-6371,-597,4147,-88,-25,-36,1
134152,-6441,-709,4289,-88,-20,-33,1
134157,-6513,-815,4433,-88,-18,-30,1
134162,-6578,-922,4604,-88,-20,-27,1
134167,-6599,-1032,4798,-88,-24,-24,1
134172,-6611,-1139,5015,-88,-29,-21,1
134177,-6633,-1246,5220,-87,-35,-18,1
134182,-6702,-1350,5401,-87,-39,-16,1
134187,-6799,-1446,5553,-86,-42,-13,1
134192,-6909,-1537,5705,-86,-42,-9,1
134197,-7007,-1629,5870,-85,-41,-6,1
134202,-7094,-1716,6049,-84,-38,-4,1
134207,-7155,-1796,6211,-82,-35,-1,1
134212,-7184,-1864,6357,-81,-31,2,1
134217,-7179,-1913,6511,-80,-27,5,1
134222,-7167,-1945,6700,-78,-24,8,1
134227,-7153,-1968,6902,-77,-23,10,1
134232,-7138,-1990,7096,-75,-23,13,1
134237,-7118,-2005,7260,-74,-24,16,1
134242,-7096,-2007,7406,-72,-25,18,1
134247,-7067,-2005,7568,-71,-25,21,1
134252,-7045,-2005,7760,-69,-26,23,1
134257,-7038,-2014,7952,-68,-27,25,1
134262,-7046,-2032,8108,-66,-28,28,1
134267,-7050,-2043,8223,-64,-28,30,1
134272,-7040,-2037,8315,-63,-26,32,1
134277,-7011,-2020,8434,-61,-24,34,1
134282,-6977,-1997,8605,-60,-23,36,1
134287,-6945,-1974,8823,-58,-22,38,1
134292,-6921,-1946,9073,-56,-20,40,1
134297,-6886,-1909,9320,-55,-17,42,1
134302,-6836,-1861,9547,-53,-13,44,1
134307,-6779,-1809,9755,-52,-9,46,1
134312,-6717,-1764,9947,-50,-4,47,1
134317,-6651,-1718,10124,-48,-2,49,1
134322,-6573,-1672,10279,-47,0,50,1
134327,-6478,-1620,10450,-45,2,52,1
134332,-6363,-1559,10647,-43,4,53,1
134337,-6244,-1503,10852,-41,7,54,1
134342,-6132,-1458,11031,-39,9,55,1
134347,-6017,-1425,11172,-36,10,57,1
134352,-5899,-1386,11288,-34,11,58,1
134357,-5754,-1343,11410,-31,12,59,1
134362,-5580,-1305,11560,-28,12,60,1
134367,-5401,-1279,11713,-25,11,61,1
134372,-5247,-1260,11834,-21,9,62,1
134377,-5092,-1243,11913,-17,7,62,1
134382,-4922,-1234,11956,-13,8,62,1
134387,-4757,-1241,11966,-9,8,62,1
134392,-4610,-1255,11977,-4,7,62,1
134397,-4485,-1269,11998,0,4,62,1
134402,-4385,-1275,12022,5,-1,63,1
134407,-4275,-1273,12035,10,-8,63,1
134412,-4138,-1262,12028,15,-15,63,1
134417,-3971,-1243,12025,19,-20,62,1
134422,-3773,-1219,12047,24,-23,62,1
134427,-3542,-1190,12086,29,-26,61,1
134432,-3294,-1150,12112,34,-32,60,1
134437,-3054,-1102,12096,39,-40,59,1
134442,-2867,-1041,12023,43,-48,58,1
134447,-2753,-973,11928,47,-53,57,1
134452,-2685,-902,11865,51,-56,56,1
134457,-2597,-829,11844,55,-56,55,1
134462,-2455,-758,11847,58,-55,54,1
134467,-2264,-685,11812,61,-55,52,1
134472,-2062,-617,11695,65,-53,51,1
134477,-1865,-558,11518,67,-51,49,1
134482,-1690,-509,11341,69,-49,47,1
134487,-1545,-455,11173,71,-49,46,1
134492,-1407,-399,11051,73,-52,44,1
134497,-1264,-346,10911,75,-56,42,1
134502,-1116,-295,10748,77,-60,41,1
134507,-966,-251,10536,79,-63,38,1
134512,-830,-213,10321,80,-66,36,1
134517,-708,-179,10118,81,-67,34,1
134522,-604,-138,9949,81,-68,32,1
134527,-514,-93,9792,82,-70,29,1
134532,-426,-39,9627,82,-72,27,1
134537,-349,17,9435,83,-74,24,1
134542,-271,67,9209,83,-76,21,1
134547,-187,116,8962,82,-78,18,1
134552,-113,167,8719,82,-79,15,1
134557,-36,222,8499,82,-78,13,1
134562,53,281,8316,81,-76,10,1
134567,167,350,8160,80,-73,7,1
134572,305,430,7967,79,-69,5,1
134577,312,512,7727,78,-69,2,1
134582,273,601,7461,77,-67,-1,1
134587,156,684,7181,76,-63,-4,1
134592,50,753,7001,74,-59,-6,1
134597,20,816,6872,72,-56,-9,1
134602,92,879,6796,70,-54,-11,1
134607,226,943,6705,69,-53,-14,1
134612,370,1004,6552,67,-54,-16,1
134617,483,1061,6346,65,-54,-18,1
134622,551,1111,6109,63,-53,-20,1
134627,589,1162,5887,61,-53,-22,1
134632,682,1208,5692,60,-55,-24,1
134637,796,1253,5530,58,-58,-25,1
134642,892,1288,5395,56,-62,-27,1
134647,976,1309,5245,54,-65,-29,1
134652,993,1325,5088,52,-67,-31,1
134657,969,1339,4904,50,-67,-32,1
134661,930,1357,4722,48,-64,-34,1
134667,932,1375,4528,46,-61,-35,1
134671,963,1389,4332,44,-57,-36,1
134677,1036,1389,4112,43,-55,-37,1
134681,970,1435,4029,41,-54,-38,1
134687,827,1469,4015,37,-54,-41,1
134691,664,1500,3953,35,-51,-42,1
134697,594,1486,3957,33,-51,-42,1
134701,635,1446,3868,31,-56,-43,1
134706,702,1404,3761,28,-65,-44,1
134711,755,1380,3627,26,-72,-46,1
134716,733,1373,3457,23,-76,-47,1
134721,681,1356,3306,21,-77,-48,1
134727,611,1317,3313,19,-78,-48,1
134731,510,1261,3231,15,-76,-49,1
134736,392,1204,3162,11,-73,-49,1
134741,256,1166,3137,8,-68,-49,1
134746,90,1158,3069,5,-57,-50,1
134751,-36,1179,3179,2,-43,-50,1
134756,-170,1225,3324,0,-23,-50,1
134761,-245,1262,3425,-2,-3,-51,1
134766,-314,1301,3468,-4,11,-52,1
134771,-431,1355,3448,-7,22,-53,1
134776,-595,1426,3454,-11,32,-53,1
134781,-752,1500,3468,-14,42,-53,1
134786,-857,1553,3513,-16,48,-54,1
134791,-799,1559,3684,-19,50,-54,1
134796,-726,1538,3805,-22,51,-54,1
134801,-645,1498,3925,-25,47,-54,1
134806,-588,1455,3990,-27,35,-55,1
134811,-634,1416,3998,-30,21,-55,1
134816,-766,1376,3986,-32,6,-55,1
134821,-956,1328,3984,-35,-5,-56,1
134826,-967,1267,4008,-38,-12,-55,1
134831,-968,1198,4054,-40,-9,-53,1
134836,-1010,1118,4184,-42,-7,-52,1
134841,-1049,1038,4277,-45,-10,-53,1
134846,-1139,971,4331,-48,-10,-53,1
134851,-1295,922,4405,-50,-10,-52,1
134856,-1405,887,4435,-53,-10,-51,1
134861,-1492,852,4511,-54,-10,-49,1
134866,-1558,804,4656,-56,-12,-48,1
134871,-1596,737,4785,-59,-17,-47,1
134876,-1602,667,4683,-62,-20,-47,1
134881,-1665,586,4535,-64,-21,-46,1
134886,-1822,502,4527,-66,-19,-44,1
134891,-2030,429,4606,-68,-15,-43,1
134896,-2260,361,4805,-70,-9,-41,1
134901,-2481,305,5064,-72,-3,-40,1
134906,-2667,250,5251,-73,2,-39,1
134911,-2830,188,5295,-74,5,-38,1
134916,-2989,114,5321,-75,5,-37,1
134921,-3154,40,5369,-77,5,-35,1
134926,-3297,-35,5492,-78,9,-34,1
134931,-3385,-117,5678,-79,12,-32,1
134936,-3359,-213,5921,-80,9,-30,1
134941,-3274,-291,6161,-81,-11,-28,1
134946,-3311,-346,6379,-82,-23,-26,1
134951,-3364,-393,6583,-82,-25,-24,1
134956,-3493,-442,6678,-83,-21,-21,1
134961,-3615,-500,6739,-83,-19,-18,1
134966,-3792,-565,6838,-84,-18,-15,1
134971,-3968,-636,6993,-84,-16,-12,1
134976,-4165,-713,7199,-84,-11,-10,1
134981,-4330,-787,7401,-84,-6,-7,1
134986,-4472,-858,7562,-83,-1,-4,1
134991,-4578,-920,7652,-82,2,-1,1
134996,-4685,-982,7746,-81,7,1,1
135001,-4775,-1035,7869,-81,12,4,1
135006,-4858,-1083,8042,-80,17,7,1
135011,-4917,-1118,8265,-78,19,10,1
135016,-4956,-1148,8505,-77,18,13,1
135021,-4971,-1175,8713,-75,15,17,1
135026,-4976,-1203,8896,-74,12,20,1
135031,-4961,-1233,9059,-72,8,23,1
135036,-4944,-1267,9217,-70,4,27,1
135041,-4927,-1302,9407,-68,-1,30,1
135046,-4918,-1333,9628,-66,-6,34,1
135051,-4917,-1359,9842,-64,-9,38,1
135056,-4919,-1382,10045,-61,-9,41,1
135061,-4902,-1407,10240,-58,-8,44,1
135066,-4864,-1427,10422,-56,-6,48,1
135071,-4822,-1446,10607,-53,-4,51,1
135076,-4776,-1456,10808,-50,0,54,1
135081,-4713,-1466,11000,-48,4,57,1
135086,-4612,-1468,11177,-45,7,60,1
135091,-4450,-1458,11357,-42,10,63,1
135096,-4236,-1442,11543,-39,11,65,1
135101,-3991,-1415,11743,-36,11,67,1
135106,-3729,-1376,11944,-33,11,69,1
135111,-3474,-1337,12119,-30,11,71,1
135116,-3243,-1306,12261,-26,10,73,1
135121,-3003,-1296,12361,-23,10,74,1
135126,-2747,-1308,12445,-19,9,74,1
135131,-2517,-1338,12482,-15,9,74,1
135136,-2358,-1376,12506,-11,7,74,1
135141,-2201,-1420,12535,-8,4,74,1
135146,-2227,-1465,12567,-4,2,74,1
135151,-2315,-1506,12603,0,-3,75,1
135156,-2290,-1547,12650,4,-4,75,1
135161,-2077,-1587,12690,7,-4,74,1
135166,-1677,-1616,12756,11,-2,73,1
135171,-1224,-1621,12815,15,-2,71,1
135176,-854,-1603,12866,19,-7,69,1
135181,-630,-1574,12859,23,-14,68,1
135186,-528,-1539,12801,27,-22,66,1
135191,-455,-1503,12735,31,-32,64,1
135196,-320,-1483,12696,34,-39,62,1
135201,-54,-1476,12699,38,-39,60,1
135206,267,-1465,12708,41,-37,57,1
135211,516,-1431,12671,45,-36,54,1
135216,630,-1381,12540,48,-38,51,1
135221,656,-1326,12352,51,-40,48,1
135226,686,-1270,12154,54,-42,45,1
135231,787,-1204,12012,57,-42,42,1
135236,991,-1126,11938,59,-42,39,1
135241,1248,-1027,11896,62,-41,35,1
135246,1496,-921,11802,64,-40,32,1
135251,1687,-806,11621,66,-39,29,1
135256,1822,-684,11383,68,-40,26,1
135261,1935,-555,11134,70,-42,23,1
135266,2076,-430,10929,72,-44,20,1
135271,2261,-313,10768,74,-46,17,1
135276,2460,-200,10605,76,-49,14,1
135281,2625,-89,10396,77,-52,11,1
135286,2764,22,10145,79,-55,8,1
135291,2894,118,9872,80,-56,5,1
135296,3000,199,9626,81,-57,2,1
135301,3068,275,9415,83,-60,-1,1
135306,3103,344,9211,84,-65,-5,1
135311,3105,403,8975,85,-69,-8,1
135316,3210,447,8748,85,-71,-11,1
135321,3305,484,8453,86,-73,-13,1
135326,3451,512,8205,86,-78,-17,1
135331,3489,534,7916,86,-82,-20,1
135336,3425,538,7695,86,-87,-24,1
135341,3269,541,7470,85,-92,-27,1
135346,3123,537,7304,85,-96,-30,1
135351,3014,529,7136,83,-100,-33,1
135356,2987,518,6970,82,-104,-37,1
135361,2994,507,6778,81,-105,-40,1
135366,3084,505,6525,79,-106,-43,1
135371,3199,505,6231,77,-104,-44,1
135376,3263,501,5961,75,-104,-46,1
135381,3359,511,5663,72,-108,-49,1
135386,3367,516,5377,71,-115,-50,1
135391,3102,496,5380,67,-129,-53,1
135396,2815,496,5358,63,-148,-57,1
135401,2517,513,5273,59,-166,-59,1
135406,2365,504,5142,56,-186,-61,1
135411,2386,492,4719,52,-211,-63,1
135416,2609,597,4343,49,-247,-66,1
135421,2883,718,4143,43,-289,-68,1
135426,2945,863,3746,37,-338,-70,1
135431,2839,942,3740,34,-383,-72,1
135436,2766,873,3775,30,-420,-75,1
135441,2679,785,3709,26,-463,-78,1
135446,2629,669,3875,20,-496,-79,1
135451,2503,605,3796,11,-514,-78,1
135456,2455,595,3842,4,-516,-77,1
135461,2230,677,3731,-2,-490,-75,1
135466,1736,815,3479,-9,-437,-74,1
135471,1070,1053,3116,-15,-351,-72,1
135476,493,1249,2613,-20,-223,-66,1
135481,87,1436,2246,-24,-81,-61,1
135486,-156,1616,1946,-26,46,-57,1
135490,4,1747,1886,-28,144,-55,1
135495,560,1814,1987,-30,212,-52,1
135500,1226,1795,2247,-32,255,-48,1
135505,1848,1703,2542,-32,271,-46,1
135510,2319,1548,2783,-33,265,-45,1
135515,2542,1344,2971,-34,246,-43,1
135520,2505,1107,3130,-36,220,-42,1
135525,2360,873,3305,-38,199,-40,1
135530,2308,677,3453,-40,183,-39,1
135536,2344,531,3568,-42,164,-37,1
135540,2396,435,3639,-43,144,-37,1
135545,2397,379,3678,-45,126,-36,1
135550,2251,358,3747,-47,109,-35,1
135555,1980,390,3876,-50,86,-35,1
135560,1809,481,3982,-52,63,-34,1
135565,1774,621,4019,-53,45,-31,1
135570,1832,765,4092,-54,29,-29,1
135575,1856,901,4231,-54,12,-27,1
135580,1851,1003,4267,-57,-3,-26,1
135585,1853,1088,4088,-60,-13,-25,1
135590,1830,1145,3891,-62,-20,-22,1
135595,1793,1186,3933,-64,-29,-20,1
135600,1735,1214,4094,-66,-38,-17,1
135605,1658,1223,4355,-68,-44,-15,1
135610,1533,1206,4624,-69,-49,-12,1
135615,1396,1176,4865,-71,-53,-10,1
135620,1248,1143,4729,-72,-54,-7,1
135625,1120,1088,4607,-72,-57,-4,1
135630,1024,1045,4500,-73,-58,-1,1
135635,932,1038,4486,-75,-54,1,1
135640,880,1068,4680,-76,-47,4,1
135645,871,1130,4936,-76,-38,7,1
135650,922,1186,5206,-76,-32,10,1
135655,996,1218,5369,-77,-32,14,1
135660,1111,1216,5530,-78,-33,17,1
135665,1210,1199,5756,-79,-33,20,1
135670,1274,1171,5998,-80,-32,24,1
135675,1291,1129,6279,-80,-27,27,1
135680,1314,1071,6526,-80,-21,31,1
135685,1335,995,6754,-81,-17,34,1
135690,1339,901,6994,-81,-15,37,1
135695,1315,801,7258,-81,-10,41,1
135700,1291,699,7494,-80,-4,44,1
135705,1256,591,7701,-80,1,46,1
135710,1255,471,7897,-79,4,49,1
135715,1284,349,8086,-78,4,52,1
135720,1343,228,8308,-77,1,54,1
135725,1462,107,8592,-76,-5,57,1
135730,1644,-20,8876,-74,-16,60,1
135735,1887,-150,9198,-72,-33,62,1
135740,2159,-272,9496,-69,-54,65,1
135745,2383,-379,9729,-66,-70,67,1
135750,2570,-482,9922,-62,-79,69,1
135755,2703,-586,10065,-58,-78,71,1
135760,2765,-680,10147,-54,-72,73,1
135765,2791,-760,10232,-50,-66,75,1
135770,2712,-803,10333,-46,-59,78,1
135775,2637,-832,10471,-42,-56,81,1
135780,2781,-858,10667,-37,-58,83,1
135785,3130,-897,10855,-32,-63,85,1
135790,3587,-945,10991,-26,-67,85,1
135795,3980,-981,11088,-21,-69,85,1
135800,4258,-1006,11183,-15,-75,84,1
135805,4437,-1029,11245,-10,-81,84,1
135810,4629,-1059,11293,-4,-90,84,1
135815,4859,-1116,11317,3,-99,83,1
135820,5125,-1186,11285,9,-106,81,1
135825,5373,-1253,11218,16,-114,78,1
135830,5569,-1275,11149,22,-124,75,1
135835,5751,-1263,11051,29,-130,72,1
135840,6021,-1241,10947,35,-132,69,1
135845,6399,-1227,10866,41,-129,66,1
135850,6825,-1219,10793,47,-126,62,1
135855,7217,-1200,10695,53,-121,57,1
135860,7565,-1175,10567,58,-114,53,1
135865,7857,-1151,10397,63,-108,49,1
135870,8177,-1139,10230,68,-107,45,1
135875,8486,-1146,10096,72,-106,40,1
135880,8757,-1178,10000,76,-106,35,1
135885,8965,-1232,9885,80,-101,30,1
135890,9155,-1285,9760,83,-94,24,1
135895,9373,-1316,9570,85,-84,19,1
135900,9666,-1348,9344,88,-75,14,1
135905,10004,-1404,9102,89,-69,9,1
135910,10341,-1470,8857,91,-65,3,1
135915,10630,-1525,8614,93,-60,-2,1
135920,10918,-1554,8377,94,-55,-7,1
135925,11182,-1570,8157,95,-51,-12,1
135930,11422,-1572,7961,95,-51,-17,1
135935,11632,-1564,7738,95,-49,-23,1
135940,11783,-1554,7512,95,-47,-29,1
135945,11918,-1534,7249,94,-46,-34,1
135950,12098,-1503,6945,94,-45,-39,1
135955,12314,-1463,6651,93,-45,-44,1
135960,12492,-1421,6369,92,-49,-50,1
135965,12556,-1384,6133,91,-55,-56,1
135970,12447,-1345,5968,89,-60,-62,1
135975,12265,-1294,5795,87,-63,-68,1
135980,12119,-1224,5581,85,-64,-73,1
135985,12104,-1150,5284,83,-65,-78,1
135990,12187,-1069,4900,81,-66,-83,1
135995,12265,-970,4498,78,-68,-89,1
136000,12221,-847,4135,76,-72,-94,1
136005,12019,-704,3841,73,-77,-98,1
136010,11756,-556,3592,71,-78,-102,1
136015,11560,-407,3361,68,-75,-105,1
136020,11466,-261,3125,65,-71,-108,1
136025,11397,-123,2875,63,-69,-111,1
136030,11242,7,2624,60,-70,-114,1
136035,10946,136,2389,57,-72,-116,1
136040,10578,266,2147,54,-72,-118,1
136045,10190,394,1977,51,-69,-118,1
136050,9883,511,1825,48,-66,-119,1
136055,9635,616,1652,44,-62,-119,1
136060,9415,713,1471,41,-62,-120,1
136065,9132,813,1304,38,-62,-120,1
136070,8777,909,1162,34,-62,-119,1
136075,8360,1005,1046,32,-60,-118,1
136080,7916,1103,952,29,-58,-117,1
136085,7597,1181,1098,27,-55,-116,1
136090,7301,1274,1179,24,-53,-114,1
136095,7017,1349,1202,22,-56,-113,1
136100,6600,1396,1056,21,-62,-113,1
136105,6175,1425,936,19,-68,-113,1
136110,5908,1559,884,14,-64,-110,1
136115,5740,1703,946,11,-48,-104,1
136120,5622,1799,1117,9,-40,-101,1
136125,5440,1843,1154,7,-44,-101,1
136130,5154,1866,1079,5,-49,-100,1
136135,4732,1892,928,3,-51,-97,1
136140,4284,1937,804,1,-48,-94,1
136145,3971,2005,769,-1,-39,-91,1
136150,3775,2089,838,-2,-29,-87,1
136155,3660,2173,927,-3,-22,-84,1
136160,3550,2252,981,-4,-18,-81,1
136165,3389,2319,982,-5,-13,-78,1
136170,3198,2382,855,-6,-5,-74,1
136175,2999,2455,558,-7,7,-71,1
136180,2777,2526,310,-8,23,-68,1
136185,2566,2593,243,-9,37,-65,1
136190,2391,2649,343,-10,45,-61,1
136194,2253,2697,542,-10,46,-58,1
136200,2150,2740,702,-10,41,-54,1
136204,2040,2786,761,-10,33,-51,1
136210,1902,2822,695,-11,27,-48,1
136215,1778,2852,571,-11,25,-45,1
136220,1667,2876,481,-12,23,-42,1
136224,1553,2890,484,-13,17,-39,1
136230,1416,2899,576,-14,13,-35,1
136234,1323,2900,678,-14,9,-32,1
136240,1263,2891,743,-15,3,-29,1
136244,1183,2888,730,-16,-3,-26,1
136249,1094,2901,666,-17,-6,-23,1
136254,993,2930,609,-18,-7,-20,1
136259,926,2954,594,-19,-7,-17,1
136264,886,2966,640,-20,-9,-14,1
136270,870,2975,697,-21,-14,-11,1
136275,818,2993,722,-22,-19,-8,1
136280,778,3022,677,-23,-23,-5,1
136284,712,3046,598,-24,-27,-1,1
136289,655,3083,499,-25,-28,2,1
136294,615,3123,453,-26,-31,5,1
136299,573,3152,463,-27,-34,9,1
136304,543,3176,509,-28,-35,12,1
136309,520,3205,535,-29,-35,16,1
136314,488,3239,519,-30,-34,20,1
136319,468,3274,456,-31,-33,23,1
136324,450,3305,379,-32,-34,27,1
136329,446,3336,325,-33,-36,31,1
136334,455,3374,309,-34,-39,35,1
136339,451,3411,316,-35,-42,40,1
136344,417,3436,339,-37,-41,44,1
136349,374,3446,348,-38,-38,49,1
136354,307,3450,334,-39,-34,53,1
136359,240,3474,325,-40,-31,58,1
136364,141,3507,315,-41,-27,63,1
136369,23,3548,339,-42,-16,68,1
136374,-100,3586,381,-44,6,74,1
136379,-189,3608,443,-45,28,79,1
136384,-269,3600,488,-47,50,85,1
136389,-295,3544,545,-49,69,90,1
136394,-266,3456,615,-51,87,96,1
136399,-105,3350,782,-54,103,102,1
136404,218,3206,1056,-58,116,108,1
136409,812,3027,1452,-61,120,115,1
136414,1686,2843,1875,-65,110,122,1
136419,2715,2674,2299,-68,84,130,1
136424,3619,2501,2650,-71,55,137,1
136429,4170,2307,2901,-74,39,143,1
136434,4446,2069,3143,-77,36,150,1
136439,4751,1764,3393,-80,35,158,1
136444,5324,1382,3789,-83,28,165,1
136449,6241,850,4812,-87,15,169,1
136454,7629,577,5535,-93,14,176,1
136459,7809,300,5507,-89,16,178,1
136464,8091,-118,5674,-84,8,166,1
136469,7255,-583,5092,-87,38,164,1
136474,6138,-1085,4624,-90,66,162,1
136479,4460,-1629,4238,-96,79,165,1
136484,4628,-2178,5132,-96,103,162,1
136489,6037,-2574,6021,-96,132,157,1
136494,7514,-2754,6999,-92,124,146,1
136499,8781,-2784,6991,-90,97,134,1
136504,9223,-2844,6691,-87,76,123,1
136509,8569,-2942,6119,-86,77,115,1
136514,7997,-3068,6218,-84,92,107,1
136519,8131,-3136,6797,-82,104,99,1
136524,9143,-3139,7784,-76,98,89,1
136529,10177,-3076,8446,-69,73,77,1
136534,11063,-2996,8665,-62,46,64,1
136539,11244,-2888,8473,-56,26,53,1
136544,10961,-2764,8285,-51,17,44,1
136549,10745,-2610,8378,-45,13,36,1
136554,10958,-2403,8797,-38,6,29,1
136559,11627,-2161,9257,-30,-6,22,1
136564,12306,-1912,9529,-22,-21,14,1
136569,12840,-1691,9503,-14,-31,6,1
136574,12916,-1517,9236,-8,-36,-1,1
136579,12678,-1386,9033,-2,-35,-6,1
136584,12406,-1274,9074,3,-32,-10,1
136589,12364,-1186,9339,9,-31,-14,1
136594,12587,-1143,9639,14,-33,-18,1
136599,12870,-1136,9752,20,-38,-23,1
136604,12961,-1172,9631,24,-45,-28,1
136609,12790,-1251,9407,27,-52,-32,1
136614,12424,-1351,9243,29,-57,-35,1
136619,12049,-1449,9215,31,-59,-37,1
136624,11837,-1538,9305,32,-59,-39,1
136629,11784,-1607,9370,34,-59,-42,1
136634,11765,-1653,9297,35,-63,-44,1
136639,11662,-1661,9080,35,-68,-47,1
136644,11433,-1628,8773,35,-70,-48,1
136649,11127,-1546,8492,35,-69,-49,1
136654,10864,-1422,8310,34,-68,-50,1
136659,10665,-1256,8206,34,-67,-50,1
136664,10523,-1050,8071,33,-68,-50,1
136669,10425,-811,7832,33,-69,-51,1
136674,10289,-559,7482,33,-73,-50,1
136679,10128,-301,7050,33,-75,-50,1
136684,9970,-48,6661,32,-76,-49,1
136689,9833,191,6347,31,-75,-48,1
136694,9713,407,6086,31,-77,-47,1
136699,9579,593,5869,31,-83,-46,1
136704,9364,751,5658,31,-91,-46,1
136709,9094,892,5421,30,-97,-45,1
136714,8818,1012,5185,29,-99,-45,1
136719,8585,1113,4954,28,-101,-44,1
136724,8419,1198,4714,27,-105,-44,1
136729,8294,1271,4495,26,-111,-44,1
136734,8169,1339,4288,24,-118,-44,1
136739,8048,1427,4099,23,-127,-45,1
136744,7953,1541,3945,22,-142,-45,1
136749,7841,1674,3803,20,-168,-45,1
136754,7728,1839,3621,19,-191,-45,1
136759,7653,2058,3418,18,-208,-46,1
136764,7624,2307,3161,16,-224,-46,1
136769,7588,2456,2906,14,-241,-46,1
136774,7576,2484,2643,12,-256,-46,1
136779,7605,2424,2408,10,-266,-46,1
136784,7665,2345,2172,8,-273,-45,1
136789,7709,2274,1912,7,-276,-44,1
136794,7994,2206,1285,6,-274,-42,1
136799,7855,2107,1036,5,-273,-41,1
136804,7682,2032,704,1,-284,-43,1
136809,7304,1929,509,-1,-277,-42,1
136814,6971,1799,405,-2,-258,-41,1
136819,6789,1706,124,-4,-235,-40,1
136824,6779,1653,-157,-6,-217,-39,1
136829,6833,1659,-528,-8,-202,-39,1
136834,6906,1707,-896,-10,-193,-38,1
136839,6913,1763,-1263,-12,-186,-37,1
136844,6833,1794,-1572,-15,-179,-36,1
136849,6672,1784,-1770,-18,-166,-35,1
136854,6555,1746,-1800,-20,-149,-34,1
136859,6612,1674,-1651,-21,-131,-33,1
136864,6727,1589,-1546,-23,-119,-32,1
136869,6860,1532,-1566,-25,-118,-31,1
136874,6924,1524,-1732,-27,-125,-30,1
136879,6855,1551,-2007,-29,-135,-29,1
136884,6713,1581,-2283,-31,-141,-28,1
136889,6514,1579,-2521,-33,-142,-26,1
136894,6315,1532,-2699,-34,-138,-24,1
136899,6186,1447,-2815,-36,-134,-22,1
136904,6089,1330,-2903,-38,-135,-20,1
136909,6047,1295,-2975,-39,-145,-19,1
136914,6066,1316,-3028,-40,-156,-17,1
136919,6091,1296,-3070,-41,-168,-15,1
136924,6036,1265,-3114,-42,-183,-13,1
136929,5921,1268,-3161,-43,-197,-11,1
136934,5787,1323,-3254,-43,-206,-7,1
136939,5634,1399,-3399,-43,-207,-4,1
136944,5482,1462,-3562,-43,-203,-2,1
136949,5333,1514,-3675,-43,-197,1,1
136954,5257,1555,-3670,-43,-189,5,1
136958,5229,1614,-3597,-43,-179,8,1
136964,5188,1693,-3492,-43,-171,12,1
136968,5115,1767,-3379,-42,-167,14,1
136973,4972,1808,-3280,-42,-165,17,1
136979,4792,1819,-3182,-41,-161,20,1
136983,4651,1790,-3139,-40,-147,24,1
136989,4431,1703,-3108,-39,-122,28,1
136994,4183,1587,-3098,-37,-85,31,1
136998,3947,1505,-3071,-36,-31,35,1
137003,3723,1497,-2927,-34,38,38,1
137009,3664,1488,-2783,-35,103,40,1
137013,3886,1493,-2919,-38,153,41,1
137018,4538,1399,-3768,-33,191,46,1
137023,5038,1245,-4008,-30,209,49,1
137028,5462,1146,-4256,-30,196,50,1
137033,5689,1135,-4086,-29,170,52,1
137038,5680,1230,-3682,-27,145,54,1
137043,5698,1377,-3312,-24,127,56,1
137048,5779,1530,-3069,-20,117,58,1
137053,5964,1686,-3073,-18,102,59,1
137058,6128,1831,-3054,-16,79,59,1
137063,6327,1945,-2983,-14,51,58,1
137068,6204,2025,-2930,-11,29,61,1
137073,5950,2052,-2885,-8,12,64,1
137078,5882,2039,-2782,-4,-2,67,1
137083,6095,1997,-2634,-1,-6,68,1
137088,6611,1928,-2342,2,-4,69,1
137093,7106,1835,-1966,4,-1,71,1
137098,7234,1750,-1506,7,-4,70,1
137103,7078,1677,-1086,9,-11,69,1
137108,6610,1605,-776,11,-13,68,1
137113,6254,1532,-562,13,-9,68,1
137118,6169,1462,-502,15,4,68,1
137123,6473,1406,-543,18,16,68,1
137128,6875,1368,-701,21,20,66,1
137133,7219,1331,-804,24,15,64,1
137138,7415,1276,-867,26,7,63,1
137143,7575,1197,-842,30,0,62,1
137148,7700,1104,-817,33,-7,61,1
137153,7814,1003,-785,37,-13,59,1
137158,7878,892,-801,40,-16,57,1
137163,7973,772,-805,42,-18,55,1
137168,8072,645,-800,45,-17,54,1
137173,8245,508,-788,48,-16,52,1
137178,8428,371,-820,51,-15,50,1
137183,8614,231,-893,53,-15,48,1
137188,8766,80,-1034,56,-17,46,1
137193,8939,-92,-1179,59,-17,44,1
137198,9101,-277,-1296,61,-15,42,1
137203,9279,-453,-1360,64,-13,40,1
137208,9431,-606,-1401,66,-12,38,1
137213,9574,-747,-1429,69,-12,36,1
137218,9708,-886,-1475,71,-14,35,1
137223,9876,-1020,-1529,73,-16,32,1
137228,10044,-1150,-1596,75,-19,30,1
137233,10172,-1281,-1639,77,-23,28,1
137238,10208,-1406,-1649,79,-29,25,1
137243,10197,-1526,-1664,81,-34,22,1
137248,10175,-1640,-1693,83,-36,19,1
137253,10219,-1738,-1768,84,-37,16,1
137258,10317,-1817,-1887,86,-37,13,1
137263,10454,-1874,-2028,87,-35,10,1
137268,10545,-1917,-2175,89,-35,6,1
137273,10561,-1960,-2276,90,-35,3,1
137278,10515,-2005,-2333,91,-36,-1,1
137283,10473,-2045,-2382,92,-35,-4,1
137288,10486,-2074,-2472,93,-35,-7,1
137293,10573,-2093,-2638,94,-37,-11,1
137298,10697,-2120,-2864,94,-40,-14,1
137303,10780,-2167,-3062,95,-44,-18,1
137308,10773,-2225,-3182,95,-46,-21,1
137313,10687,-2273,-3253,95,-45,-25,1
137318,10585,-2294,-3346,95,-40,-28,1
137323,10533,-2300,-3513,95,-34,-31,1
137328,10544,-2300,-3767,95,-29,-35,1
137333,10591,-2297,-4081,94,-24,-38,1
137338,10629,-2281,-4425,94,-21,-41,1
137343,10609,-2241,-4789,93,-19,-45,1
137348,10525,-2208,-5142,92,-16,-48,1
137353,10428,-2215,-5533,90,-10,-51,1
137358,10349,-2255,-5961,88,-7,-53,1
137363,10279,-2289,-6273,85,-6,-55,1
137368,10224,-2304,-6353,82,-1,-58,1
137373,10255,-2320,-6204,81,8,-61,1
137378,10334,-2367,-6034,80,12,-63,1
137383,10435,-2435,-6161,78,7,-66,1
137388,10482,-2491,-6582,75,-3,-68,1
137393,10437,-2511,-7197,71,-15,-71,1
137398,10252,-2507,-7727,67,-24,-73,1
137403,10021,-2501,-8019,62,-28,-76,1
137408,9840,-2493,-8140,57,-28,-77,1
137413,9819,-2484,-8201,52,-28,-78,1
137418,9945,-2463,-8287,48,-30,-80,1
137423,10122,-2438,-8473,43,-34,-82,1
137428,10191,-2407,-8693,38,-38,-84,1
137433,10058,-2367,-8883,32,-41,-86,1
137438,9757,-2309,-9035,26,-40,-87,1
137443,9451,-2214,-9210,21,-35,-88,1
137448,9258,-2080,-9473,15,-29,-89,1
137453,9165,-1930,-9791,10,-24,-90,1
137458,9108,-1799,-10032,4,-19,-92,1
137463,9005,-1681,-10087,-2,-15,-93,1
137468,8828,-1563,-9989,-8,-15,-95,1
137473,8637,-1432,-9854,-13,-16,-96,1
137478,8488,-1299,-9816,-18,-19,-97,1
137483,8376,-1167,-9901,-24,-23,-98,1
137488,8255,-1040,-10027,-30,-25,-99,1
137493,8092,-921,-10090,-35,-26,-100,1
137498,7895,-813,-10058,-41,-25,-101,1
137503,7722,-721,-9987,-45,-23,-101,1
137508,7607,-638,-9914,-50,-20,-102,1
137513,7544,-562,-9841,-54,-18,-102,1
137518,7491,-487,-9740,-59,-17,-103,1
137523,7382,-401,-9601,-63,-18,-103,1
137528,7209,-300,-9441,-66,-19,-104,1
137533,7002,-185,-9267,-70,-20,-104,1
137538,6815,-55,-9098,-73,-23,-104,1
137543,6682,88,-8936,-75,-26,-104,1
137548,6616,237,-8790,-78,-31,-103,1
137553,6579,379,-8650,-80,-34,-103,1
137558,6512,510,-8485,-83,-36,-103,1
137563,6390,628,-8273,-85,-35,-102,1
137568,6218,723,-8021,-86,-33,-101,1
137573,6032,794,-7762,-88,-31,-100,1
137578,5874,844,-7521,-90,-29,-99,1
137583,5767,886,-7297,-91,-26,-97,1
137588,5693,933,-7063,-92,-24,-96,1
137593,5618,1005,-6809,-94,-25,-95,1
137598,5503,1099,-6538,-95,-27,-93,1
137603,5359,1183,-6274,-95,-29,-92,1
137608,5207,1234,-6032,-96,-31,-90,1
137613,5065,1262,-5805,-96,-33,-88,1
137618,4926,1310,-5592,-97,-34,-86,1
137623,4764,1380,-5441,-96,-34,-84,1
137628,4548,1466,-5329,-96,-31,-82,1
137633,4351,1558,-5108,-95,-26,-81,1
137638,4275,1730,-4880,-96,-16,-78,1
137643,4142,1893,-4579,-95,3,-74,1
137648,4013,2034,-4255,-93,20,-72,1
137653,3876,2142,-3972,-92,33,-72,1
137658,3722,2227,-3715,-91,46,-70,1
137663,3502,2310,-3505,-89,61,-69,1
137668,3240,2373,-3189,-87,78,-68,1
137673,3039,2438,-2985,-87,92,-68,1
137678,2931,2497,-2837,-87,109,-68,1
137683,2858,2546,-2626,-85,127,-67,1
137688,3049,2619,-2626,-83,141,-66,1
137693,3427,2650,-2818,-78,153,-63,1
137698,3644,2669,-2898,-74,156,-63,1
137702,3827,2700,-3014,-72,142,-63,1
137707,3838,2733,-2977,-69,124,-62,1
137712,3793,2795,-2920,-65,105,-60,1
137717,3775,2812,-2847,-62,93,-58,1
137722,3866,2799,-2764,-58,82,-56,1
137727,3964,2781,-2672,-56,67,-54,1
137732,3997,2792,-2495,-54,50,-52,1
137737,3981,2833,-2231,-52,35,-50,1
137742,3923,2920,-1915,-50,27,-47,1
137747,3854,3049,-1620,-48,23,-44,1
137752,3768,3209,-1385,-47,22,-41,1
137757,3657,3373,-1238,-45,25,-38,1
137762,3524,3526,-1163,-44,29,-35,1
137767,3383,3674,-1139,-42,32,-32,1
137772,3250,3820,-1136,-41,35,-29,1
137777,3141,3958,-1138,-39,36,-26,1
137782,3052,4085,-1146,-37,33,-23,1
137787,2953,4196,-1137,-34,25,-20,1
137792,2811,4287,-1101,-33,16,-17,1
137797,2633,4365,-1036,-31,7,-15,1
137802,2450,4434,-948,-29,2,-12,1
137807,2308,4491,-849,-28,-1,-9,1
137812,2206,4536,-756,-26,-4,-6,1
137817,2126,4581,-681,-25,-9,-3,1
137822,2051,4624,-631,-23,-17,0,1
137827,1925,4662,-583,-22,-24,3,1
137832,1769,4690,-543,-20,-26,6,1
137837,1626,4726,-510,-19,-21,9,1
137842,1528,4755,-480,-18,-13,12,1
137847,1458,4785,-464,-16,-7,16,1
137852,1414,4825,-455,-15,-3,19,1
137857,1298,4867,-437,-14,-1,21,1
137862,1152,4897,-418,-12,0,24,1
137867,989,4914,-400,-11,2,28,1
137872,889,4929,-398,-9,4,31,1
137877,853,4946,-415,-8,5,34,1
137882,840,4965,-439,-6,2,37,1
137887,779,4996,-429,-5,-2,40,1
137892,687,5029,-390,-3,-5,43,1
137897,569,5060,-323,-2,-6,47,1
137902,512,5112,-259,0,-4,50,1
137907,519,5173,-207,2,-3,54,1
137912,594,5229,-186,4,-3,58,1
137917,635,5277,-143,5,-3,62,1
137922,623,5320,-92,7,-1,66,1
137927,603,5364,-6,9,6,71,1
137932,629,5402,101,12,12,77,1
137937,711,5438,192,14,13,82,1
137942,809,5488,243,17,14,87,1
137947,928,5541,248,21,14,93,1
137952,1036,5588,227,24,12,99,1
137957,1205,5630,174,28,7,105,1
137962,1418,5674,97,32,4,112,1
137967,1705,5720,-24,37,8,119,1
137972,2055,5754,-163,42,24,126,1
137977,2448,5749,-309,46,44,134,1
137982,2832,5669,-437,50,64,141,1
137987,3244,5477,-539,54,83,149,1
137992,3728,5174,-612,57,95,157,1
137997,4281,4795,-681,60,95,163,1
138002,4866,4339,-745,63,85,169,1
138007,5438,3815,-779,65,64,174,1
138012,6165,3262,-692,67,44,177,1
138017,7624,2771,-604,70,31,181,1
138022,8732,2302,-935,74,22,187,1
138027,8774,1733,-1317,77,-3,182,1
138032,7688,1136,-1506,75,6,177,1
138037,7039,516,-1714,71,56,174,1
138042,5717,-178,-1621,65,98,176,1
138047,5928,-935,-846,62,123,175,1
138052,7148,-1566,-631,58,149,172,1
138057,8466,-1996,-593,54,130,162,1
138062,9597,-2271,-1022,50,108,152,1
138067,10108,-2515,-1539,44,90,140,1
138072,9734,-2784,-1940,38,88,131,1
138077,9370,-3046,-2048,32,93,122,1
138082,9595,-3269,-1901,26,92,113,1
138087,10564,-3387,-1756,22,73,101,1
138092,11395,-3370,-1802,18,39,87,1
138097,12107,-3268,-2149,14,4,72,1
138102,12496,-3155,-2644,10,-15,59,1
138107,12448,-3022,-3088,6,-18,47,1
138112,12460,-2837,-3343,2,-13,38,1
138117,12903,-2616,-3428,-2,-11,28,1
138122,13400,-2354,-3473,-5,-21,18,1
138127,13826,-2069,-3571,-7,-38,7,1
138132,14191,-1793,-3771,-9,-52,-3,1
138137,14225,-1502,-4047,-11,-60,-11,1
138142,14105,-1197,-4311,-13,-62,-18,1
138147,14134,-877,-4498,-15,-61,-23,1
138152,14405,-529,-4618,-17,-62,-28,1
138157,14688,-187,-4678,-19,-68,-33,1
138162,14930,134,-4686,-20,-75,-38,1
138167,14849,440,-4676,-21,-82,-42,1
138172,14504,729,-4659,-23,-86,-44,1
