millis,ax,ay,az,gx,gy,gz,label
473785,-7641,0,-1335,-2,-5,-3,0
473790,-7645,4,-1322,-2,-4,-2,1
473795,-7652,5,-1307,-2,-4,-2,1
473800,-7665,3,-1299,-2,-2,-2,1
473805,-7679,6,-1296,-2,-1,-2,1
473810,-7695,10,-1297,-2,1,-2,1
473815,-7710,15,-1298,-1,2,-2,1
473820,-7721,21,-1297,-1,3,-2,1
473825,-7726,31,-1299,-1,5,-2,1
473830,-7722,35,-1303,-1,5,-2,1
473835,-7722,45,-1310,-1,5,-2,1
473840,-7719,56,-1322,-1,5,-2,1
473845,-7713,63,-1342,-1,5,-1,1
473850,-7707,70,-1365,-1,4,-1,1
473855,-7708,76,-1378,-1,2,-1,1
473860,-7710,84,-1391,-1,1,-1,1
473865,-7708,95,-1404,-1,-1,-1,1
473870,-7708,103,-1421,-1,-2,-1,1
473875,-7705,103,-1435,0,-2,-1,1
473880,-7700,100,-1444,0,-3,-1,1
473885,-7694,93,-1452,0,-4,-1,1
473890,-7691,89,-1449,0,-4,-1,1
473895,-7687,83,-1440,0,-4,-1,1
473900,-7681,75,-1428,0,-3,-1,1
473905,-7673,68,-1408,0,-2,-1,1
473910,-7661,59,-1385,0,-1,-1,1
473915,-7647,48,-1362,0,0,-1,1
473920,-7630,35,-1334,0,1,0,1
473925,-7614,19,-1311,0,1,0,1
473930,-7602,5,-1296,0,2,0,1
473935,-7594,-4,-1288,0,2,0,1
473940,-7586,-11,-1272,0,3,0,1
473945,-7581,-15,-1262,0,3,0,1
473950,-7580,-16,-1256,0,3,0,1
473955,-7588,-13,-1257,0,2,0,1
473960,-7601,-7,-1266,0,2,0,1
473965,-7617,-2,-1277,0,2,-1,1
473970,-7634,8,-1291,0,3,-1,1
473975,-7637,22,-1302,0,3,-1,1
473980,-7631,36,-1309,0,3,-1,1
473985,-7616,51,-1321,-1,2,-1,1
473990,-7596,69,-1334,-1,2,-1,1
473995,-7572,84,-1347,-1,0,-1,1
474000,-7545,101,-1358,-1,-1,-2,1
474005,-7516,119,-1370,-1,-2,-2,1
474010,-7491,136,-1378,-1,-3,-2,1
474015,-7472,150,-1378,-1,-3,-2,1
474020,-7458,161,-1377,-1,-3,-2,1
474025,-7449,168,-1380,-2,-2,-2,1
474030,-7451,172,-1382,-2,-1,-2,1
474035,-7458,173,-1388,-2,0,-2,1
474040,-7463,170,-1397,-2,0,-2,1
474045,-7464,168,-1404,-2,1,-2,1
474050,-7470,164,-1417,-2,1,-2,1
474055,-7480,161,-1436,-2,1,-2,1
474060,-7491,157,-1454,-2,1,-2,1
474065,-7504,153,-1472,-2,1,-2,1
474070,-7518,151,-1486,-2,1,-2,1
474075,-7529,153,-1499,-2,1,-2,1
474080,-7537,158,-1510,-2,0,-2,1
474085,-7541,163,-1519,-2,0,-3,1
474090,-7550,169,-1525,-2,-1,-3,1
474095,-7557,171,-1533,-2,-2,-3,1
474100,-7562,171,-1539,-2,-3,-3,1
474105,-7570,170,-1535,-2,-3,-3,1
474110,-7577,169,-1529,-2,-3,-3,1
474115,-7581,163,-1517,-2,-3,-3,1
474120,-7581,157,-1501,-2,-3,-3,1
474125,-7579,148,-1483,-2,-3,-3,1
474130,-7576,138,-1458,-2,-2,-3,1
474135,-7574,128,-1444,-1,-2,-3,1
474140,-7571,119,-1426,-1,-2,-3,1
474145,-7571,110,-1412,-1,-2,-2,1
474150,-7579,101,-1395,-1,-1,-2,1
474155,-7595,97,-1379,-1,-1,-2,1
474160,-7615,96,-1368,-1,1,-2,1
474165,-7632,95,-1364,-1,2,-2,1
474170,-7640,100,-1362,-1,4,-2,1
474175,-7645,108,-1362,-1,5,-2,1
474180,-7644,114,-1361,0,6,-2,1
474185,-7638,117,-1362,0,7,-2,1
474189,-7630,118,-1366,0,7,-2,1
474195,-7622,120,-1369,0,7,-2,1
474200,-7612,125,-1374,0,7,-2,1
474205,-7607,127,-1380,0,8,-2,1
474210,-7599,129,-1394,0,8,-1,1
474215,-7590,127,-1404,0,7,-1,1
474219,-7579,123,-1417,0,7,-1,1
474224,-7568,116,-1428,0,7,-1,1
474230,-7559,106,-1440,0,7,-1,1
474234,-7554,93,-1449,0,6,-1,1
474240,-7548,82,-1452,0,5,-1,1
474244,-7538,68,-1457,0,4,-1,1
474250,-7532,58,-1456,0,4,-1,1
474255,-7532,52,-1457,0,3,-1,1
474259,-7536,50,-1461,0,3,-1,1
474265,-7540,48,-1466,0,2,-1,1
474269,-7546,49,-1476,0,3,-1,1
474274,-7557,56,-1485,0,3,-1,1
474280,-7569,63,-1495,0,3,-1,1
474284,-7572,70,-1503,0,4,-1,1
474289,-7570,76,-1507,0,5,-2,1
474295,-7563,83,-1515,0,5,-2,1
474299,-7550,88,-1525,0,5,-1,1
474304,-7540,91,-1539,0,4,-1,1
474309,-7529,90,-1554,0,4,-1,1
474314,-7522,90,-1568,-1,3,-1,1
474319,-7525,92,-1584,-1,3,-1,1
474324,-7528,96,-1597,-1,2,-1,1
474329,-7528,97,-1615,-1,1,-1,1
474334,-7531,98,-1631,-1,1,-2,1
474339,-7530,105,-1645,-1,0,-2,1
474344,-7529,110,-1657,-1,-2,-2,1
474349,-7529,114,-1667,-1,-3,-2,1
474354,-7535,116,-1679,-2,-4,-2,1
474359,-7545,117,-1689,-2,-5,-2,1
474364,-7558,116,-1695,-2,-5,-2,1
474369,-7570,115,-1692,-2,-4,-2,1
474374,-7576,115,-1695,-2,-3,-2,1
474379,-7572,115,-1691,-2,-1,-2,1
474384,-7566,114,-1689,-2,0,-2,1
474389,-7556,115,-1682,-2,1,-2,1
474394,-7542,114,-1677,-2,1,-2,1
474399,-7534,114,-1678,-2,1,-2,1
474404,-7528,113,-1686,-2,1,-2,1
474409,-7524,112,-1695,-2,1,-2,1
474414,-7520,110,-1709,-2,1,-2,1
474419,-7516,109,-1720,-2,1,-2,1
474424,-7515,109,-1723,-2,1,-2,1
474429,-7515,109,-1727,-2,0,-2,1
474434,-7517,109,-1730,-2,0,-2,1
474439,-7518,112,-1729,-2,-1,-2,1
474444,-7521,116,-1728,-2,-1,-2,1
474449,-7524,119,-1725,-2,-1,-2,1
474454,-7525,124,-1714,-2,-1,-2,1
474459,-7522,125,-1704,-2,-1,-2,1
474464,-7514,129,-1697,-2,-1,-2,1
474469,-7508,131,-1690,-2,-1,-2,1
474474,-7507,133,-1679,-1,-1,-3,1
474479,-7507,132,-1663,-1,-1,-3,1
474484,-7501,126,-1654,-1,-1,-3,1
474489,-7495,118,-1648,-1,-1,-3,1
474494,-7488,104,-1636,-1,-1,-3,1
474499,-7488,90,-1624,-1,0,-3,1
474504,-7493,75,-1615,-1,0,-3,1
474509,-7500,55,-1610,-1,0,-3,1
474514,-7509,33,-1602,-1,0,-3,1
474519,-7517,12,-1596,-1,0,-3,1
474524,-7529,-6,-1596,-1,0,-2,1
474529,-7541,-21,-1590,-1,0,-3,1
474534,-7549,-32,-1590,-1,0,-2,1
474539,-7554,-40,-1591,-1,0,-2,1
474544,-7557,-42,-1595,-1,0,-2,1
474549,-7560,-40,-1603,-1,0,-2,1
474554,-7559,-34,-1621,-1,-1,-2,1
474559,-7557,-24,-1631,0,-1,-2,1
474564,-7556,-10,-1641,0,-1,-2,1
474569,-7552,5,-1648,0,-2,-2,1
474574,-7549,21,-1656,0,-2,-2,1
474579,-7549,40,-1666,0,-2,-2,1
474584,-7550,58,-1674,0,-2,-2,1
474589,-7549,77,-1677,0,-2,-1,1
474594,-7547,93,-1685,0,-2,-1,1
474599,-7545,102,-1687,0,-1,-1,1
474604,-7543,115,-1686,0,-1,-1,1
474609,-7537,126,-1686,0,-1,-1,1
474614,-7534,132,-1684,0,-2,-1,1
474619,-7532,138,-1682,0,-2,-1,1
474624,-7533,144,-1682,0,-2,-1,1
474629,-7542,149,-1686,0,-2,-1,1
474634,-7553,155,-1678,0,-2,-1,1
474639,-7559,157,-1677,0,-2,-1,1
474644,-7558,162,-1676,0,-1,-1,1
474649,-7553,166,-1678,0,0,-1,1
474654,-7547,172,-1675,0,0,-1,1
474659,-7535,177,-1668,0,1,-1,1
474664,-7524,180,-1667,0,1,-1,1
474669,-7511,186,-1676,0,1,-1,1
474674,-7495,193,-1686,-1,1,-1,1
474679,-7483,199,-1698,-1,1,-2,1
474684,-7469,205,-1707,-1,1,-2,1
474689,-7456,207,-1718,-1,0,-2,1
474694,-7450,207,-1733,-1,0,-2,1
474699,-7445,205,-1748,-1,0,-2,1
474704,-7444,202,-1763,-1,-1,-2,1
474709,-7444,197,-1775,-1,-1,-2,1
474714,-7447,185,-1786,-1,-1,-2,1
474719,-7450,172,-1793,-1,-1,-2,1
474724,-7453,158,-1798,-1,-1,-2,1
474729,-7458,140,-1801,-1,-1,-3,1
474734,-7463,124,-1804,-1,-1,-3,1
474739,-7467,109,-1803,-1,-1,-3,1
474744,-7471,94,-1803,-1,0,-3,1
474749,-7476,78,-1805,-1,0,-3,1
474754,-7477,62,-1808,-1,0,-3,1
474759,-7475,47,-1807,-1,0,-3,1
474764,-7471,30,-1799,-1,0,-3,1
474769,-7470,16,-1791,-1,1,-3,1
474774,-7470,6,-1785,-1,0,-3,1
474779,-7473,-3,-1776,-1,0,-3,1
474784,-7480,-6,-1769,-1,-1,-3,1
474789,-7490,-10,-1770,-1,-1,-3,1
474794,-7503,-12,-1773,-1,-1,-3,1
474799,-7520,-12,-1782,-1,-2,-3,1
474804,-7538,-14,-1788,-1,-2,-3,1
474809,-7554,-16,-1791,-1,-3,-2,1
474814,-7569,-17,-1787,-1,-4,-2,1
474819,-7583,-18,-1778,-1,-5,-2,1
474824,-7594,-18,-1767,-1,-5,-2,1
474829,-7602,-15,-1754,-1,-6,-2,1
474834,-7609,-9,-1741,-1,-7,-2,1
474839,-7614,-3,-1728,-1,-7,-2,1
474844,-7618,5,-1716,-1,-7,-2,1
474849,-7621,14,-1700,-1,-6,-2,1
474854,-7624,22,-1687,-1,-6,-2,1
474859,-7625,30,-1679,-1,-5,-2,1
474864,-7620,34,-1675,-1,-4,-2,1
474869,-7611,37,-1670,-1,-3,-1,1
474874,-7605,37,-1664,-1,-2,-1,1
474879,-7599,37,-1658,-1,-2,-1,1
474884,-7592,39,-1656,-1,-2,-1,1
474889,-7586,38,-1653,-1,-2,-1,1
474894,-7578,39,-1651,-1,-3,-1,1
474899,-7572,45,-1652,-1,-3,-1,1
474904,-7567,50,-1654,-1,-4,-1,1
474909,-7563,54,-1650,-1,-4,-1,1
474914,-7563,60,-1642,-1,-5,-1,1
474919,-7564,67,-1638,-1,-5,-1,1
474924,-7570,74,-1630,0,-5,-1,1
474929,-7571,82,-1620,0,-4,-1,1
474934,-7571,90,-1613,0,-4,-1,1
474939,-7570,96,-1607,0,-3,-1,1
474944,-7568,107,-1605,0,-2,-1,1
474949,-7560,115,-1604,0,-1,-1,1
474954,-7551,121,-1605,0,-1,-1,1
474959,-7543,124,-1600,0,0,-1,1
474964,-7532,128,-1598,0,0,-1,1
474969,-7523,136,-1596,0,0,-1,1
474974,-7513,141,-1600,0,0,-1,1
474979,-7504,145,-1604,0,1,-1,1
474984,-7494,153,-1616,-1,1,-1,1
474989,-7487,157,-1622,-1,1,-1,1
474994,-7478,164,-1625,-1,1,-1,1
474999,-7471,170,-1627,-1,1,-1,1
475004,-7464,175,-1629,-1,1,-1,1
475009,-7457,180,-1635,-1,1,-1,1
475014,-7451,186,-1646,-1,1,-2,1
475019,-7446,193,-1657,-1,1,-2,1
475024,-7439,197,-1666,-1,1,-2,1
475029,-7435,199,-1676,-1,0,-2,1
475034,-7432,204,-1685,-1,0,-2,1
475039,-7424,207,-1689,-1,-1,-2,1
475044,-7414,212,-1689,-1,-2,-2,1
475049,-7403,209,-1690,-1,-3,-3,1
475054,-7393,203,-1688,-1,-4,-3,1
475059,-7385,196,-1686,-1,-5,-3,1
475064,-7380,189,-1683,-1,-6,-3,1
475069,-7383,180,-1679,-1,-6,-3,1
475074,-7391,171,-1679,-2,-6,-3,1
475079,-7405,166,-1680,-2,-6,-3,1
475084,-7425,162,-1680,-2,-5,-3,1
475089,-7450,153,-1687,-2,-5,-3,1
475094,-7476,148,-1691,-2,-4,-3,1
475099,-7498,146,-1695,-2,-4,-3,1
475104,-7516,146,-1699,-2,-3,-3,1
475109,-7526,143,-1707,-2,-3,-3,1
475114,-7538,142,-1709,-2,-2,-3,1
475119,-7547,145,-1717,-2,-2,-3,1
475124,-7550,147,-1718,-2,-2,-3,1
475129,-7549,150,-1719,-2,-2,-3,1
475134,-7545,151,-1723,-2,-2,-3,1
475139,-7540,152,-1726,-2,-2,-3,1
475144,-7536,152,-1723,-2,-2,-3,1
475149,-7534,150,-1725,-2,-2,-3,1
475154,-7532,149,-1723,-2,-2,-3,1
475159,-7534,147,-1719,-2,-2,-3,1
475164,-7536,143,-1715,-2,-2,-3,1
475169,-7536,136,-1703,-2,-2,-3,1
475174,-7537,124,-1694,-2,-3,-3,1
475179,-7544,112,-1690,-2,-3,-3,1
475184,-7549,103,-1687,-1,-3,-3,1
475189,-7556,93,-1682,-1,-3,-3,1
475194,-7561,88,-1677,-1,-3,-2,1
475199,-7565,83,-1666,-1,-3,-2,1
475204,-7568,74,-1656,-1,-3,-2,1
475209,-7573,59,-1645,-1,-3,-2,1
475214,-7576,43,-1631,-1,-2,-2,1
475219,-7582,28,-1621,-1,-2,-2,1
475224,-7587,11,-1610,-1,-1,-2,1
475228,-7589,-5,-1608,-1,-1,-2,1
475233,-7591,-18,-1605,-1,0,-2,1
475239,-7593,-28,-1599,-1,0,-2,1
475244,-7593,-35,-1594,0,0,-2,1
475249,-7591,-40,-1593,0,1,-2,1
475254,-7589,-46,-1593,0,1,-2,1
475259,-7586,-47,-1590,0,1,-2,1
475264,-7579,-49,-1589,0,0,-2,1
475269,-7570,-49,-1585,0,0,-2,1
475274,-7559,-48,-1585,0,-1,-2,1
475278,-7553,-45,-1584,0,-1,-2,1
475284,-7546,-38,-1581,0,-2,-2,1
475289,-7544,-33,-1578,0,-2,-1,1
475293,-7541,-23,-1581,0,-3,-2,1
475299,-7541,-14,-1587,0,-3,-2,1
475303,-7544,-1,-1594,0,-2,-2,1
475308,-7548,13,-1595,0,-2,-2,1
475313,-7549,27,-1602,0,-1,-2,1
475318,-7548,41,-1614,0,-1,-2,1
475323,-7541,52,-1621,0,-1,-2,1
475328,-7537,63,-1628,0,-1,-2,1
475334,-7535,75,-1634,0,-1,-2,1
475338,-7537,86,-1639,0,-1,-2,1
475343,-7540,97,-1646,0,-1,-2,1
475348,-7545,109,-1651,0,-1,-2,1
475353,-7545,116,-1655,0,-1,-2,1
475358,-7545,125,-1662,0,-1,-2,1
475363,-7544,131,-1670,0,-1,-1,1
475368,-7546,137,-1676,-1,-1,-1,1
475373,-7544,143,-1677,-1,-1,-1,1
475378,-7546,143,-1686,-1,-2,-2,1
475383,-7547,147,-1691,-1,-2,-2,1
475388,-7545,152,-1696,-1,-2,-2,1
475393,-7539,159,-1705,-1,-2,-2,1
475398,-7534,168,-1717,-1,-2,-2,1
475403,-7531,179,-1725,-1,-2,-2,1
475408,-7526,188,-1732,-1,-3,-2,1
475413,-7520,192,-1743,-1,-3,-2,1
475418,-7514,196,-1741,-1,-4,-2,1
475423,-7511,197,-1740,-1,-4,-2,1
475428,-7507,197,-1738,-1,-4,-2,1
475433,-7502,196,-1733,-1,-4,-2,1
475438,-7500,193,-1728,-1,-3,-2,1
475443,-7501,192,-1727,-2,-3,-2,1
475448,-7504,188,-1731,-2,-3,-2,1
475453,-7506,181,-1738,-2,-2,-2,1
475458,-7512,177,-1746,-2,-1,-2,1
475463,-7520,167,-1747,-2,-1,-2,1
475468,-7529,161,-1748,-2,0,-2,1
475473,-7533,155,-1752,-2,1,-2,1
475478,-7532,148,-1756,-2,2,-2,1
475483,-7525,142,-1765,-2,2,-2,1
475488,-7521,135,-1768,-2,1,-2,1
475493,-7516,128,-1773,-2,1,-2,1
475498,-7511,121,-1779,-2,0,-2,1
475503,-7505,115,-1780,-2,0,-2,1
475508,-7500,110,-1776,-2,-1,-2,1
475513,-7492,108,-1773,-2,-1,-2,1
475518,-7485,107,-1765,-2,-1,-2,1
475523,-7478,106,-1756,-2,-2,-2,1
475528,-7474,104,-1750,-2,-2,-2,1
475533,-7471,100,-1739,-2,-2,-3,1
475538,-7470,97,-1733,-2,-3,-3,1
475543,-7469,92,-1724,-2,-3,-3,1
475548,-7472,85,-1716,-2,-3,-3,1
475553,-7474,82,-1712,-2,-3,-3,1
475558,-7477,74,-1707,-2,-4,-3,1
475563,-7480,65,-1702,-2,-4,-3,1
475568,-7485,53,-1693,-2,-4,-3,1
475573,-7495,44,-1675,-1,-5,-3,1
475578,-7502,36,-1658,-1,-4,-3,1
475583,-7512,24,-1645,-1,-4,-3,1
475588,-7525,13,-1630,-1,-4,-3,1
475593,-7540,0,-1617,-1,-3,-3,1
475598,-7553,-10,-1607,-1,-2,-3,1
475603,-7562,-16,-1598,-1,-1,-2,1
475608,-7570,-19,-1588,-1,0,-2,1
475613,-7577,-20,-1578,-1,0,-2,1
475618,-7581,-21,-1580,-1,0,-2,1
475623,-7589,-17,-1581,-1,0,-2,1
475628,-7596,-15,-1589,0,0,-2,1
475633,-7605,-12,-1599,0,-1,-2,1
475638,-7611,-7,-1608,0,-1,-2,1
475643,-7615,0,-1616,0,-1,-2,1
475648,-7617,4,-1618,0,-2,-2,1
475653,-7617,13,-1610,0,-2,-1,1
475658,-7617,20,-1606,0,-2,-1,1
475663,-7617,25,-1593,0,-1,-1,1
475668,-7612,31,-1584,0,-1,-1,1
475673,-7605,38,-1581,0,-1,-1,1
475678,-7595,49,-1580,0,-1,-1,1
475683,-7585,60,-1578,0,-1,-1,1
475688,-7579,65,-1580,0,-1,-1,1
475693,-7579,74,-1586,0,-1,-1,1
475698,-7578,80,-1594,0,-1,-1,1
475703,-7577,84,-1604,-1,0,-1,1
475708,-7577,92,-1609,-1,0,-1,1
475713,-7576,98,-1617,-1,0,-1,1
475718,-7575,105,-1627,-1,0,-1,1
475723,-7569,109,-1639,-1,0,-1,1
475728,-7562,111,-1650,-1,0,-1,1
475733,-7551,115,-1659,-1,0,-1,1
475738,-7540,121,-1666,-1,0,-1,1
475743,-7530,124,-1673,-1,-1,-1,1
475748,-7522,131,-1686,-1,-1,-1,1
475753,-7515,137,-1701,-1,-1,-1,1
475758,-7509,145,-1718,-1,-2,-1,1
475763,-7502,155,-1732,-1,-2,-1,1
475768,-7497,168,-1749,-1,-3,-1,1
475773,-7495,180,-1762,-1,-3,-1,1
475778,-7495,190,-1773,-1,-3,-1,1
475783,-7492,198,-1786,-1,-3,-1,1
475788,-7489,201,-1797,-2,-3,-1,1
475793,-7485,200,-1804,-2,-3,-1,1
475798,-7482,200,-1802,-2,-2,-2,1
475803,-7481,197,-1805,-2,-2,-1,1
475808,-7480,194,-1808,-2,-1,-1,1
475813,-7483,191,-1806,-2,0,-1,1
475818,-7487,186,-1807,-2,0,-1,1
475823,-7490,182,-1807,-2,1,-1,1
475828,-7494,175,-1811,-2,1,-2,1
475833,-7499,168,-1815,-2,1,-2,1
475838,-7503,162,-1818,-2,1,-2,1
475843,-7512,158,-1822,-2,1,-2,1
475848,-7520,153,-1828,-2,1,-2,1
475853,-7526,146,-1826,-2,1,-2,1
475858,-7530,141,-1823,-2,1,-2,1
475863,-7533,136,-1815,-2,1,-2,1
475868,-7535,129,-1803,-2,1,-2,1
475873,-7530,121,-1794,-2,0,-2,1
475878,-7524,115,-1782,-2,0,-2,1
475883,-7516,107,-1770,-2,-1,-2,1
475888,-7507,97,-1751,-2,-1,-2,1
475893,-7500,87,-1733,-2,-2,-2,1
475898,-7499,75,-1713,-2,-2,-2,1
475903,-7499,63,-1700,-2,-2,-2,1
475908,-7498,53,-1684,-2,-2,-2,1
475913,-7498,42,-1672,-2,-2,-2,1
475918,-7498,33,-1662,-2,-2,-2,1
475923,-7495,27,-1653,-2,-2,-2,1
475928,-7489,21,-1646,-2,-2,-2,1
475933,-7485,20,-1644,-2,-2,-2,1
475938,-7480,22,-1641,-2,-2,-2,1
475943,-7471,25,-1636,-1,-2,-2,1
475948,-7475,29,-1635,-1,-2,-2,1
475953,-7483,36,-1637,-1,-2,-2,1
475958,-7494,42,-1638,-1,-2,-2,1
475963,-7503,44,-1642,-1,-1,-2,1
475968,-7503,48,-1644,-1,0,-2,1
475973,-7501,49,-1643,-1,0,-2,1
475978,-7498,44,-1645,0,0,-2,1
475983,-7496,45,-1650,0,-1,-2,1
475988,-7495,45,-1652,0,-2,-2,1
475993,-7502,44,-1649,0,-3,-2,1
475998,-7508,43,-1646,0,-3,-2,1
476003,-7510,44,-1645,0,-3,-2,1
476008,-7508,46,-1639,0,-4,-2,1
476013,-7507,53,-1631,0,-4,-2,1
476018,-7509,60,-1631,0,-5,-2,1
476023,-7516,65,-1631,0,-5,-2,1
476028,-7527,73,-1632,0,-5,-2,1
476033,-7538,79,-1635,0,-5,-2,1
476038,-7547,85,-1638,0,-4,-2,1
476043,-7557,89,-1637,0,-4,-2,1
476048,-7560,96,-1639,0,-4,-1,1
476053,-7563,105,-1642,-1,-3,-2,1
476058,-7564,113,-1650,-1,-3,-1,1
476063,-7565,121,-1658,-1,-3,-2,1
476068,-7563,125,-1660,-1,-3,-2,1
476073,-7562,132,-1667,-1,-3,-1,1
476078,-7560,143,-1668,-1,-3,-1,1
476083,-7557,153,-1672,-1,-3,-1,1
476088,-7551,159,-1669,-1,-3,-1,1
476093,-7548,165,-1667,-1,-3,-1,1
476098,-7543,171,-1670,-1,-2,-2,1
476103,-7539,178,-1675,-1,-2,-1,1
476108,-7536,186,-1677,-1,-1,-1,1
476113,-7532,191,-1686,-1,-1,-1,1
476118,-7526,198,-1699,-1,-1,-1,1
476123,-7520,203,-1716,-1,-1,-2,1
476128,-7513,210,-1727,-1,-1,-2,1
476133,-7510,216,-1742,-1,-2,-1,1
476138,-7512,220,-1762,-2,-2,-1,1
476143,-7519,224,-1780,-2,-2,-1,1
476148,-7527,228,-1791,-2,-2,-1,1
476153,-7535,232,-1802,-2,-2,-2,1
476158,-7539,236,-1809,-2,-2,-1,1
476163,-7539,234,-1814,-2,-1,-1,1
476168,-7535,227,-1817,-2,0,-1,1
476173,-7534,219,-1819,-2,0,-2,1
476178,-7532,214,-1819,-2,1,-2,1
476183,-7531,205,-1816,-2,1,-2,1
476188,-7527,192,-1805,-2,2,-2,1
476193,-7524,179,-1794,-2,2,-2,1
476198,-7520,166,-1791,-2,2,-2,1
476203,-7516,152,-1787,-2,2,-2,1
476208,-7516,141,-1782,-2,1,-2,1
476213,-7517,130,-1784,-2,1,-2,1
476218,-7514,121,-1786,-2,1,-2,1
476223,-7509,115,-1784,-2,1,-2,1
476228,-7501,110,-1784,-2,0,-2,1
476233,-7493,107,-1781,-2,0,-2,1
476238,-7488,101,-1775,-2,-1,-2,1
476243,-7485,95,-1761,-2,-1,-2,1
476248,-7480,92,-1750,-2,-2,-2,1
476253,-7482,88,-1739,-2,-2,-2,1
476258,-7483,86,-1737,-2,-3,-2,1
476263,-7486,83,-1737,-2,-3,-2,1
476267,-7493,78,-1736,-2,-3,-2,1
476273,-7496,75,-1733,-1,-3,-2,1
476277,-7502,74,-1724,-1,-3,-2,1
476282,-7508,73,-1714,-1,-3,-2,1
476288,-7511,73,-1705,-1,-4,-2,1
476292,-7514,67,-1689,-1,-4,-2,1
476297,-7518,59,-1675,-1,-4,-2,1
476303,-7523,50,-1664,-1,-4,-2,1
476308,-7528,42,-1652,-1,-3,-2,1
476312,-7533,36,-1645,-1,-3,-2,1
476318,-7534,32,-1643,-1,-2,-2,1
476322,-7537,29,-1638,-1,-2,-2,1
476328,-7539,29,-1631,0,-2,-2,1
476332,-7540,27,-1626,0,-1,-2,1
476337,-7542,25,-1620,0,-1,-2,1
476342,-7538,27,-1619,0,-2,-2,1
476347,-7533,29,-1622,0,-2,-2,1
476352,-7529,32,-1623,0,-3,-2,1
476357,-7523,39,-1625,0,-4,-2,1
476362,-7519,43,-1624,0,-5,-2,1
476367,-7516,49,-1623,0,-5,-2,1
476372,-7515,59,-1618,0,-5,-2,1
476377,-7512,69,-1612,0,-5,-2,1
476382,-7510,82,-1607,0,-5,-2,1
476387,-7507,95,-1605,0,-4,-2,1
476392,-7507,108,-1603,0,-4,-2,1
476397,-7504,120,-1604,0,-3,-2,1
476402,-7503,133,-1605,0,-3,-2,1
476407,-7507,143,-1618,0,-2,-2,1
476412,-7511,153,-1626,0,-2,-2,1
476417,-7513,162,-1634,0,-2,-2,1
476422,-7516,168,-1634,0,-1,-2,1
476427,-7516,176,-1641,0,-1,-2,1
476432,-7514,183,-1646,0,-1,-2,1
476437,-7516,187,-1653,-1,-2,-2,1
476442,-7517,193,-1658,-1,-2,-2,1
476447,-7516,196,-1667,-1,-2,-2,1
476452,-7521,202,-1676,-1,-2,-2,1
476457,-7525,206,-1680,-1,-2,-2,1
476462,-7529,209,-1685,-1,-3,-2,1
476467,-7529,214,-1696,-1,-3,-2,1
476472,-7527,220,-1710,-1,-4,-2,1
476477,-7524,227,-1722,-1,-4,-2,1
476482,-7522,232,-1723,-1,-5,-2,1
476487,-7520,237,-1715,-1,-5,-2,1
476492,-7521,242,-1714,-2,-5,-2,1
476497,-7521,247,-1720,-2,-5,-2,1
476502,-7520,251,-1726,-2,-4,-2,1
476507,-7519,251,-1729,-2,-4,-2,1
476512,-7514,250,-1729,-2,-3,-2,1
476517,-7515,249,-1723,-2,-2,-2,1
476522,-7518,248,-1717,-2,-2,-2,1
476527,-7523,248,-1717,-2,-1,-2,1
476532,-7530,243,-1722,-2,-1,-2,1
476537,-7535,243,-1726,-2,-1,-2,1
476542,-7538,238,-1732,-2,-1,-2,1
476547,-7540,233,-1734,-2,-1,-2,1
476552,-7540,228,-1739,-2,-1,-2,1
476557,-7539,226,-1743,-2,-1,-2,1
476562,-7533,223,-1742,-2,-1,-2,1
476567,-7530,221,-1741,-2,-1,-2,1
476572,-7523,220,-1737,-2,-1,-2,1
476577,-7517,222,-1734,-2,-1,-2,1
476582,-7511,219,-1733,-2,-1,-2,1
476587,-7503,213,-1734,-2,-1,-2,1
476592,-7499,210,-1730,-2,-1,-2,1
476597,-7494,207,-1722,-2,-1,-2,1
476602,-7490,202,-1712,-2,-2,-2,1
476607,-7488,195,-1704,-2,-2,-3,1
476612,-7485,185,-1697,-2,-2,-3,1
476617,-7489,174,-1691,-2,-2,-3,1
476622,-7491,162,-1680,-2,-2,-3,1
476627,-7493,146,-1669,-2,-2,-3,1
476632,-7495,128,-1659,-2,-2,-3,1
476637,-7494,110,-1647,-2,-2,-3,1
476642,-7494,92,-1632,-2,-2,-3,1
476647,-7497,72,-1614,-1,-1,-2,1
476652,-7505,50,-1601,-1,-1,-3,1
476657,-7514,31,-1589,-1,0,-2,1
476662,-7523,15,-1586,-1,0,-2,1
476667,-7531,2,-1587,-1,0,-2,1
476672,-7537,-7,-1590,-1,1,-2,1
476677,-7544,-18,-1590,-1,1,-2,1
476682,-7551,-25,-1591,-1,0,-2,1
476687,-7560,-31,-1592,-1,0,-2,1
476692,-7568,-33,-1597,-1,-1,-2,1
476697,-7574,-31,-1603,-1,-1,-2,1
476702,-7577,-28,-1607,-1,-2,-2,1
476707,-7578,-22,-1611,0,-2,-2,1
476712,-7573,-15,-1602,0,-2,-2,1
476717,-7565,-5,-1599,0,-3,-2,1
476722,-7561,6,-1602,0,-3,-2,1
476727,-7555,21,-1605,-1,-3,-2,1
476732,-7549,36,-1609,-1,-3,-2,1
476737,-7540,49,-1609,-1,-3,-2,1
476742,-7531,65,-1607,-1,-3,-2,1
476747,-7523,78,-1611,-1,-3,-2,1
476752,-7520,95,-1619,-1,-4,-2,1
476757,-7521,107,-1624,-1,-4,-2,1
476762,-7524,122,-1634,-1,-4,-2,1
476767,-7532,139,-1642,-1,-4,-1,1
476772,-7538,155,-1648,-1,-4,-1,1
476777,-7547,170,-1658,-1,-4,-2,1
476782,-7553,186,-1667,-1,-3,-2,1
476787,-7557,202,-1669,-1,-2,-2,1
476792,-7554,217,-1675,-1,-2,-2,1
476797,-7547,230,-1679,-1,-1,-2,1
476802,-7538,240,-1681,-1,-1,-2,1
476807,-7528,248,-1684,-1,0,-2,1
476812,-7517,255,-1689,-1,0,-2,1
476817,-7508,261,-1697,-1,0,-2,1
476822,-7499,265,-1709,-1,-1,-2,1
476827,-7489,272,-1717,-1,-1,-2,1
476832,-7481,279,-1724,-1,-2,-2,1
476837,-7473,283,-1731,-1,-3,-2,1
476842,-7467,288,-1736,-1,-3,-2,1
476847,-7464,287,-1737,-1,-4,-2,1
476852,-7468,282,-1740,-1,-4,-2,1
476857,-7475,275,-1743,-1,-4,-2,1
476862,-7481,267,-1747,-1,-3,-2,1
476867,-7493,259,-1747,-1,-3,-2,1
476872,-7508,245,-1744,-2,-2,-2,1
476877,-7524,232,-1740,-2,-1,-2,1
476882,-7541,215,-1738,-2,0,-2,1
476887,-7556,198,-1744,-2,0,-2,1
476892,-7569,182,-1748,-2,1,-2,1
476897,-7582,164,-1757,-2,1,-2,1
476902,-7591,148,-1760,-2,1,-2,1
476907,-7598,134,-1763,-2,1,-3,1
476912,-7598,125,-1763,-2,0,-2,1
476917,-7596,119,-1764,-2,0,-2,1
476922,-7595,116,-1767,-2,-1,-3,1
476927,-7601,112,-1776,-2,-2,-2,1
476932,-7609,111,-1781,-2,-4,-2,1
476937,-7617,113,-1786,-2,-4,-3,1
476942,-7627,117,-1789,-2,-5,-2,1
476947,-7641,124,-1796,-2,-5,-3,1
476952,-7658,130,-1808,-2,-6,-3,1
476957,-7673,135,-1814,-1,-7,-3,1
476962,-7667,135,-1823,-1,-9,-3,1
476967,-7663,136,-1839,-1,-12,-3,1
476972,-7671,134,-1854,-1,-15,-3,1
476977,-7691,142,-1857,-1,-18,-3,1
476982,-7720,149,-1855,-1,-21,-3,1
476987,-7757,151,-1848,-1,-24,-3,1
476992,-7793,143,-1838,-1,-25,-3,1
476997,-7808,124,-1824,-1,-27,-2,1
477002,-7822,92,-1805,-1,-30,-2,1
477007,-7837,67,-1771,0,-34,-2,1
477012,-7846,43,-1771,0,-41,-2,1
477017,-7895,20,-1747,0,-48,-1,1
477022,-7973,5,-1689,0,-52,-1,1
477027,-8040,-7,-1639,0,-57,-1,1
477032,-8124,-15,-1593,0,-61,-1,1
477037,-8240,-16,-1534,0,-61,-1,1
477042,-8388,-11,-1456,0,-57,-1,1
477047,-8539,-4,-1360,0,-51,-1,1
477052,-8677,7,-1274,0,-43,-1,1
477057,-8811,21,-1203,-1,-32,-1,1
477062,-8934,42,-1167,-1,-21,-2,1
477067,-9026,65,-1155,-1,-8,-2,1
477072,-9052,86,-1156,-1,4,-2,1
477077,-9009,97,-1161,0,15,-3,1
477082,-8936,79,-1158,0,23,-3,1
477087,-8878,23,-1167,0,26,-3,1
477092,-8843,-65,-1208,1,29,-4,1
477097,-8846,-185,-1296,1,34,-4,1
477102,-8902,-320,-1451,2,46,-4,1
477107,-9080,-477,-1695,3,70,-4,1
477112,-9446,-659,-1839,4,111,-3,1
477117,-9905,-854,-1871,5,174,-3,1
477122,-10378,-1010,-1814,6,256,-2,1
477127,-10720,-1041,-1617,6,350,0,1
477132,-10799,-891,-1211,7,440,1,1
477137,-10629,-608,-526,5,504,2,1
477142,-10384,-364,-159,2,543,3,1
477147,-9475,-281,-419,3,582,6,1
477152,-8545,-248,-911,5,638,12,1
477157,-7656,-83,-1180,3,669,13,1
477162,-7218,192,-1420,1,682,14,1
477167,-7139,459,-1553,-1,686,16,1
477172,-7019,661,-1809,-3,689,19,1
477177,-6547,841,-2138,-6,695,21,1
477182,-5817,964,-2339,-8,689,22,1
477187,-4812,999,-2323,-9,675,21,1
477192,-3354,962,-2193,-9,672,26,1
477196,-1729,868,-2293,-10,668,30,1
477202,-21,747,-2646,-10,644,31,1
477207,1291,641,-3386,-11,604,32,1
477212,2188,627,-4125,-10,560,33,1
477216,2761,721,-4955,-9,513,34,1
477222,3251,900,-5816,-7,455,34,1
477227,3574,1102,-6899,-5,376,33,1
477231,3572,1285,-7869,-3,271,29,1
477237,3326,1471,-8545,1,155,22,1
477242,3006,1711,-8929,6,46,16,1
477247,1495,1987,-9160,11,-63,9,1
477251,-96,2211,-9168,19,-205,-3,1
477257,-1518,2337,-8737,26,-327,-10,1
477261,-2218,2300,-8630,31,-431,-19,1
477266,-1793,2064,-8662,34,-529,-29,1
477272,-653,1736,-8786,36,-638,-39,1
477277,741,1354,-8830,36,-760,-46,1
477281,1719,1058,-8625,36,-873,-52,1
477286,2241,881,-8530,34,-954,-57,1
477291,2296,734,-8571,32,-977,-60,1
477296,2084,552,-8694,29,-959,-61,1
477301,1640,272,-8899,27,-913,-59,1
477306,938,-121,-9110,25,-843,-55,1
477312,628,-594,-9374,24,-758,-51,1
477316,554,-1135,-9351,23,-661,-46,1
477321,226,-1666,-8851,22,-573,-42,1
477326,-274,-2077,-8146,21,-514,-41,1
477331,-508,-2254,-7120,22,-453,-35,1
477336,-372,-2305,-5273,21,-372,-24,1
477341,-511,-2256,-3019,13,-296,-18,1
477346,-698,-2196,-1592,7,-237,-15,1
477351,-1452,-2393,279,7,-165,-7,1
477356,-3044,-2577,2181,0,-93,-6,1
477361,-4807,-2686,3363,-4,-13,-3,1
477366,-5957,-2736,3929,-7,74,-1,1
477371,-6568,-2748,3506,-11,139,2,1
477376,-6664,-2736,2888,-16,183,5,1
477381,-6769,-2668,2453,-21,225,6,1
477386,-6955,-2493,2171,-25,260,4,1
477391,-7378,-2250,2170,-26,295,1,1
477396,-7307,-1850,1110,-27,336,1,1
477401,-6689,-1532,-324,-18,406,11,1
477406,-5758,-1265,-1544,-16,481,14,1
477411,-4471,-1007,-3249,-17,546,17,1
477416,-3694,-679,-4363,-18,591,19,1
477421,-3516,-272,-4950,-19,607,21,1
477426,-4144,281,-4911,-20,634,25,1
477431,-4847,926,-4756,-22,658,29,1
477436,-5119,1512,-4658,-25,680,31,1
477441,-4761,1924,-4558,-29,686,32,1
477446,-3997,2079,-4359,-31,678,32,1
477451,-2924,1972,-3986,-31,669,32,1
477456,-1702,1734,-3947,-33,670,33,1
477461,-464,1480,-4328,-34,673,34,1
477466,679,1299,-4981,-35,666,33,1
477471,1524,1201,-5553,-37,644,32,1
477476,2221,1151,-6034,-38,609,31,1
477481,2836,1119,-6518,-38,569,29,1
477486,3377,1078,-6980,-38,519,28,1
477491,3866,1017,-7437,-36,461,25,1
477496,4324,941,-7870,-34,401,21,1
477501,4836,849,-8214,-31,335,16,1
477506,5199,768,-8638,-28,262,15,1
477511,4377,726,-9531,-23,168,11,1
477516,3116,747,-10095,-17,31,2,1
477521,1941,858,-10316,-13,-93,-5,1
477526,988,969,-10136,-8,-202,-12,1
477531,585,1023,-9826,-4,-327,-22,1
477536,606,997,-9471,1,-463,-32,1
477541,917,896,-9199,3,-605,-42,1
477546,1295,711,-8958,4,-746,-50,1
477551,1648,453,-8818,5,-866,-57,1
477556,1782,226,-8766,4,-947,-61,1
477561,1764,95,-8882,3,-1010,-64,1
477566,1534,118,-9265,2,-1046,-64,1
477571,1092,332,-9964,2,-1035,-62,1
477576,417,667,-10881,3,-964,-57,1
477581,-281,956,-11667,5,-844,-49,1
477586,-892,1096,-12340,7,-699,-40,1
477591,-845,1066,-12600,9,-555,-33,1
477596,-139,925,-12700,10,-430,-27,1
477601,26,665,-11644,12,-341,-24,1
477606,-180,404,-9927,16,-293,-21,1
477611,-898,197,-8044,20,-234,-12,1
477616,-1455,113,-6512,20,-162,-4,1
477621,-1844,122,-5439,20,-94,2,1
477626,-2037,88,-4343,18,-52,6,1
477631,-2215,-8,-3253,11,-34,8,1
477636,-3111,-178,-1939,6,-32,7,1
477641,-4512,-365,-1134,3,-43,2,1
477646,-5641,-556,-480,3,-36,1,1
477651,-6405,-690,-561,0,-13,2,1
477656,-6456,-770,-872,-3,0,3,1
477661,-6221,-726,-1516,-8,5,2,1
477666,-6039,-618,-2170,-9,-5,-1,1
477671,-5972,-472,-2594,-10,-22,-2,1
477676,-6171,-296,-2853,-11,-34,-2,1
477681,-6311,-124,-2909,-11,-32,-2,1
477686,-6417,21,-3005,-10,-12,-2,1
477691,-6461,129,-3081,-10,5,-2,1
477696,-6460,221,-3286,-11,9,-1,1
477701,-6357,295,-3580,-10,8,0,1
477706,-6195,357,-3909,-9,9,1,1
477711,-6054,388,-4262,-7,9,2,1
477716,-6004,384,-4464,-5,7,4,1
477721,-6001,366,-4595,-4,5,4,1
477726,-6070,342,-4675,-4,4,4,1
477731,-6210,318,-4652,-3,4,4,1
477736,-6351,290,-4558,-3,6,4,1
477741,-6476,261,-4439,-3,11,5,1
477746,-6556,233,-4330,-2,16,5,1
477751,-6565,209,-4208,-2,18,5,1
477756,-6536,189,-4105,-2,20,5,1
477761,-6494,176,-4009,-3,20,6,1
477766,-6462,157,-3921,-3,18,6,1
477771,-6457,125,-3870,-4,16,6,1
477776,-6473,84,-3827,-5,14,6,1
477781,-6503,33,-3788,-5,15,7,1
477786,-6535,-24,-3772,-5,15,7,1
477791,-6556,-80,-3780,-6,14,7,1
477796,-6572,-129,-3824,-6,13,7,1
477801,-6605,-168,-3901,-6,10,7,1
477806,-6657,-189,-3979,-6,7,7,1
477811,-6726,-193,-4058,-6,4,6,1
477816,-6808,-182,-4136,-5,3,6,1
477821,-6869,-160,-4205,-5,3,6,1
477826,-6916,-131,-4275,-5,5,5,1
477831,-6945,-100,-4328,-4,7,5,1
477836,-6949,-60,-4354,-4,8,5,1
477841,-6940,-23,-4364,-4,10,4,1
477846,-6922,14,-4357,-3,11,4,1
477851,-6887,54,-4341,-3,11,4,1
477856,-6859,91,-4339,-3,12,3,1
477861,-6852,119,-4336,-3,11,3,1
477866,-6861,147,-4342,-3,11,3,1
477871,-6903,164,-4363,-3,10,2,1
477876,-6968,162,-4389,-3,9,1,1
477881,-7036,140,-4426,-3,8,1,1
477886,-7100,101,-4472,-3,6,0,1
477891,-7147,57,-4519,-2,2,-1,1
477896,-7175,27,-4558,-2,-3,-2,1
477901,-7190,12,-4593,-2,-9,-3,1
477906,-7194,14,-4617,-1,-14,-4,1
477911,-7171,31,-4626,-1,-18,-5,1
477916,-7128,60,-4622,-1,-20,-5,1
477921,-7059,94,-4599,-1,-20,-5,1
477926,-6973,126,-4565,-1,-20,-6,1
477931,-6880,163,-4519,-1,-19,-6,1
477936,-6782,199,-4455,-1,-17,-6,1
477941,-6681,234,-4380,-1,-16,-5,1
477946,-6590,264,-4310,-1,-14,-5,1
477951,-6500,297,-4244,-1,-11,-5,1
477956,-6417,329,-4188,-1,-8,-4,1
477961,-6342,357,-4144,-1,-3,-3,1
477966,-6266,379,-4101,-2,1,-3,1
477971,-6199,392,-4059,-2,4,-2,1
477976,-6159,397,-4034,-2,6,-2,1
477981,-6134,393,-4025,-2,7,-1,1
477986,-6133,377,-4036,-2,7,-1,1
477991,-6162,354,-4069,-3,6,-1,1
477996,-6202,336,-4113,-3,4,0,1
478001,-6252,326,-4167,-2,3,-1,1
478006,-6316,326,-4230,-2,1,-1,1
478011,-6376,330,-4282,-2,-1,-1,1
478016,-6435,337,-4329,-2,-2,-1,1
478021,-6492,346,-4381,-2,-3,-1,1
478026,-6539,356,-4424,-1,-3,-1,1
478031,-6590,366,-4464,-1,-3,-1,1
478036,-6637,372,-4497,-1,-3,-2,1
478041,-6673,378,-4508,-1,-3,-2,1
478046,-6703,382,-4509,0,-2,-2,1
478051,-6717,384,-4506,0,-2,-2,1
478056,-6715,380,-4497,0,-3,-2,1
478061,-6708,369,-4477,0,-3,-3,1
478066,-6685,356,-4460,0,-4,-3,1
478071,-6661,339,-4426,0,-4,-3,1
478076,-6634,322,-4390,0,-4,-3,1
478081,-6607,308,-4349,0,-4,-3,1
478086,-6581,294,-4313,-1,-3,-2,1
478091,-6562,283,-4285,-1,-3,-2,1
478096,-6546,272,-4262,-1,-2,-2,1
478101,-6535,266,-4240,-1,-1,-2,1
478106,-6526,264,-4233,-1,0,-2,1
478111,-6517,262,-4229,-1,1,-2,1
478116,-6521,260,-4226,-1,2,-2,1
478121,-6530,260,-4226,-1,2,-2,1
478126,-6534,259,-4218,-1,3,-2,1
478131,-6541,261,-4224,-2,3,-2,1
478136,-6545,264,-4237,-2,2,-2,1
478141,-6553,266,-4250,-2,1,-2,1
478146,-6560,267,-4258,-2,1,-2,1
478151,-6567,266,-4258,-2,0,-2,1
478156,-6567,270,-4255,-2,-1,-2,1
478161,-6561,273,-4253,-2,-2,-2,1
478166,-6556,275,-4261,-2,-3,-2,1
478171,-6553,276,-4268,-1,-5,-2,1
478176,-6554,279,-4275,-1,-6,-2,1
478180,-6559,285,-4274,-1,-6,-2,1
478186,-6562,289,-4263,-1,-6,-2,1
478190,-6554,298,-4254,-1,-5,-2,1
478195,-6543,300,-4246,-1,-5,-2,1
478201,-6526,304,-4238,-1,-4,-2,1
478206,-6514,303,-4238,-1,-4,-2,1
478210,-6513,302,-4228,-1,-4,-2,1
478215,-6514,300,-4211,-1,-3,-2,1
478220,-6515,299,-4208,-1,-2,-2,1
478225,-6511,299,-4199,-1,-1,-2,1
478230,-6501,297,-4181,-1,0,-2,1
478236,-6490,293,-4178,-1,1,-2,1
478240,-6481,293,-4177,-1,1,-2,1
478245,-6476,296,-4179,-1,1,-2,1
478250,-6478,297,-4189,-1,1,-2,1
478255,-6484,298,-4204,-1,1,-2,1
478260,-6488,304,-4210,-1,1,-2,1
478265,-6490,311,-4220,-1,0,-2,1
478270,-6489,314,-4231,-1,0,-2,1
478275,-6480,318,-4246,-1,-1,-2,1
478280,-6475,320,-4266,-1,-1,-2,1
478285,-6468,322,-4274,-1,-2,-2,1
478290,-6466,322,-4277,-1,-2,-2,1
478295,-6463,320,-4284,-1,-2,-2,1
478300,-6458,317,-4285,-1,-2,-2,1
478305,-6454,312,-4286,-1,-2,-2,1
478310,-6457,304,-4285,-1,-2,-2,1
478315,-6456,299,-4278,-1,-2,-2,1
478320,-6459,292,-4274,-1,-2,-2,1
478325,-6462,286,-4267,-1,-2,-2,1
478330,-6461,278,-4259,-1,-2,-2,1
478335,-6463,270,-4251,-1,-2,-2,1
478340,-6465,262,-4242,-1,-1,-2,1
478345,-6463,259,-4236,-1,-1,-2,1
478350,-6470,256,-4243,-1,-1,-2,1
478355,-6481,251,-4248,-1,-1,-2,1
478360,-6488,247,-4253,-1,-1,-2,1
478365,-6498,241,-4261,-1,-1,-2,1
478370,-6506,241,-4269,-1,-1,-2,1
478375,-6510,239,-4273,-1,-1,-2,1
478380,-6516,242,-4277,-1,-1,-2,1
478385,-6519,245,-4279,-1,-1,-2,1
478390,-6519,250,-4283,-1,-2,-2,1
478395,-6522,254,-4277,-1,-2,-2,1
478400,-6522,256,-4278,-1,-2,-2,1
478405,-6523,258,-4279,-1,-2,-2,1
478410,-6524,257,-4275,-1,-1,-2,1
478415,-6521,254,-4267,-1,-1,-2,1
478420,-6520,252,-4258,-1,-1,-2,1
478425,-6517,250,-4251,-1,-1,-2,1
478430,-6513,250,-4244,-1,-1,-2,1
478435,-6513,250,-4245,-1,-1,-2,1
478440,-6515,254,-4245,-1,-1,-2,1
478445,-6515,258,-4248,-1,-1,-2,1
478450,-6519,263,-4253,-1,-1,-2,1
478455,-6520,267,-4254,-1,-1,-2,1
478460,-6516,270,-4261,-1,-1,-2,1
478465,-6514,271,-4263,-1,-1,-2,1
478470,-6510,273,-4260,-1,-1,-2,1
478475,-6501,281,-4259,-1,-2,-2,1
478480,-6495,287,-4255,-1,-2,-2,1
478485,-6488,293,-4253,-1,-2,-2,1
478490,-6478,301,-4251,-1,-1,-2,1
478495,-6473,304,-4241,-1,-1,-2,1
478500,-6465,306,-4239,-1,-1,-2,1
478505,-6464,310,-4249,-1,-1,-2,1
478510,-6467,310,-4259,-1,-1,-2,1
478515,-6466,310,-4264,-1,-2,-2,1
478520,-6471,311,-4264,-1,-2,-2,1
478525,-6477,310,-4264,-1,-2,-2,1
478530,-6481,307,-4265,-1,-2,-2,1
478535,-6485,304,-4263,-1,-2,-2,1
478540,-6485,302,-4259,-1,-2,-2,1
478545,-6479,300,-4258,-1,-2,-2,1
478550,-6469,296,-4254,-1,-2,-2,1
478555,-6464,294,-4251,-1,-2,-2,1
478560,-6460,292,-4247,-1,-3,-2,1
478565,-6458,292,-4246,-1,-2,-2,1
478570,-6454,292,-4243,-1,-2,-2,1
478575,-6451,293,-4235,-1,-2,-2,1
478580,-6451,295,-4222,-1,-1,-2,1
478585,-6446,295,-4213,-1,-1,-2,1
478590,-6442,294,-4203,-1,-1,-2,1
478595,-6446,289,-4201,-1,0,-2,1
478600,-6451,287,-4203,-1,-1,-2,1
478605,-6456,284,-4206,-1,-1,-2,1
478610,-6464,284,-4213,-1,-1,-2,1
478615,-6470,284,-4218,-1,-1,-2,1
478620,-6477,285,-4225,-1,-1,-2,1
478625,-6485,285,-4235,-1,-1,-2,1
478630,-6491,286,-4243,-1,-2,-2,1
478635,-6498,292,-4257,-1,-2,-2,1
478640,-6502,297,-4275,-1,-2,-2,1
478645,-6503,305,-4287,-1,-3,-2,1
478650,-6506,311,-4293,-1,-3,-2,1
478655,-6505,316,-4299,-1,-3,-2,1
478660,-6500,318,-4303,-1,-3,-2,1
478665,-6494,320,-4302,-1,-3,-2,1
478670,-6482,320,-4293,-1,-2,-2,1
478675,-6467,317,-4286,-1,-2,-2,1
478680,-6460,313,-4276,-1,-2,-2,1
478685,-6452,306,-4266,-1,-2,-2,1
478690,-6452,300,-4254,-1,-2,-2,1
478695,-6457,295,-4245,-1,-1,-2,1
478700,-6461,290,-4241,-1,-1,-2,1
478705,-6466,287,-4242,-1,-1,-2,1
478710,-6474,282,-4245,-1,-1,-2,1
478715,-6482,275,-4250,-1,-1,-2,1
478720,-6488,265,-4247,-1,-1,-2,1
478725,-6493,259,-4247,-1,-2,-2,1
478730,-6493,256,-4249,-1,-2,-2,1
478735,-6494,252,-4248,-1,-2,-2,1
478740,-6490,249,-4242,-1,-2,-2,1
478745,-6484,249,-4241,-1,-2,-2,1
478750,-6480,250,-4239,-1,-2,-2,1
478755,-6478,252,-4237,-1,-3,-2,1
478760,-6473,251,-4232,-1,-2,-2,1
478765,-6468,252,-4228,-1,-2,-2,1
478770,-6464,255,-4231,-1,-2,-2,1
478775,-6458,258,-4231,-1,-2,-2,1
478780,-6453,261,-4232,-1,-2,-2,1
478785,-6447,261,-4235,-1,-2,-2,1
478790,-6441,264,-4241,-1,-2,-2,1
478795,-6438,271,-4243,-1,-2,-2,1
478800,-6439,277,-4247,-1,-2,-2,1
478805,-6446,279,-4246,-1,-2,-2,1
478810,-6452,283,-4249,-1,-2,-2,1
478815,-6458,288,-4251,-1,-2,-2,1
478820,-6466,292,-4251,-1,-2,-2,1
478825,-6467,291,-4253,-1,-1,-2,1
478830,-6466,290,-4251,-1,-1,-2,1
478835,-6465,288,-4246,-1,-1,-2,1
478840,-6467,288,-4242,-1,-1,-2,1
478845,-6471,287,-4238,-1,-2,-2,1
478850,-6474,288,-4238,-1,-1,-2,1
478855,-6474,291,-4234,-1,-1,-2,1
478860,-6470,290,-4239,-1,-1,-2,1
478865,-6463,292,-4242,-1,-2,-2,1
478870,-6458,295,-4244,-1,-2,-2,1
478875,-6462,296,-4246,-1,-3,-2,1
478880,-6468,301,-4247,-1,-3,-2,1
478885,-6477,307,-4245,-1,-2,-2,1
478890,-6483,310,-4244,-1,-2,-2,1
478895,-6487,315,-4241,-1,-2,-2,1
478900,-6486,320,-4239,-1,-2,-2,1
478905,-6485,321,-4235,-1,-2,-2,1
478910,-6484,316,-4229,-1,-2,-2,1
478915,-6488,314,-4224,-1,-2,-2,1
478920,-6489,309,-4220,-1,-2,-2,1
478925,-6493,304,-4216,-1,-1,-2,1
478930,-6490,301,-4211,-1,-1,-2,1
478935,-6489,296,-4205,-1,-1,-2,1
478940,-6489,288,-4207,-1,-1,-2,1
478945,-6493,283,-4211,-1,-1,-2,1
478950,-6494,285,-4210,-1,-1,-2,1
478955,-6499,288,-4218,-1,-1,-2,1
478960,-6499,290,-4224,-1,-1,-2,1
478965,-6500,291,-4231,-1,-1,-2,1
478970,-6499,293,-4241,-1,-1,-2,1
478975,-6498,294,-4254,-1,-1,-2,1
478980,-6493,294,-4262,-1,-2,-2,1
478985,-6488,298,-4266,-1,-2,-2,1
478990,-6484,299,-4261,-1,-2,-2,1
478995,-6481,297,-4255,-1,-2,-2,1
479000,-6476,297,-4252,-1,-2,-2,1
479005,-6468,297,-4243,-1,-2,-2,1
479010,-6462,297,-4239,-1,-2,-2,1
479015,-6463,295,-4232,-1,-2,-2,1
479020,-6459,289,-4225,-1,-2,-2,1
479025,-6456,283,-4220,-1,-1,-2,1
479030,-6455,280,-4218,-1,-1,-2,1
479035,-6453,278,-4217,-1,-1,-2,1
479040,-6456,278,-4217,-1,-1,-2,1
479045,-6460,279,-4222,-1,-1,-2,1
479050,-6464,284,-4218,-1,-2,-2,1
479055,-6464,286,-4227,-1,-2,-2,1
479060,-6466,288,-4237,-1,-2,-2,1
479065,-6464,291,-4243,-1,-2,-2,1
479070,-6465,291,-4249,-1,-2,-2,1
479075,-6461,296,-4248,-1,-2,-2,1
479080,-6458,299,-4252,-1,-2,-2,1
479085,-6456,304,-4260,-1,-2,-2,1
479090,-6456,308,-4265,-1,-1,-2,1
479095,-6450,315,-4267,-1,-1,-2,1
479100,-6446,321,-4272,-1,-1,-2,1
479105,-6448,323,-4277,-1,-1,-2,1
479110,-6452,324,-4282,-1,-1,-2,1
479115,-6454,323,-4286,-1,-1,-2,1
479120,-6453,318,-4283,-1,-1,-2,1
479124,-6452,311,-4278,-1,-1,-2,1
479130,-6456,305,-4280,-1,-1,-2,1
479134,-6461,295,-4280,-1,-2,-2,1
479139,-6467,289,-4282,-1,-2,-2,1
479144,-6475,283,-4286,-1,-2,-2,1
479150,-6479,280,-4292,-1,-2,-2,1
479154,-6481,276,-4296,-1,-2,-2,1
479160,-6482,277,-4298,-1,-2,-2,1
479165,-6480,277,-4295,-1,-2,-2,1
479170,-6480,278,-4298,-1,-2,-2,1
479175,-6483,276,-4299,-1,-2,-2,1
479180,-6487,276,-4298,-1,-2,-2,1
479185,-6495,272,-4294,-1,-2,-2,1
479189,-6497,271,-4291,-1,-2,-2,1
479195,-6495,268,-4281,-1,-2,-2,1
479200,-6491,266,-4268,-1,-2,-2,1
479204,-6486,261,-4255,-1,-1,-2,1
479210,-6485,258,-4243,-1,-1,-2,1
479214,-6488,254,-4238,-1,-1,-2,1
479220,-6486,252,-4235,-1,-1,-2,1
479224,-6485,250,-4231,-1,-1,-2,1
479230,-6484,252,-4236,-1,-1,-2,1
479234,-6483,256,-4247,-2,-2,-2,1
479239,-6485,266,-4254,-1,-2,-2,1
479245,-6492,277,-4263,-1,-2,-2,1
479250,-6496,290,-4283,-1,-3,-2,1
479254,-6503,304,-4290,-1,-3,-2,1
479259,-6503,310,-4302,-1,-3,-2,1
479264,-6500,313,-4304,-1,-3,-2,1
479269,-6499,315,-4300,-1,-3,-2,1
479274,-6499,314,-4291,-1,-3,-2,1
479279,-6493,312,-4282,-1,-2,-2,1
479284,-6486,311,-4271,-1,-2,-2,1
479289,-6483,308,-4260,-1,-2,-2,1
479294,-6477,304,-4254,-1,-2,-2,1
479299,-6473,301,-4245,-1,-2,-2,1
479304,-6473,297,-4243,-1,-1,-2,1
479309,-6475,292,-4242,-1,-1,-2,1
479314,-6477,289,-4245,-1,-1,-2,1
479319,-6482,286,-4250,-1,-1,-2,1
479324,-6483,286,-4258,-1,-1,-2,1
479329,-6489,284,-4266,-1,-2,-2,1
479334,-6495,283,-4279,-1,-2,-2,1
479339,-6509,281,-4288,-1,-3,-2,1
479344,-6523,278,-4303,-1,-3,-2,1
479349,-6536,276,-4311,-1,-4,-2,1
479354,-6543,274,-4310,-1,-4,-2,1
479359,-6547,272,-4309,-1,-4,-2,1
479364,-6551,267,-4313,-1,-5,-2,1
479369,-6559,264,-4312,-1,-5,-2,1
479374,-6567,261,-4316,-1,-6,-2,1
479379,-6581,261,-4318,-1,-7,-3,1
479384,-6594,259,-4324,-1,-8,-3,1
479389,-6612,250,-4335,-1,-8,-3,1
479394,-6635,242,-4350,-1,-8,-3,1
479399,-6661,232,-4367,-1,-8,-3,1
479404,-6683,223,-4378,-1,-9,-3,1
479409,-6697,218,-4389,-1,-9,-3,1
479414,-6715,213,-4397,-1,-10,-3,1
479419,-6736,207,-4405,-1,-10,-3,1
479424,-6756,197,-4417,-1,-10,-3,1
479429,-6777,185,-4426,-1,-10,-3,1
479434,-6791,171,-4420,-1,-10,-3,1
479439,-6800,158,-4410,-1,-10,-3,1
479444,-6810,142,-4396,-1,-10,-3,1
479449,-6818,127,-4382,-1,-11,-3,1
479454,-6833,114,-4366,-1,-12,-3,1
479459,-6861,106,-4353,-1,-11,-3,1
479464,-6894,103,-4346,-1,-10,-3,1
479469,-6922,98,-4317,-1,-10,-4,1
479474,-6953,96,-4293,-1,-11,-4,1
479479,-6977,101,-4280,-2,-12,-4,1
479484,-6998,96,-4265,-2,-13,-4,1
479489,-7012,80,-4237,-2,-15,-4,1
479494,-7024,61,-4197,-2,-17,-5,1
479499,-7045,53,-4167,-2,-19,-5,1
479504,-7071,62,-4158,-2,-19,-5,1
479509,-7096,83,-4163,-2,-18,-6,1
479514,-7111,111,-4173,-2,-16,-6,1
479519,-7122,144,-4168,-2,-14,-6,1
479524,-7125,175,-4156,-2,-12,-7,1
479529,-7113,204,-4139,-1,-11,-7,1
479534,-7095,229,-4120,-1,-10,-7,1
479539,-7072,257,-4108,-1,-9,-7,1
479544,-7049,285,-4095,-1,-8,-8,1
479549,-7023,312,-4089,-1,-8,-8,1
479554,-6992,333,-4089,0,-8,-8,1
479559,-6963,355,-4091,0,-9,-8,1
479564,-6938,372,-4093,0,-9,-9,1
479569,-6923,384,-4100,0,-9,-9,1
479574,-6911,387,-4108,0,-10,-9,1
479579,-6908,384,-4117,1,-10,-9,1
479584,-6903,376,-4124,1,-10,-9,1
479589,-6897,362,-4128,1,-11,-10,1
479594,-6892,346,-4133,1,-12,-10,1
479599,-6884,335,-4131,1,-14,-10,1
479604,-6880,325,-4130,1,-15,-10,1
479609,-6870,318,-4128,2,-16,-10,1
479614,-6855,310,-4124,2,-17,-10,1
479619,-6837,303,-4108,2,-17,-10,1
479624,-6817,292,-4083,2,-17,-10,1
479629,-6795,273,-4052,2,-17,-10,1
479634,-6773,253,-4019,2,-17,-10,1
479639,-6755,230,-3990,2,-17,-10,1
479644,-6737,206,-3950,2,-16,-10,1
479649,-6722,180,-3908,1,-16,-10,1
479654,-6709,151,-3873,1,-15,-10,1
479659,-6700,123,-3851,1,-14,-10,1
479664,-6698,94,-3831,1,-13,-9,1
479669,-6696,69,-3812,1,-12,-9,1
479674,-6692,48,-3792,1,-10,-9,1
479679,-6690,28,-3778,0,-9,-9,1
479684,-6692,2,-3758,0,-8,-8,1
479689,-6696,-27,-3736,0,-7,-8,1
479694,-6700,-59,-3715,0,-6,-8,1
479699,-6708,-98,-3697,0,-5,-8,1
479704,-6719,-141,-3687,-1,-5,-7,1
479709,-6735,-182,-3682,-1,-6,-7,1
479714,-6758,-213,-3683,-1,-6,-7,1
479719,-6785,-233,-3679,-1,-7,-7,1
479724,-6805,-243,-3669,-1,-8,-7,1
479729,-6813,-243,-3664,-1,-8,-7,1
479734,-6808,-234,-3658,-1,-8,-6,1
479739,-6793,-222,-3653,-1,-8,-6,1
479744,-6774,-207,-3650,-2,-7,-6,1
479749,-6760,-191,-3642,-2,-7,-6,1
479754,-6747,-173,-3630,-2,-7,-5,1
479759,-6739,-155,-3617,-2,-6,-5,1
479764,-6731,-137,-3603,-2,-5,-5,1
479769,-6719,-123,-3591,-2,-5,-4,1
479774,-6707,-114,-3583,-2,-4,-4,1
479779,-6696,-109,-3572,-3,-4,-4,1
479784,-6690,-101,-3562,-3,-3,-3,1
479789,-6689,-94,-3552,-3,-2,-3,1
479794,-6694,-89,-3543,-3,-1,-3,1
479799,-6701,-88,-3538,-3,0,-3,1
479804,-6707,-92,-3529,-3,1,-2,1
479809,-6709,-101,-3524,-3,2,-2,1
479814,-6715,-110,-3520,-3,2,-2,1
479819,-6714,-117,-3520,-3,2,-2,1
479824,-6707,-120,-3524,-3,1,-2,1
479829,-6701,-114,-3529,-3,1,-2,1
479834,-6694,-104,-3529,-3,0,-2,1
479839,-6686,-94,-3525,-3,0,-2,1
479844,-6678,-79,-3522,-3,-1,-2,1
479849,-6668,-67,-3514,-3,-1,-2,1
479854,-6654,-59,-3506,-3,-1,-1,1
479859,-6641,-46,-3495,-3,-1,-1,1
479864,-6626,-33,-3487,-3,0,-1,1
479869,-6614,-18,-3477,-3,1,-1,1
479874,-6605,-5,-3464,-3,1,-1,1
479879,-6599,5,-3460,-3,2,-1,1
479884,-6595,11,-3464,-3,2,-1,1
479889,-6598,11,-3469,-3,1,-1,1
479894,-6605,13,-3474,-3,0,-1,1
479899,-6616,20,-3489,-3,-1,-1,1
479904,-6617,30,-3507,-3,-2,-1,1
479909,-6615,46,-3521,-3,-3,-1,1
479914,-6608,66,-3532,-2,-4,-1,1
479919,-6594,90,-3542,-2,-5,-1,1
479924,-6569,115,-3543,-2,-5,-1,1
479929,-6540,136,-3537,-2,-6,-1,1
479934,-6514,151,-3523,-2,-6,-1,1
479939,-6489,165,-3505,-2,-6,-1,1
479944,-6465,176,-3483,-2,-5,-1,1
479949,-6449,182,-3463,-1,-5,-1,1
479954,-6437,186,-3442,-1,-4,-1,1
479959,-6432,190,-3427,-1,-4,-1,1
479964,-6434,188,-3412,-1,-3,-1,1
479969,-6441,183,-3403,-1,-2,-2,1
479974,-6449,174,-3399,-1,-2,-2,1
479979,-6450,164,-3398,-1,-2,-2,1
479984,-6456,161,-3399,-1,-3,-2,1
479989,-6464,159,-3404,-1,-3,-2,1
479994,-6472,158,-3404,-1,-3,-2,1
479999,-6475,156,-3401,-1,-3,-2,1
480004,-6475,154,-3396,0,-3,-2,1
480009,-6470,149,-3387,0,-3,-2,1
480014,-6462,144,-3376,0,-3,-2,1
480019,-6455,143,-3368,0,-3,-2,1
480024,-6452,139,-3362,0,-3,-2,1
480029,-6455,137,-3354,0,-3,-2,1
480034,-6466,133,-3353,0,-3,-2,1
480039,-6486,129,-3361,0,-2,-2,1
480044,-6503,122,-3372,0,-2,-2,1
480049,-6523,117,-3383,0,-2,-3,1
480054,-6546,109,-3394,0,-2,-3,1
480059,-6568,103,-3404,0,-2,-3,1
480064,-6592,98,-3421,0,-2,-3,1
480069,-6614,89,-3436,0,-3,-3,1
480074,-6635,79,-3451,0,-3,-3,1
480079,-6652,69,-3462,0,-4,-3,1
480084,-6667,57,-3473,0,-4,-3,1
480089,-6683,45,-3485,0,-5,-3,1
480094,-6701,33,-3490,0,-5,-3,1
480099,-6724,21,-3497,0,-5,-3,1
480104,-6748,8,-3505,0,-5,-3,1
480109,-6773,-4,-3509,0,-5,-3,1
480114,-6796,-14,-3515,0,-4,-3,1
480119,-6817,-20,-3519,-1,-4,-3,1
480124,-6837,-22,-3518,-1,-3,-3,1
480129,-6855,-26,-3524,-1,-3,-2,1
480133,-6873,-27,-3524,-1,-2,-2,1
480139,-6891,-27,-3532,-1,-2,-2,1
480144,-6901,-26,-3538,-1,-1,-2,1
480148,-6908,-26,-3538,-1,-1,-2,1
480154,-6911,-30,-3543,-1,-1,-2,1
480159,-6917,-35,-3550,-1,-2,-2,1
480164,-6925,-38,-3560,-1,-2,-2,1
480168,-6940,-43,-3578,-1,-2,-2,1
480174,-6950,-47,-3592,-1,-3,-2,1
480179,-6954,-49,-3598,-1,-3,-2,1
480183,-6954,-47,-3603,-1,-3,-2,1
480188,-6952,-45,-3606,-1,-3,-2,1
480194,-6951,-47,-3604,-1,-4,-2,1
480199,-6950,-46,-3603,-1,-4,-2,1
480204,-6955,-44,-3600,-1,-4,-1,1
480208,-6962,-41,-3599,-1,-3,-1,1
480214,-6969,-40,-3595,-1,-2,-1,1
480219,-6971,-41,-3596,-1,-2,-1,1
480224,-6969,-42,-3596,-1,-1,-1,1
480228,-6965,-44,-3595,-1,0,-1,1
480233,-6961,-50,-3589,-1,0,-1,1
480238,-6958,-58,-3585,-1,0,-1,1
480243,-6957,-69,-3588,-1,0,-1,1
480248,-6960,-83,-3594,-2,-1,-1,1
480253,-6955,-95,-3596,-1,-2,-1,1
480258,-6953,-107,-3597,-2,-3,-1,1
480263,-6950,-115,-3593,-2,-3,-1,1
480268,-6951,-118,-3588,-2,-4,-1,1
480273,-6949,-116,-3586,-2,-4,-1,1
480278,-6941,-107,-3583,-2,-5,-1,1
480283,-6929,-98,-3581,-2,-4,-2,1
480288,-6914,-90,-3577,-1,-4,-2,1
480293,-6897,-80,-3576,-1,-4,-2,1
480298,-6882,-72,-3572,-1,-4,-2,1
480303,-6869,-67,-3560,-1,-3,-2,1
480308,-6857,-62,-3543,-1,-3,-2,1
480313,-6850,-60,-3536,-1,-2,-2,1
480318,-6845,-56,-3530,-1,-2,-2,1
480323,-6840,-59,-3525,-1,-2,-2,1
480328,-6838,-65,-3521,-1,-2,-2,1
480333,-6842,-69,-3518,-1,-2,-2,1
480338,-6851,-72,-3517,-1,-3,-2,1
480343,-6852,-77,-3521,-1,-3,-2,1
480348,-6852,-80,-3516,-1,-3,-2,1
480353,-6849,-80,-3515,-1,-4,-2,1
480358,-6846,-80,-3516,-1,-4,-3,1
480363,-6845,-80,-3514,-1,-5,-3,1
480368,-6840,-78,-3516,-1,-5,-3,1
480373,-6836,-75,-3517,-1,-5,-3,1
480378,-6829,-71,-3510,-1,-5,-3,1
480383,-6822,-68,-3499,-1,-5,-3,1
480388,-6815,-65,-3489,-1,-5,-3,1
480393,-6810,-62,-3479,-1,-6,-3,1
480398,-6812,-65,-3475,-1,-6,-3,1
480403,-6824,-67,-3471,-1,-6,-3,1
480408,-6839,-67,-3467,-1,-6,-3,1
480413,-6854,-66,-3469,-1,-6,-3,1
480418,-6867,-65,-3468,-1,-6,-3,1
480423,-6881,-63,-3470,-1,-5,-3,1
480428,-6893,-62,-3473,-1,-5,-3,1
480433,-6896,-55,-3476,0,-4,-3,1
480438,-6894,-48,-3473,0,-4,-3,1
480443,-6891,-38,-3471,0,-4,-3,1
480448,-6890,-31,-3474,0,-4,-3,1
480453,-6890,-26,-3478,0,-4,-3,1
480458,-6893,-22,-3489,0,-4,-3,1
480463,-6894,-22,-3487,0,-4,-3,1
480468,-6897,-18,-3484,0,-4,-3,1
480473,-6901,-20,-3481,0,-4,-3,1
480478,-6906,-23,-3477,0,-4,-3,1
480483,-6911,-29,-3479,0,-4,-3,1
480488,-6920,-38,-3478,0,-4,-3,1
480493,-6930,-46,-3480,0,-4,-3,1
480498,-6941,-53,-3483,0,-4,-3,1
480503,-6951,-58,-3487,0,-4,-3,1
480508,-6963,-66,-3489,0,-4,-3,1
480513,-6973,-72,-3492,0,-4,-3,1
480518,-6975,-77,-3492,0,-4,-3,1
480523,-6974,-85,-3488,0,-4,-3,1
480528,-6973,-92,-3486,0,-4,-3,1
480533,-6972,-102,-3482,0,-4,-2,1
480538,-6972,-107,-3474,0,-4,-2,1
480543,-6975,-112,-3469,0,-4,-2,1
480548,-6974,-119,-3459,-1,-4,-2,1
480553,-6973,-127,-3451,-1,-3,-2,1
480558,-6968,-131,-3439,-1,-3,-2,1
480563,-6962,-132,-3433,-1,-3,-2,1
480568,-6958,-132,-3430,-1,-3,-2,1
480573,-6954,-131,-3431,-1,-2,-2,1
480578,-6952,-124,-3430,-1,-2,-2,1
480583,-6948,-114,-3432,-1,-2,-2,1
480588,-6949,-104,-3456,-1,-2,-2,1
480593,-6944,-94,-3438,-1,-3,-2,1
480598,-6939,-83,-3438,-1,-3,-2,1
480603,-6933,-70,-3444,-1,-3,-2,1
480608,-6930,-63,-3455,-1,-3,-2,1
480613,-6931,-59,-3458,-1,-4,-2,1
480618,-6936,-58,-3455,-1,-4,-2,1
480623,-6938,-61,-3448,-1,-3,-2,1
480628,-6936,-62,-3436,-1,-3,-2,1
480633,-6932,-65,-3426,-1,-3,-2,1
480638,-6930,-68,-3415,-1,-4,-2,1
480643,-6929,-73,-3407,-1,-4,-2,1
480648,-6933,-79,-3398,-1,-4,-2,1
480653,-6936,-83,-3387,-1,-3,-2,1
480658,-6937,-84,-3373,-1,-2,-2,1
480663,-6934,-84,-3360,-1,-2,-2,1
480668,-6933,-84,-3355,-1,-2,-2,1
480673,-6930,-84,-3354,-1,-2,-2,1
480678,-6926,-84,-3358,-1,-2,-2,1
480683,-6921,-81,-3363,-1,-2,-2,1
480688,-6920,-78,-3373,-1,-2,-2,1
480693,-6927,-76,-3376,-1,-2,-2,1
480698,-6937,-76,-3379,-1,-2,-2,1
480703,-6947,-73,-3384,-1,-2,-2,1
480708,-6964,-69,-3393,-1,-2,-2,1
480713,-6978,-65,-3396,-1,-3,-2,1
480718,-6978,-62,-3396,-2,-3,-2,1
480723,-6970,-54,-3390,-2,-3,-2,1
480728,-6964,-46,-3379,-2,-3,-2,1
480733,-6962,-40,-3369,-2,-3,-2,1
480738,-6957,-28,-3354,-2,-2,-2,1
480743,-6940,-12,-3325,-2,0,-2,1
480748,-6917,6,-3282,-2,2,-2,1
480753,-6895,28,-3240,-2,5,-3,1
480758,-6889,50,-3207,-3,7,-3,1
480763,-6879,61,-3187,-3,10,-2,1
480768,-6870,69,-3171,-3,12,-2,1
480773,-6839,89,-3141,-3,12,-2,1
480778,-6784,144,-3106,-4,9,-2,1
480783,-6732,223,-3039,-4,4,-2,1
480788,-6684,279,-2926,-4,0,-3,1
480793,-6649,275,-2843,-5,-6,-3,1
480798,-6610,239,-2818,-5,-13,-3,1
480803,-6535,192,-2849,-5,-22,-4,1
480808,-6457,136,-2888,-5,-34,-4,1
480813,-6384,87,-2898,-5,-47,-4,1
480818,-6339,54,-2877,-6,-60,-5,1
480823,-6294,46,-2732,-6,-70,-6,1
480828,-6381,90,-2529,-5,-75,-6,1
480833,-6611,131,-2536,-5,-76,-6,1
480838,-6826,143,-2627,-5,-74,-5,1
480843,-6994,123,-2715,-5,-62,-5,1
480848,-7056,76,-2757,-5,-45,-5,1
480853,-7060,19,-2790,-4,-27,-5,1
480858,-7034,-52,-2815,-4,-18,-4,1
480863,-7001,-134,-2816,-5,-15,-4,1
480868,-6952,-221,-2815,-5,-17,-4,1
480873,-6893,-294,-2829,-5,-22,-3,1
480878,-6827,-343,-2861,-5,-30,-3,1
480883,-6780,-382,-2865,-5,-39,-3,1
480888,-6750,-417,-2832,-5,-46,-3,1
480893,-6747,-407,-2802,-5,-53,-3,1
480898,-6781,-306,-2831,-5,-61,-2,1
480903,-6762,-168,-2971,-5,-65,-2,1
480908,-6754,-123,-3058,-4,-68,-2,1
480913,-6803,-129,-3028,-4,-71,-1,1
480918,-6918,-173,-2938,-4,-74,-1,1
480923,-7069,-220,-2843,-4,-74,-1,1
480928,-7264,-219,-2789,-3,-63,-1,1
480933,-7453,-167,-2798,-3,-37,0,1
480938,-7628,-30,-2764,-3,4,0,1
480943,-7641,36,-2744,-4,57,2,1
480948,-7595,-5,-2721,-4,93,3,1
480953,-7560,-68,-2702,-4,100,2,1
480958,-7559,-106,-2717,-3,93,2,1
480963,-7565,-116,-2774,-3,80,2,1
480968,-7553,-106,-2829,-3,64,1,1
480973,-7528,-93,-2848,-2,48,1,1
480978,-7510,-96,-2839,-2,32,1,1
480983,-7539,-135,-2860,-2,18,0,1
480988,-7631,-180,-2913,-1,5,-1,1
480993,-7774,-178,-2947,-1,-3,-2,1
480998,-7931,-196,-2940,-1,-7,-3,1
481003,-8117,-275,-2972,-1,-4,-4,1
481008,-8303,-404,-3045,-1,2,-5,1
481013,-8486,-574,-3115,-1,8,-6,1
481018,-8654,-781,-3178,-1,16,-7,1
481023,-8711,-963,-3265,0,30,-7,1
481028,-8727,-1048,-3259,0,44,-7,1
481033,-8741,-1144,-3164,0,43,-9,1
481038,-8754,-1272,-3130,1,38,-10,1
481043,-8773,-1280,-3092,1,36,-11,1
481048,-8795,-1251,-2963,1,36,-11,1
481053,-8820,-1229,-2891,0,37,-12,1
481058,-8825,-1217,-2837,0,41,-13,1
481063,-8782,-1200,-2743,0,43,-14,1
481068,-8694,-1104,-2643,-1,43,-14,1
481073,-8530,-978,-2563,-2,44,-15,1
481078,-8326,-861,-2561,-2,44,-15,1
481083,-8087,-736,-2575,-3,43,-15,1
481088,-7828,-624,-2612,-3,42,-15,1
481093,-7581,-518,-2727,-3,39,-15,1
481098,-7348,-378,-2854,-3,33,-15,1
481103,-7135,-241,-2947,-3,26,-14,1
481108,-6977,-123,-3061,-3,19,-14,1
481113,-6846,-22,-3168,-3,15,-13,1
481118,-6746,76,-3251,-3,13,-13,1
481123,-6689,146,-3321,-3,14,-12,1
481128,-6668,197,-3406,-2,16,-12,1
481132,-6688,242,-3450,-2,17,-12,1
481138,-6716,283,-3461,-2,20,-11,1
481143,-6737,307,-3435,-2,22,-11,1
481148,-6728,285,-3395,-2,24,-11,1
481153,-6701,259,-3388,-2,23,-11,1
481158,-6657,243,-3365,-2,18,-11,1
481163,-6608,237,-3357,-2,12,-11,1
481168,-6558,214,-3391,-2,3,-11,1
481173,-6540,186,-3453,-2,-7,-11,1
481178,-6554,172,-3523,-2,-16,-11,1
481182,-6596,160,-3625,-2,-22,-12,1
481187,-6656,155,-3738,-1,-24,-12,1
481193,-6702,143,-3827,-1,-24,-12,1
481197,-6733,148,-3879,-1,-23,-12,1
481202,-6718,154,-3885,-1,-20,-12,1
481207,-6674,160,-3850,-1,-16,-12,1
481212,-6592,157,-3799,-1,-12,-11,1
481217,-6485,147,-3739,-1,-8,-11,1
481222,-6354,118,-3675,-1,-7,-10,1
481227,-6184,85,-3629,-1,-8,-10,1
481232,-6031,54,-3600,-1,-10,-9,1
481237,-5893,22,-3567,-1,-13,-8,1
481242,-5789,1,-3529,-2,-16,-7,1
481247,-5714,-16,-3494,-2,-19,-6,1
481252,-5674,-26,-3455,-2,-20,-6,1
481257,-5662,-30,-3420,-2,-21,-5,1
481262,-5685,-23,-3383,-3,-21,-4,1
481267,-5731,-9,-3342,-3,-22,-4,1
481272,-5786,16,-3294,-4,-21,-3,1
481277,-5847,40,-3244,-4,-20,-3,1
481282,-5902,65,-3199,-5,-19,-2,1
481287,-5951,94,-3166,-5,-19,-2,1
481292,-6004,124,-3140,-6,-21,-2,1
481297,-6056,145,-3125,-6,-26,-2,1
481302,-6118,148,-3134,-6,-32,-2,1
481307,-6195,127,-3157,-7,-38,-2,1
481312,-6288,81,-3210,-7,-43,-2,1
481317,-6417,14,-3287,-6,-44,-2,1
481322,-6545,-79,-3381,-6,-41,-2,1
481327,-6666,-191,-3473,-6,-35,-2,1
481332,-6769,-298,-3562,-5,-26,-2,1
481337,-6846,-394,-3631,-5,-16,-2,1
481342,-6897,-472,-3660,-5,-7,-2,1
481347,-6930,-540,-3652,-4,-1,-2,1
481352,-6937,-591,-3631,-4,1,-2,1
481357,-6939,-613,-3607,-3,-1,-2,1
481362,-6963,-619,-3564,-3,-5,-2,1
481367,-6998,-597,-3506,-3,-9,-2,1
481372,-7054,-572,-3436,-3,-12,-2,1
481377,-7117,-545,-3354,-4,-13,-2,1
481382,-7191,-510,-3274,-4,-14,-2,1
481387,-7289,-487,-3204,-4,-11,-2,1
481392,-7403,-469,-3153,-5,-4,-2,1
481397,-7501,-465,-3123,-5,6,-2,1
481402,-7571,-457,-3125,-5,17,-2,1
481407,-7592,-448,-3134,-5,27,-2,1
481412,-7576,-429,-3142,-5,34,-2,1
481417,-7534,-414,-3173,-5,38,-2,1
481422,-7456,-414,-3212,-5,39,-2,1
481427,-7391,-426,-3245,-5,35,-2,1
481432,-7353,-444,-3286,-5,28,-3,1
481437,-7339,-480,-3318,-5,20,-3,1
481442,-7344,-515,-3332,-4,14,-3,1
481447,-7364,-560,-3308,-4,11,-3,1
481452,-7387,-603,-3252,-4,12,-3,1
481457,-7408,-644,-3187,-5,15,-3,1
481462,-7397,-674,-3144,-5,19,-3,1
481467,-7358,-683,-3132,-5,24,-3,1
481472,-7286,-674,-3151,-5,27,-2,1
481477,-7189,-651,-3189,-5,28,-2,1
481482,-7076,-620,-3236,-6,26,-2,1
481487,-6970,-588,-3280,-6,20,-2,1
481492,-6877,-554,-3312,-6,12,-2,1
481497,-6808,-525,-3336,-6,3,-2,1
481502,-6761,-496,-3345,-6,-5,-2,1
481507,-6732,-461,-3360,-6,-11,-1,1
481512,-6720,-417,-3380,-6,-15,-1,1
481517,-6721,-381,-3408,-6,-17,-1,1
481522,-6680,-443,-3422,-6,-18,-1,1
481527,-6640,-528,-3436,-5,-19,-1,1
481532,-6647,-591,-3422,-5,-20,-1,1
481537,-6669,-610,-3389,-5,-19,0,1
481542,-6708,-584,-3341,-4,-14,0,1
481547,-6756,-522,-3296,-4,-8,0,1
481552,-6815,-438,-3265,-4,-1,0,1
481557,-6879,-355,-3260,-3,5,0,1
481562,-6925,-289,-3285,-3,9,0,1
481567,-6939,-249,-3343,-3,11,0,1
481572,-6921,-231,-3413,-3,12,1,1
481577,-6884,-225,-3493,-3,13,1,1
481582,-6835,-222,-3556,-3,13,1,1
481587,-6785,-215,-3593,-3,12,1,1
481592,-6734,-202,-3618,-3,10,1,1
481597,-6685,-190,-3622,-3,6,2,1
481602,-6649,-183,-3605,-3,2,2,1
481607,-6631,-181,-3569,-3,-4,2,1
481612,-6632,-190,-3528,-4,-9,2,1
481617,-6648,-202,-3503,-4,-14,2,1
481622,-6673,-218,-3481,-4,-17,2,1
481627,-6702,-239,-3449,-4,-19,2,1
481632,-6736,-259,-3417,-5,-20,2,1
481637,-6777,-281,-3392,-5,-19,1,1
481642,-6814,-300,-3380,-5,-19,1,1
481647,-6847,-319,-3381,-5,-17,1,1
481652,-6873,-334,-3383,-5,-16,1,1
481657,-6893,-348,-3387,-5,-15,1,1
481662,-6912,-354,-3385,-4,-14,1,1
481667,-6932,-356,-3383,-4,-13,0,1
481672,-6952,-352,-3376,-4,-11,0,1
481677,-6970,-333,-3367,-4,-9,0,1
481682,-6966,-293,-3373,-4,-7,0,1
481687,-6926,-250,-3415,-4,-7,1,1
481692,-6896,-226,-3454,-3,-6,1,1
481697,-6897,-221,-3444,-3,-6,1,1
481702,-6921,-230,-3401,-3,-8,0,1
481707,-6944,-240,-3348,-3,-11,0,1
481712,-6963,-243,-3313,-3,-12,0,1
481717,-6973,-239,-3282,-3,-13,0,1
481722,-6980,-210,-3241,-3,-13,0,1
481727,-6980,-183,-3178,-4,-14,0,1
481732,-6990,-162,-3123,-4,-15,-1,1
481737,-7006,-156,-3100,-4,-16,-1,1
481742,-7027,-156,-3104,-4,-15,-1,1
481747,-7045,-154,-3126,-4,-14,-1,1
481752,-7065,-157,-3147,-4,-13,-1,1
481757,-7084,-167,-3157,-4,-12,-1,1
481762,-7110,-181,-3163,-4,-12,-1,1
481767,-7139,-199,-3167,-4,-12,-1,1
481772,-7165,-218,-3181,-4,-12,-1,1
481777,-7189,-241,-3210,-4,-13,-1,1
481782,-7207,-259,-3231,-4,-14,-1,1
481787,-7220,-273,-3247,-3,-15,-1,1
481792,-7228,-280,-3257,-3,-16,-1,1
481797,-7236,-279,-3260,-3,-17,-1,1
481802,-7245,-260,-3260,-3,-18,-2,1
481807,-7258,-237,-3255,-3,-18,-2,1
481812,-7270,-225,-3253,-3,-18,-2,1
481817,-7282,-218,-3241,-2,-17,-2,1
481822,-7295,-215,-3222,-2,-15,-2,1
481827,-7299,-210,-3196,-2,-14,-2,1
481832,-7297,-205,-3169,-2,-12,-2,1
481837,-7284,-203,-3144,-2,-10,-2,1
481842,-7264,-198,-3117,-2,-9,-2,1
481847,-7237,-190,-3097,-2,-8,-2,1
481852,-7209,-180,-3079,-2,-7,-2,1
481857,-7181,-171,-3070,-1,-7,-2,1
481862,-7153,-170,-3065,-1,-8,-2,1
481867,-7128,-178,-3059,-1,-10,-2,1
481872,-7111,-188,-3042,-1,-12,-2,1
481877,-7099,-200,-3020,-1,-14,-2,1
481882,-7100,-207,-2996,-1,-16,-2,1
481887,-7106,-213,-2972,-1,-18,-2,1
481892,-7110,-216,-2941,-1,-19,-2,1
481897,-7114,-219,-2905,-2,-20,-2,1
481902,-7115,-222,-2871,-2,-21,-2,1
481907,-7115,-230,-2837,-2,-21,-2,1
481912,-7116,-234,-2811,-2,-22,-2,1
481917,-7119,-238,-2786,-2,-22,-2,1
481922,-7127,-236,-2762,-2,-22,-2,1
481927,-7142,-227,-2760,-2,-22,-2,1
481932,-7164,-218,-2764,-2,-21,-2,1
481937,-7191,-214,-2766,-2,-21,-2,1
481942,-7214,-207,-2772,-2,-19,-2,1
481947,-7240,-203,-2783,-2,-18,-2,1
481952,-7267,-201,-2790,-2,-17,-2,1
481957,-7294,-199,-2799,-2,-16,-2,1
481962,-7323,-203,-2800,-2,-15,-2,1
481967,-7362,-216,-2817,-2,-13,-2,1
481972,-7400,-229,-2845,-1,-10,-2,1
481977,-7424,-228,-2867,-1,-6,-2,1
481982,-7430,-221,-2861,-1,-3,-2,1
481987,-7417,-213,-2824,-1,0,-2,1
481992,-7402,-207,-2761,-1,2,-2,1
481997,-7396,-207,-2701,0,4,-2,1
482002,-7396,-217,-2652,0,4,-2,1
482007,-7397,-229,-2618,0,4,-2,1
482012,-7395,-247,-2594,0,4,-1,1
482017,-7384,-262,-2574,-1,3,-1,1
482022,-7369,-272,-2558,-1,2,-1,1
482027,-7356,-272,-2545,-1,2,-1,1
482032,-7350,-269,-2552,-1,1,-1,1
482037,-7348,-266,-2560,-1,0,-1,1
482042,-7350,-263,-2578,-1,0,-1,1
482047,-7354,-257,-2602,-1,-1,-1,1
482052,-7357,-250,-2627,-1,0,-1,1
482057,-7359,-235,-2651,-1,0,-1,1
482062,-7356,-220,-2671,-1,0,-1,1
482067,-7343,-203,-2697,-1,0,-1,1
482072,-7322,-184,-2715,-1,0,-1,1
482077,-7295,-166,-2730,-2,-1,0,1
482082,-7271,-154,-2745,-2,-2,0,1
482087,-7249,-141,-2745,-2,-5,0,1
482092,-7224,-132,-2742,-2,-7,0,1
482097,-7200,-127,-2731,-2,-9,0,1
482101,-7177,-124,-2716,-2,-10,0,1
482106,-7163,-125,-2691,-2,-12,0,1
482112,-7150,-127,-2662,-2,-13,0,1
482117,-7141,-129,-2635,-2,-14,0,1
482121,-7137,-134,-2613,-2,-14,0,1
482127,-7144,-141,-2596,-2,-13,0,1
482132,-7154,-149,-2577,-2,-13,0,1
482136,-7168,-157,-2570,-2,-12,0,1
482142,-7188,-161,-2562,-2,-11,0,1
482147,-7203,-160,-2556,-2,-11,-1,1
482151,-7220,-154,-2548,-2,-10,-1,1
482156,-7237,-144,-2547,-2,-9,-1,1
482162,-7251,-134,-2551,-2,-8,-1,1
482166,-7258,-120,-2552,-2,-7,-1,1
482171,-7260,-107,-2553,-2,-6,-1,1
482176,-7259,-93,-2548,-2,-4,-1,1
482181,-7255,-79,-2543,-1,-3,-1,1
482187,-7245,-66,-2540,-1,-1,-1,1
482191,-7228,-56,-2535,-1,0,-1,1
482196,-7206,-48,-2534,-1,0,-2,1
482201,-7184,-40,-2535,-1,1,-2,1
482206,-7163,-34,-2535,-1,1,-2,1
482211,-7147,-32,-2532,-1,1,-2,1
482216,-7131,-35,-2530,-1,0,-2,1
482221,-7117,-35,-2520,-1,-1,-2,1
482226,-7113,-36,-2514,-1,-2,-2,1
482231,-7116,-40,-2505,-1,-2,-2,1
482236,-7128,-44,-2499,-1,-3,-2,1
482241,-7145,-50,-2504,-1,-4,-2,1
482246,-7161,-61,-2504,-1,-4,-2,1
482251,-7174,-70,-2507,-1,-4,-2,1
482256,-7188,-77,-2505,-1,-3,-2,1
482261,-7198,-81,-2500,-1,-3,-2,1
482266,-7208,-85,-2494,-1,-3,-2,1
482271,-7213,-87,-2483,-1,-2,-2,1
482276,-7219,-88,-2477,-1,-2,-2,1
482281,-7224,-89,-2476,-1,-2,-2,1
482286,-7228,-85,-2478,-1,-2,-3,1
482291,-7230,-84,-2488,-1,-2,-3,1
482296,-7235,-83,-2492,-1,-3,-3,1
482301,-7247,-86,-2498,-1,-4,-3,1
482306,-7266,-94,-2506,-1,-4,-3,1
482311,-7288,-102,-2521,-1,-5,-3,1
482316,-7311,-114,-2528,-1,-5,-3,1
482321,-7334,-131,-2530,-1,-5,-3,1
482326,-7352,-148,-2525,-1,-5,-3,1
482331,-7366,-163,-2522,-1,-4,-3,1
482336,-7378,-179,-2515,-1,-4,-3,1
482341,-7385,-195,-2504,-1,-4,-3,1
482346,-7392,-208,-2502,-1,-5,-3,1
482351,-7393,-223,-2501,-1,-5,-2,1
482356,-7393,-233,-2494,-1,-6,-2,1
482361,-7395,-243,-2485,-1,-6,-2,1
482366,-7398,-249,-2475,-1,-6,-2,1
482371,-7401,-252,-2472,-1,-6,-2,1
482376,-7398,-257,-2471,-1,-7,-2,1
482381,-7391,-264,-2467,-1,-7,-2,1
482386,-7385,-271,-2461,-1,-8,-2,1
482391,-7386,-281,-2456,-1,-8,-2,1
482396,-7391,-292,-2456,-1,-9,-2,1
482401,-7393,-305,-2466,-1,-9,-2,1
482406,-7394,-315,-2506,-1,-9,-2,1
482411,-7409,-325,-2599,-1,-7,-2,1
482416,-7453,-322,-2751,-1,-1,-1,1
482421,-7557,-240,-2943,0,12,-1,1
482426,-7750,16,-3162,1,36,0,1
482431,-7987,312,-3360,2,72,0,1
482436,-8235,551,-3470,3,121,1,1
482441,-8463,712,-3473,3,182,2,1
482446,-8630,783,-3323,2,246,3,1
482451,-8842,686,-3142,2,311,4,1
482456,-9131,524,-3013,2,379,4,1
482461,-9592,445,-3083,3,453,5,1
482466,-10106,463,-3150,3,541,6,1
482471,-10588,533,-3184,3,647,8,1
482476,-11057,575,-3169,2,774,11,1
482481,-11455,530,-3130,0,920,14,1
482486,-11687,385,-2874,-3,1091,17,1
482491,-11892,152,-2479,-6,1283,18,1
482496,-11988,-196,-1913,-10,1430,18,1
482501,-11901,-746,-794,-12,1430,16,1
482506,-12038,-1429,297,-15,1430,18,1
482511,-11641,-2056,1715,-21,1430,21,1
482516,-10122,-2498,3538,-28,1430,22,1
482521,-7543,-2630,5241,-29,1430,20,1
482526,-4164,-2468,6832,-22,1430,17,1
482531,-1230,-2287,8196,-17,1430,17,1
482536,1285,-2070,9365,-21,1085,19,1
482541,3441,-1814,10367,-16,739,17,1
482546,5289,-1374,10617,-12,431,11,1
482551,6873,-713,10200,-9,195,7,1
482556,7396,113,9186,-7,38,4,1
482561,7513,828,8298,-2,-31,3,1
482566,7339,1344,7074,-3,-32,3,1
482571,7124,1658,6058,-6,-14,3,1
482576,6887,1806,5258,-9,2,3,1
482581,6619,1787,4578,-7,0,3,1
482586,6556,1646,4052,-4,-33,2,1
482591,6806,1446,3773,-2,-87,1,1
482596,7136,1232,3641,0,-150,0,1
482601,7460,995,3521,2,-229,-4,1
482606,7805,728,3385,4,-323,-7,1
482611,8724,502,2941,6,-419,-6,1
482616,9617,409,2524,9,-501,-3,1
482621,10251,502,2116,12,-591,-4,1
482626,10712,698,1515,14,-681,-5,1
482631,10960,854,1070,17,-764,-5,1
482636,11123,886,960,19,-850,-7,1
482641,11358,790,1200,20,-946,-9,1
482646,11479,596,1774,21,-1047,-12,1
482651,11297,349,2403,22,-1142,-15,1
482656,10913,58,3211,24,-1217,-17,1
482661,10364,-208,3635,22,-1264,-19,1
482666,9720,-427,3761,20,-1291,-21,1
482671,8911,-566,3623,16,-1311,-23,1
482676,7911,-649,3356,12,-1319,-23,1
482681,6740,-699,3184,7,-1308,-21,1
482686,5387,-706,3031,1,-1288,-18,1
482691,3894,-696,3036,-4,-1273,-15,1
482696,2520,-693,3243,-7,-1263,-15,1
482701,1353,-705,3528,-9,-1250,-13,1
482706,266,-737,3919,-10,-1229,-7,1
482711,-799,-756,4286,-12,-1196,-3,1
482716,-2067,-765,4749,-12,-1149,1,1
482721,-3664,-706,5277,-12,-1089,2,1
482726,-5480,-587,5545,-10,-986,2,1
482731,-7038,-523,5948,-6,-848,1,1
482736,-8372,-488,5846,-7,-695,4,1
482741,-9516,-502,5339,-8,-545,8,1
482746,-10497,-575,4634,-8,-381,9,1
482751,-11107,-671,4039,-8,-218,8,1
482756,-11331,-711,3570,-7,-73,7,1
482761,-11367,-659,3319,-5,41,6,1
482766,-11225,-531,3230,-4,121,4,1
482771,-11020,-374,3265,-3,177,3,1
482776,-10777,-225,3358,-1,215,1,1
482781,-10529,-120,3385,0,244,0,1
482786,-10269,-74,3297,2,267,0,1
482791,-10004,-84,3096,3,281,0,1
482796,-9726,-132,2777,3,289,1,1
482801,-9454,-214,2409,3,293,1,1
482806,-9196,-302,2023,3,291,2,1
482811,-8906,-384,1646,2,282,3,1
482816,-8578,-438,1319,0,264,3,1
482821,-8155,-458,1119,-1,241,3,1
482826,-7791,-436,966,-1,219,2,1
482831,-7544,-387,855,-1,195,1,1
482836,-7381,-329,774,0,166,1,1
482841,-7243,-282,615,-1,134,2,1
482846,-7135,-262,384,-1,103,2,1
482851,-7034,-256,93,-2,79,2,1
482856,-6968,-257,-215,-2,61,1,1
482861,-6930,-262,-496,-2,45,1,1
482866,-6914,-258,-709,-3,29,1,1
482871,-6930,-243,-853,-3,16,1,1
482876,-6987,-224,-950,-3,6,0,1
482881,-7068,-202,-1016,-2,0,0,1
482886,-7157,-187,-1085,-2,-2,0,1
482891,-7248,-176,-1176,-2,0,0,1
482896,-7326,-170,-1270,-2,5,0,1
482901,-7389,-169,-1363,-2,12,0,1
482906,-7439,-171,-1442,-2,19,0,1
482911,-7461,-166,-1498,-2,23,0,1
482916,-7452,-157,-1539,-2,23,-1,1
482921,-7415,-148,-1560,-2,19,-1,1
482926,-7362,-140,-1572,-2,12,-1,1
482931,-7303,-139,-1596,-2,3,-1,1
482936,-7250,-142,-1613,-2,-8,-2,1
482941,-7206,-151,-1628,-2,-17,-2,1
482946,-7187,-162,-1656,-2,-26,-2,1
482951,-7193,-170,-1667,-2,-33,-2,1
482956,-7204,-175,-1667,-2,-38,-2,1
482961,-7234,-173,-1668,-2,-40,-2,1
482966,-7273,-169,-1657,-2,-39,-2,1
482971,-7311,-159,-1656,-2,-37,-2,1
482976,-7353,-148,-1662,-2,-35,-2,1
482981,-7390,-135,-1656,-2,-32,-2,1
482986,-7416,-126,-1649,-1,-30,-2,1
482991,-7446,-119,-1642,-1,-27,-2,1
482996,-7481,-113,-1625,-1,-22,-2,1
483001,-7517,-104,-1617,-1,-17,-2,1
483006,-7564,-98,-1604,-1,-12,-2,1
483011,-7602,-95,-1596,-1,-6,-2,1
483016,-7628,-94,-1594,-1,-1,-2,1
483021,-7651,-93,-1582,-1,4,-2,1
483026,-7659,-95,-1575,-1,7,-2,1
483031,-7655,-100,-1578,-1,9,-2,1
483036,-7649,-105,-1582,-1,10,-2,1
483041,-7638,-107,-1577,-1,9,-2,1
483046,-7634,-108,-1568,-1,9,-2,1
483051,-7637,-112,-1550,-1,9,-2,1
483056,-7641,-118,-1536,-1,9,-2,1
483061,-7646,-125,-1527,-1,10,-2,1
483066,-7653,-134,-1519,-1,11,-2,1
483071,-7649,-138,-1517,-1,12,-2,1
483076,-7649,-140,-1520,-1,12,-2,1
483081,-7648,-138,-1524,-1,11,-2,1
483086,-7638,-131,-1540,-1,9,-2,1
483091,-7631,-121,-1555,-1,6,-2,1
483096,-7621,-112,-1571,-1,3,-2,1
483101,-7605,-106,-1582,-1,0,-2,1
483106,-7595,-101,-1596,-1,-4,-2,1
483110,-7585,-96,-1602,-1,-7,-2,1
483116,-7578,-92,-1609,-1,-10,-2,1
483120,-7575,-88,-1608,-1,-12,-3,1
483125,-7576,-87,-1611,-1,-13,-2,1
483130,-7577,-88,-1610,-1,-14,-2,1
483136,-7577,-88,-1606,-1,-14,-2,1
483140,-7578,-87,-1606,-1,-14,-2,1
483145,-7587,-81,-1606,-1,-13,-2,1
483150,-7597,-74,-1609,-1,-12,-2,1
483155,-7610,-63,-1613,-1,-11,-2,1
483160,-7622,-50,-1608,-1,-10,-2,1
483165,-7634,-39,-1603,-1,-8,-2,1
483170,-7642,-29,-1599,-1,-7,-2,1
483175,-7654,-26,-1597,-1,-5,-2,1
483180,-7664,-25,-1591,-1,-4,-2,1
483185,-7674,-27,-1588,-1,-4,-2,1
483190,-7687,-31,-1588,-1,-3,-2,1
483196,-7696,-34,-1586,-1,-3,-2,1
483200,-7704,-35,-1579,-1,-3,-2,1
483205,-7710,-35,-1574,-1,-2,-2,1
483210,-7705,-37,-1566,-1,-1,-2,1
483215,-7696,-40,-1554,-1,-1,-2,1
483220,-7675,-41,-1539,-1,0,-2,1
483225,-7646,-40,-1537,-1,0,-2,1
483230,-7616,-35,-1529,-1,-1,-2,1
483235,-7586,-26,-1531,-1,-1,-2,1
483240,-7556,-18,-1535,-1,-2,-2,1
483245,-7528,-10,-1535,-1,-3,-2,1
483250,-7502,-3,-1538,-1,-4,-2,1
483255,-7485,4,-1543,-1,-5,-2,1
483260,-7476,7,-1546,-1,-5,-2,1
483265,-7473,8,-1557,-1,-5,-2,1
483270,-7485,9,-1560,-1,-5,-2,1
483275,-7496,12,-1558,-1,-5,-2,1
483280,-7500,9,-1552,-1,-4,-2,1
483285,-7508,1,-1543,-1,-2,-2,1
483290,-7508,-5,-1532,-1,-1,-2,1
483295,-7502,-14,-1525,-1,-1,-2,1
483300,-7503,-28,-1510,-1,-1,-2,1
483305,-7504,-40,-1500,-1,-1,-2,1
483310,-7504,-46,-1492,-1,-1,-2,1
483315,-7502,-50,-1484,-1,-1,-2,1
483320,-7499,-56,-1478,-1,-2,-2,1
483325,-7497,-62,-1473,-1,-2,-2,1
483330,-7498,-71,-1468,-1,-2,-2,1
483335,-7491,-80,-1459,-1,-3,-2,1
483340,-7485,-86,-1457,-1,-3,-2,1
483345,-7485,-91,-1459,-1,-3,-2,1
483350,-7485,-95,-1464,-1,-4,-2,1
483355,-7490,-95,-1462,-1,-4,-2,1
483360,-7501,-99,-1458,-1,-5,-2,1
483365,-7516,-102,-1455,-1,-6,-2,1
483370,-7535,-107,-1452,-1,-6,-2,1
483375,-7556,-111,-1446,-1,-6,-2,1
483380,-7582,-114,-1447,-1,-5,-2,1
483385,-7606,-116,-1437,-1,-3,-2,1
483390,-7624,-118,-1433,-1,-3,-2,1
483395,-7634,-115,-1428,-1,-2,-2,1
483400,-7635,-110,-1426,-1,-2,-2,1
483405,-7634,-102,-1431,-1,-1,-2,1
483410,-7634,-98,-1434,-1,-2,-2,1
483415,-7628,-95,-1439,-1,-2,-2,1
483420,-7618,-89,-1441,-1,-2,-2,1
483425,-7607,-87,-1440,-1,-2,-2,1
483430,-7593,-87,-1439,-1,-3,-2,1
483435,-7579,-83,-1442,-1,-3,-2,1
483440,-7562,-84,-1439,-1,-4,-2,1
483445,-7546,-85,-1440,-1,-4,-2,1
483450,-7535,-84,-1439,-1,-4,-2,1
483455,-7530,-80,-1441,-1,-4,-2,1
483460,-7527,-71,-1441,-1,-4,-2,1
483465,-7530,-59,-1441,-1,-4,-2,1
483470,-7535,-57,-1439,-1,-3,-2,1
483475,-7531,-62,-1432,-1,-3,-2,1
483480,-7526,-71,-1426,-1,-3,-2,1
483485,-7518,-79,-1418,-1,-3,-2,1
483490,-7511,-83,-1411,-1,-2,-2,1
483495,-7511,-91,-1404,-1,-2,-2,1
483500,-7512,-96,-1398,-1,-3,-2,1
483505,-7512,-101,-1396,-1,-3,-2,1
483510,-7516,-109,-1393,-1,-4,-2,1
483515,-7523,-110,-1390,-1,-4,-2,1
483520,-7534,-113,-1384,-1,-5,-2,1
483525,-7547,-112,-1380,-1,-5,-2,1
483530,-7562,-115,-1385,-1,-5,-2,1
483535,-7575,-115,-1385,-1,-5,-2,1
483540,-7588,-114,-1387,-1,-4,-2,1
483545,-7593,-109,-1394,-1,-4,-2,1
483550,-7592,-102,-1400,-1,-3,-2,1
483555,-7585,-98,-1403,-1,-3,-2,1
483560,-7576,-90,-1411,-1,-2,-2,1
483565,-7570,-80,-1415,-1,-2,-2,1
483570,-7565,-69,-1417,-1,-3,-2,1
483575,-7561,-60,-1415,-1,-4,-2,1
483580,-7555,-57,-1413,-1,-4,-2,1
483585,-7552,-53,-1411,-1,-4,-2,1
483590,-7544,-52,-1403,-1,-4,-2,1
483595,-7537,-49,-1396,-1,-3,-2,1
483600,-7536,-49,-1396,-1,-3,-2,1
483605,-7535,-49,-1395,-1,-2,-2,1
483610,-7536,-48,-1390,-1,-2,-2,1
483615,-7536,-48,-1387,-1,-2,-2,1
483620,-7541,-47,-1383,-1,-3,-2,1
483625,-7543,-46,-1383,-1,-3,-2,1
483630,-7547,-45,-1387,-1,-3,-2,1
483635,-7556,-45,-1392,-1,-3,-2,1
483640,-7566,-45,-1403,-1,-3,-2,1
483645,-7584,-46,-1410,-1,-3,-2,1
483650,-7598,-48,-1412,-1,-3,-2,1
483655,-7613,-52,-1415,-1,-3,-2,1
483660,-7625,-55,-1412,-1,-3,-2,1
483665,-7637,-60,-1407,-1,-2,-2,1
483670,-7643,-69,-1404,-1,-2,-2,1
483675,-7645,-74,-1400,-1,-1,-2,1
483680,-7644,-80,-1393,-1,-1,-2,1
483685,-7642,-89,-1391,-1,-1,-2,1
483690,-7633,-97,-1383,-1,-1,-2,1
483695,-7620,-103,-1375,-1,-2,-2,1
483700,-7604,-106,-1375,-1,-3,-2,1
483705,-7594,-105,-1373,-1,-4,-2,1
483710,-7588,-102,-1373,-1,-5,-2,1
483715,-7584,-98,-1379,-1,-6,-2,1
483720,-7585,-95,-1388,-1,-7,-2,1
483725,-7592,-91,-1390,-1,-7,-2,1
483730,-7604,-86,-1389,-1,-8,-2,1
483735,-7619,-81,-1391,-1,-7,-2,1
483740,-7631,-78,-1386,-1,-7,-2,1
483745,-7642,-79,-1380,-1,-6,-2,1
483750,-7651,-84,-1374,-1,-6,-2,1
483755,-7660,-90,-1369,-1,-5,-2,1
483760,-7666,-95,-1358,-1,-4,-2,1
483765,-7672,-100,-1351,-1,-4,-2,1
483770,-7676,-104,-1344,-1,-4,-2,1
483775,-7678,-108,-1339,-1,-3,-2,1
483780,-7680,-107,-1327,-1,-3,-2,1
483785,-7681,-104,-1323,-1,-3,-2,1
483790,-7679,-98,-1322,-1,-2,-2,1
483795,-7674,-91,-1319,-1,-1,-2,1
483800,-7663,-85,-1321,-1,-1,-2,1
483805,-7645,-78,-1322,-1,-1,-2,1
483810,-7629,-70,-1326,-1,-1,-2,1
483815,-7613,-62,-1328,-1,-2,-2,1
483820,-7597,-57,-1330,-1,-3,-2,1
483825,-7579,-54,-1333,-1,-4,-2,1
483830,-7567,-56,-1328,-1,-4,-2,1
483835,-7557,-60,-1325,-1,-5,-2,1
483840,-7553,-67,-1321,-1,-5,-2,1
483845,-7555,-74,-1315,-1,-6,-2,1
483850,-7557,-78,-1309,-1,-6,-2,1
483855,-7564,-82,-1304,-1,-6,-2,1
483860,-7574,-85,-1303,-1,-6,-2,1
483865,-7588,-84,-1310,-1,-6,-2,1
483870,-7607,-77,-1313,-1,-5,-2,1
483875,-7621,-71,-1312,-1,-5,-2,1
483880,-7633,-68,-1311,-1,-3,-2,1
483885,-7643,-68,-1309,-1,-2,-2,1
483890,-7643,-66,-1301,-1,-2,-2,1
483895,-7636,-66,-1296,-1,-1,-2,1
483900,-7627,-69,-1292,-1,-1,-2,1
483905,-7619,-75,-1289,-1,-1,-2,1
483910,-7607,-81,-1281,-1,-1,-3,1
483915,-7598,-86,-1277,-1,-1,-2,1
483920,-7590,-91,-1271,-1,-2,-2,1
483925,-7582,-97,-1267,-1,-2,-2,1
483930,-7575,-106,-1262,-1,-3,-2,1
483935,-7571,-114,-1253,-1,-3,-2,1
483940,-7573,-119,-1241,-1,-4,-2,1
483945,-7578,-122,-1240,-1,-4,-2,1
483950,-7583,-121,-1240,-1,-5,-2,1
483955,-7593,-116,-1239,-1,-5,-2,1
483960,-7602,-110,-1239,-1,-5,-2,1
483965,-7613,-106,-1240,-1,-4,-2,1
483970,-7625,-101,-1242,-1,-3,-2,1
483975,-7632,-92,-1245,-1,-3,-2,1
483980,-7638,-83,-1250,-1,-3,-2,1
483985,-7635,-74,-1256,-1,-3,-2,1
483990,-7632,-68,-1263,-1,-3,-2,1
483995,-7628,-63,-1270,-1,-4,-2,1
484000,-7626,-62,-1269,-1,-4,-2,1
484005,-7628,-59,-1267,-1,-5,-2,1
484010,-7629,-56,-1264,-1,-5,-2,1
484015,-7632,-60,-1261,-1,-4,-2,1
484020,-7636,-64,-1260,-1,-4,-2,1
484025,-7640,-69,-1257,-1,-3,-2,1
484030,-7645,-76,-1251,-1,-3,-2,1
484035,-7649,-83,-1244,-1,-4,-2,1
484040,-7648,-84,-1235,-1,-4,-2,1
484045,-7647,-83,-1228,-1,-4,-2,1
484050,-7650,-81,-1224,-1,-3,-2,1
484055,-7655,-81,-1220,-1,-3,-2,1
484060,-7656,-81,-1214,-1,-3,-2,1
484065,-7661,-82,-1212,-1,-3,-2,1
484070,-7660,-85,-1215,-1,-3,-2,1
484075,-7656,-87,-1217,-1,-3,-2,1
484080,-7651,-89,-1222,-1,-2,-2,1
484085,-7645,-94,-1222,-1,-3,-2,1
484090,-7641,-102,-1220,-1,-3,-2,1
484095,-7636,-107,-1216,-1,-3,-2,1
484100,-7635,-113,-1215,-1,-4,-2,1
484105,-7638,-119,-1216,-1,-4,-2,1
484110,-7640,-122,-1219,-1,-4,-2,1
484115,-7634,-121,-1222,-1,-4,-2,1
484120,-7628,-121,-1220,-1,-4,-2,1
484125,-7623,-117,-1220,-1,-3,-2,1
484130,-7615,-112,-1219,-1,-3,-2,1
484135,-7609,-105,-1217,-1,-3,-2,1
484140,-7603,-98,-1214,-1,-3,-2,1
484145,-7601,-89,-1207,-1,-3,-2,1
484150,-7600,-81,-1203,-1,-2,-2,1
484155,-7597,-78,-1201,-1,-2,-2,1
484160,-7594,-76,-1201,-1,-2,-2,1
484164,-7591,-78,-1199,-1,-2,-2,1
484170,-7589,-79,-1197,-1,-2,-2,1
484174,-7588,-84,-1198,-1,-3,-2,1
484180,-7588,-91,-1193,-1,-3,-2,1
484185,-7589,-102,-1186,-1,-3,-2,1
484190,-7592,-112,-1177,-1,-3,-2,1
484194,-7593,-120,-1173,-1,-4,-2,1
484199,-7593,-126,-1172,-1,-4,-2,1
484204,-7598,-128,-1168,-1,-4,-2,1
484209,-7606,-125,-1161,-1,-4,-2,1
484214,-7612,-122,-1160,-1,-4,-2,1
484219,-7615,-117,-1163,-1,-4,-2,1
484224,-7614,-108,-1168,-1,-4,-2,1
484229,-7612,-96,-1171,-1,-4,-2,1
484234,-7612,-83,-1176,-1,-4,-2,1
484239,-7612,-74,-1179,-1,-4,-2,1
484244,-7614,-68,-1180,-1,-4,-2,1
484249,-7616,-67,-1181,-1,-4,-2,1
484254,-7612,-68,-1179,-1,-3,-2,1
484259,-7609,-70,-1171,-1,-3,-2,1
484264,-7604,-73,-1168,-1,-3,-2,1
484269,-7604,-78,-1163,-1,-3,-2,1
484274,-7609,-87,-1151,-1,-3,-2,1
484279,-7611,-96,-1139,-1,-3,-2,1
484284,-7613,-103,-1131,-1,-3,-2,1
484289,-7613,-108,-1125,-1,-3,-2,1
484294,-7616,-109,-1121,-1,-3,-2,1
484299,-7622,-107,-1118,-1,-3,-2,1
484304,-7628,-102,-1119,-1,-3,-2,1
484309,-7634,-96,-1124,-1,-3,-2,1
484314,-7643,-88,-1133,-1,-3,-2,1
484319,-7656,-83,-1140,-1,-3,-2,1
484324,-7661,-78,-1146,-1,-3,-2,1
484329,-7661,-74,-1148,-1,-2,-2,1
484334,-7660,-74,-1152,-1,-2,-2,1
484339,-7657,-77,-1160,-1,-2,-2,1
484344,-7652,-77,-1166,-1,-2,-2,1
484349,-7648,-80,-1168,-1,-2,-2,1
484354,-7645,-84,-1166,-1,-3,-2,1
484359,-7641,-91,-1163,-1,-3,-2,1
484364,-7637,-98,-1156,-1,-4,-2,1
484369,-7638,-103,-1149,-1,-4,-2,1
484374,-7641,-105,-1142,-1,-3,-2,1
484379,-7645,-105,-1140,-1,-3,-2,1
484384,-7647,-110,-1135,-1,-3,-2,1
484389,-7654,-112,-1140,-1,-4,-2,1
484394,-7661,-112,-1142,-1,-4,-2,1
484399,-7669,-112,-1146,-1,-4,-2,1
484404,-7676,-107,-1145,-1,-4,-2,1
484409,-7684,-102,-1140,-1,-4,-2,1
484414,-7685,-98,-1134,-1,-3,-2,1
484419,-7683,-98,-1135,-1,-2,-2,1
484424,-7679,-98,-1138,-1,-2,-2,1
484429,-7667,-102,-1135,-1,-2,-2,1
484434,-7655,-102,-1133,-1,-1,-2,1
484439,-7641,-103,-1132,-1,-2,-2,1
484444,-7632,-104,-1125,-1,-3,-2,1
484449,-7626,-104,-1123,-1,-3,-2,1
484454,-7622,-103,-1122,-1,-3,-2,1
484459,-7619,-103,-1122,-1,-3,-2,1
484464,-7619,-104,-1124,-1,-3,-2,1
484469,-7618,-100,-1125,-1,-3,-2,1
484474,-7617,-96,-1126,-1,-3,-2,1
484479,-7618,-90,-1127,-1,-3,-2,1
484484,-7619,-86,-1125,-1,-3,-2,1
484489,-7619,-84,-1125,-1,-3,-2,1
484494,-7618,-85,-1119,-1,-4,-2,1
484499,-7618,-87,-1111,-1,-4,-3,1
484504,-7617,-90,-1106,-1,-4,-3,1
484509,-7614,-95,-1103,-1,-4,-2,1
484514,-7612,-97,-1102,-1,-4,-2,1
484519,-7612,-100,-1104,-1,-4,-2,1
484524,-7614,-103,-1098,-1,-4,-3,1
484529,-7617,-110,-1092,-1,-3,-3,1
484534,-7617,-111,-1083,-1,-3,-3,1
484539,-7613,-111,-1079,-1,-3,-3,1
484544,-7606,-114,-1079,-1,-3,-3,1
484549,-7600,-114,-1078,-1,-3,-3,1
484554,-7592,-115,-1084,-1,-3,-3,1
484559,-7589,-114,-1086,-1,-4,-3,1
484564,-7590,-111,-1088,-1,-4,-3,1
484569,-7599,-112,-1089,-1,-4,-3,1
484574,-7610,-113,-1094,-1,-4,-3,1
484579,-7625,-111,-1095,-1,-4,-3,1
484584,-7634,-115,-1094,-1,-4,-3,1
484589,-7640,-120,-1096,-1,-3,-3,1
484594,-7645,-126,-1091,-1,-3,-3,1
484599,-7650,-131,-1086,-1,-3,-3,1
484604,-7652,-136,-1077,-1,-3,-2,1
484609,-7654,-137,-1070,-1,-4,-2,1
484614,-7651,-140,-1067,-1,-4,-3,1
484619,-7649,-141,-1067,-1,-4,-2,1
484624,-7650,-138,-1060,-1,-4,-2,1
484629,-7649,-134,-1054,-1,-4,-2,1
484634,-7645,-129,-1054,-1,-4,-2,1
484639,-7644,-124,-1052,-1,-4,-2,1
484644,-7643,-120,-1049,-1,-3,-2,1
484649,-7638,-117,-1054,-1,-3,-2,1
484654,-7634,-114,-1054,-1,-3,-2,1
484659,-7629,-111,-1059,-1,-3,-2,1
484664,-7627,-108,-1064,-1,-2,-2,1
484669,-7624,-105,-1066,-1,-2,-2,1
484674,-7619,-105,-1069,-1,-3,-2,1
484679,-7615,-108,-1067,-1,-3,-2,1
484684,-7610,-112,-1067,-1,-3,-2,1
484689,-7608,-116,-1068,-1,-4,-2,1
484694,-7606,-122,-1063,-1,-4,-2,1
484699,-7602,-128,-1057,-1,-5,-2,1
484704,-7601,-134,-1050,-1,-6,-2,1
484709,-7599,-141,-1039,-1,-6,-2,1
484714,-7599,-149,-1033,-1,-7,-2,1
484719,-7599,-151,-1028,-1,-7,-2,1
484724,-7598,-153,-1023,-1,-7,-2,1
484729,-7593,-151,-1016,-1,-7,-2,1
484734,-7589,-151,-1011,-1,-7,-2,1
484739,-7587,-147,-1009,-1,-8,-2,1
484744,-7591,-141,-1018,-1,-8,-2,1
484749,-7603,-114,-1051,-1,-7,-2,1
484754,-7615,-62,-1118,-1,-6,-2,1
484759,-7643,-4,-1213,0,-3,-2,1
484764,-7721,69,-1336,0,4,-1,1
484769,-7880,177,-1496,1,21,-1,1
484774,-8095,306,-1662,2,50,-1,1
484779,-8371,441,-1806,2,94,0,1
484784,-8722,557,-1900,3,152,1,1
484789,-9127,653,-1948,4,227,2,1
484794,-9618,760,-1956,5,322,3,1
484799,-10168,854,-1901,6,441,4,1
484804,-10689,919,-1803,6,572,6,1
484809,-11160,916,-1808,6,709,8,1
484814,-11619,798,-1802,5,848,10,1
484819,-12143,601,-1698,4,988,13,1
484824,-12749,387,-1513,4,1133,16,1
484829,-13268,199,-1255,3,1293,19,1
484834,-13713,-29,-791,1,1430,22,1
484839,-14094,-424,-59,-4,1430,23,1
484844,-14006,-1160,1006,-10,1430,22,1
484849,-13770,-2077,2752,-17,1430,25,1
484854,-12879,-2765,4699,-26,1430,27,1
484859,-10703,-3107,6367,-32,1430,25,1
484864,-7752,-3057,7797,-33,1430,23,1
484869,-4305,-2764,9023,-26,1430,21,1
484874,-1351,-2420,10074,-18,1240,13,1
484879,1181,-2033,10805,-17,863,13,1
484884,3352,-1616,10640,-12,525,11,1
484889,5213,-1063,10074,-6,238,6,1
484894,6582,-359,9187,-1,40,3,1
484899,7091,329,8407,4,-72,1,1
484904,7259,827,7462,6,-117,0,1
484909,7282,1143,6404,4,-122,-3,1
484914,7032,1348,5548,2,-107,-3,1
484919,6630,1455,4894,1,-86,-1,1
484924,6294,1455,4462,2,-73,-1,1
484929,6153,1353,4150,2,-68,0,1
484934,6238,1185,3882,3,-67,0,1
484939,6433,1001,3647,3,-68,-2,1
484944,6922,827,3401,2,-76,-2,1
484949,7472,686,2986,1,-83,0,1
484954,8000,576,2568,0,-98,1,1
484959,8460,479,2107,1,-115,1,1
484964,8831,361,1636,1,-136,1,1
484969,9059,209,1232,2,-162,2,1
484974,9178,43,855,2,-191,2,1
484979,9211,-103,593,3,-216,3,1
484984,9190,-204,308,4,-240,3,1
484989,9175,-251,14,6,-268,2,1
484994,9219,-228,-295,6,-300,2,1
484999,9271,-128,-497,7,-338,1,1
485004,9367,36,-631,8,-382,0,1
485009,9603,234,-711,10,-436,-1,1
485014,9960,431,-695,12,-505,-3,1
485019,10346,595,-488,14,-591,-4,1
485024,10750,701,-127,15,-692,-6,1
485029,11098,744,309,16,-801,-9,1
485034,11346,729,784,17,-917,-12,1
485039,11413,643,1249,17,-1033,-15,1
485044,11203,479,1649,16,-1143,-19,1
485049,10649,255,1984,15,-1236,-21,1
485054,9798,-19,2237,12,-1303,-23,1
485059,8666,-312,2434,8,-1343,-23,1
485064,7451,-552,2559,3,-1361,-23,1
485069,6146,-709,2678,-2,-1359,-21,1
485074,4791,-806,2820,-6,-1342,-19,1
485079,3438,-862,3075,-10,-1318,-15,1
485084,2027,-889,3450,-13,-1289,-10,1
485089,629,-907,3959,-15,-1255,-7,1
485094,-707,-903,4448,-15,-1209,-3,1
485099,-2069,-875,4900,-14,-1153,2,1
485104,-3556,-814,5297,-13,-1093,4,1
485109,-5159,-668,5524,-11,-1016,7,1
485114,-6762,-597,5651,-7,-904,6,1
485119,-8136,-583,5508,-5,-797,8,1
485124,-9314,-638,5205,-5,-691,11,1
485129,-10277,-698,4855,-6,-574,13,1
485134,-10873,-695,4569,-5,-445,12,1
485139,-11285,-604,4416,-4,-316,11,1
485144,-11507,-428,4266,-3,-199,9,1
485149,-11613,-197,4208,-2,-97,7,1
485154,-11651,31,4237,-2,-11,5,1
485159,-11654,207,4306,-2,62,3,1
485164,-11621,307,4379,-1,126,1,1
485169,-11534,326,4363,0,182,0,1
485174,-11373,281,4258,0,227,-1,1
485179,-11126,196,4109,1,264,-2,1
485184,-10799,94,3923,1,292,-2,1
485189,-10427,0,3712,1,312,-3,1
485194,-10038,-81,3523,2,325,-3,1
485199,-9647,-141,3332,2,330,-3,1
485204,-9258,-187,3140,2,326,-3,1
485209,-8881,-224,2951,1,315,-2,1
485214,-8514,-257,2726,1,296,-1,1
485219,-8165,-288,2466,1,273,0,1
485224,-7841,-303,2209,0,248,0,1
485229,-7483,-299,2049,1,226,0,1
485234,-7219,-271,1851,1,212,-1,1
485239,-7088,-229,1600,1,196,-2,1
485244,-7038,-192,1270,1,178,-1,1
485249,-7003,-177,900,0,157,-1,1
485254,-6962,-178,558,-1,138,-1,1
485259,-6916,-182,233,-1,122,-1,1
485264,-6878,-169,-41,-1,109,-1,1
485269,-6845,-149,-264,-1,95,-1,1
485274,-6815,-121,-457,-2,83,-2,1
485279,-6799,-84,-636,-2,73,-2,1
485284,-6802,-53,-813,-2,65,-2,1
485289,-6813,-32,-994,-2,57,-2,1
485294,-6811,-21,-1161,-2,49,-3,1
485299,-6801,-16,-1304,-2,40,-3,1
485304,-6784,-10,-1417,-2,30,-3,1
485309,-6758,-6,-1495,-2,20,-3,1
485313,-6737,-4,-1551,-2,9,-3,1
485319,-6720,-4,-1601,-2,-2,-3,1
485323,-6713,-12,-1651,-2,-13,-4,1
485329,-6722,-26,-1708,-2,-22,-4,1
485334,-6748,-42,-1759,-2,-30,-4,1
485339,-6777,-57,-1795,-2,-36,-4,1
485344,-6819,-66,-1806,-2,-41,-4,1
485349,-6860,-72,-1804,-2,-44,-4,1
485354,-6904,-73,-1789,-2,-47,-4,1
485359,-6955,-72,-1782,-2,-49,-4,1
485364,-7009,-67,-1767,-1,-50,-3,1
485369,-7072,-62,-1753,-1,-49,-3,1
485373,-7148,-55,-1752,-1,-47,-3,1
485378,-7226,-52,-1756,-1,-43,-3,1
485383,-7306,-48,-1751,-1,-37,-3,1
485388,-7386,-42,-1743,-1,-31,-3,1
485393,-7457,-34,-1737,-1,-25,-2,1
485399,-7526,-28,-1719,-1,-18,-2,1
485404,-7591,-25,-1708,-1,-11,-2,1
485409,-7644,-25,-1687,-1,-5,-2,1
485413,-7689,-24,-1668,-1,-1,-2,1
485419,-7720,-25,-1653,-1,3,-2,1
485423,-7740,-31,-1638,-1,6,-2,1
485428,-7749,-45,-1621,-1,8,-2,1
485433,-7756,-60,-1609,-1,9,-2,1
485439,-7757,-70,-1601,-1,10,-2,1
485443,-7753,-79,-1594,-1,9,-2,1
485448,-7754,-83,-1591,-1,8,-2,1
485453,-7753,-87,-1586,-1,6,-2,1
485458,-7753,-90,-1582,-1,4,-2,1
485463,-7753,-91,-1580,-1,3,-2,1
485468,-7743,-89,-1580,-1,1,-2,1
485473,-7728,-89,-1584,-1,0,-2,1
485478,-7713,-84,-1590,-1,-1,-2,1
485483,-7694,-81,-1592,-1,-2,-2,1
485488,-7675,-74,-1591,-1,-4,-2,1
485493,-7658,-71,-1586,-1,-6,-2,1
485498,-7641,-69,-1580,-1,-8,-2,1
485503,-7628,-71,-1580,-1,-9,-2,1
485508,-7623,-70,-1575,-1,-10,-2,1
485513,-7618,-69,-1562,-1,-10,-2,1
485518,-7618,-66,-1552,-1,-9,-2,1
485523,-7617,-63,-1544,-1,-8,-2,1
485528,-7616,-61,-1543,-1,-7,-2,1
485533,-7622,-59,-1537,-1,-6,-2,1
485538,-7630,-56,-1535,-1,-5,-2,1
485543,-7635,-58,-1527,-1,-3,-2,1
485548,-7636,-54,-1527,-1,0,-2,1
485553,-7634,-50,-1527,-1,2,-2,1
485558,-7621,-49,-1529,-1,5,-2,1
485563,-7605,-44,-1532,-1,6,-2,1
485568,-7582,-36,-1534,-1,7,-2,1
485573,-7552,-31,-1531,-1,8,-2,1
485578,-7523,-25,-1526,-1,8,-2,1
485583,-7488,-24,-1520,-1,7,-2,1
485588,-7449,-21,-1513,-1,6,-2,1
485593,-7417,-20,-1509,-1,5,-2,1
485598,-7385,-17,-1507,-1,3,-2,1
485603,-7358,-15,-1512,-1,1,-2,1
485608,-7346,-12,-1521,-1,-2,-2,1
485613,-7339,-10,-1524,-2,-3,-2,1
485618,-7346,-6,-1534,-2,-4,-2,1
485623,-7365,-3,-1541,-2,-5,-2,1
485628,-7388,2,-1551,-2,-5,-2,1
485633,-7413,6,-1562,-2,-4,-2,1
485638,-7446,12,-1572,-2,-3,-2,1
485643,-7474,14,-1580,-2,-2,-2,1
485648,-7499,14,-1583,-2,0,-2,1
485653,-7515,15,-1586,-2,2,-2,1
485658,-7524,11,-1590,-2,4,-2,1
485663,-7536,8,-1598,-1,6,-2,1
485668,-7543,5,-1607,-1,7,-2,1
485673,-7545,0,-1615,-1,9,-2,1
485678,-7545,-4,-1630,-1,9,-2,1
485683,-7547,-10,-1637,-1,10,-2,1
485688,-7547,-14,-1643,-1,10,-2,1
485693,-7551,-19,-1650,-1,10,-2,1
485698,-7555,-21,-1662,-1,9,-2,1
485703,-7559,-24,-1674,-1,9,-2,1
485708,-7570,-25,-1686,-1,9,-2,1
485713,-7580,-28,-1690,-1,8,-2,1
485718,-7582,-32,-1692,-1,7,-1,1
485723,-7581,-32,-1699,-1,6,-2,1
485728,-7577,-31,-1708,-1,5,-2,1
485733,-7576,-30,-1713,-1,4,-2,1
485738,-7580,-33,-1730,-1,3,-2,1
485743,-7585,-45,-1742,-1,2,-2,1
485748,-7596,-54,-1751,-1,2,-2,1
485753,-7609,-68,-1756,-1,1,-2,1
485758,-7624,-81,-1757,-1,2,-2,1
485763,-7636,-97,-1757,-1,3,-2,1
485768,-7646,-108,-1753,-1,5,-2,1
485773,-7646,-120,-1747,-1,6,-2,1
485778,-7644,-130,-1745,-1,8,-2,1
485783,-7643,-134,-1746,-1,11,-2,1
485788,-7642,-133,-1745,-1,12,-2,1
485793,-7641,-135,-1751,-1,15,-2,1
485798,-7636,-135,-1768,-1,16,-2,1
485803,-7621,-134,-1784,-1,18,-2,1
485808,-7599,-135,-1800,-1,19,-2,1
485813,-7574,-130,-1818,-1,19,-2,1
485818,-7544,-127,-1832,-1,19,-2,1
485823,-7516,-127,-1847,-1,18,-2,1
485828,-7487,-128,-1857,-1,16,-2,1
485833,-7455,-130,-1871,-1,13,-2,1
485838,-7432,-134,-1877,-1,11,-2,1
485843,-7408,-138,-1879,-1,8,-2,1
485848,-7388,-143,-1881,-1,5,-2,1
485853,-7370,-146,-1883,-1,3,-2,1
485858,-7347,-143,-1881,-1,0,-2,1
485863,-7332,-141,-1877,-1,-2,-2,1
485868,-7324,-139,-1872,-1,-3,-2,1
485873,-7320,-136,-1873,-1,-4,-2,1
485878,-7323,-133,-1874,-1,-5,-2,1
485883,-7331,-127,-1885,-1,-6,-2,1
485888,-7336,-115,-1893,-1,-6,-2,1
485893,-7343,-107,-1900,-1,-6,-2,1
485898,-7355,-100,-1907,-1,-6,-2,1
485903,-7365,-91,-1916,-1,-5,-2,1
485908,-7382,-78,-1932,-1,-5,-2,1
485913,-7398,-66,-1946,-1,-4,-2,1
485918,-7411,-57,-1960,-1,-4,-2,1
485923,-7423,-50,-1966,-1,-4,-2,1
485928,-7433,-46,-1973,-1,-4,-2,1
485933,-7445,-40,-1979,-1,-4,-2,1
485938,-7455,-33,-1981,-1,-4,-2,1
485943,-7467,-28,-1979,-1,-4,-2,1
485948,-7477,-27,-1977,-1,-3,-2,1
485953,-7482,-27,-1972,-1,-2,-2,1
485958,-7486,-29,-1967,-1,-2,-2,1
485963,-7483,-31,-1964,-1,-1,-2,1
485968,-7481,-33,-1959,-1,-1,-2,1
485973,-7475,-32,-1959,-1,0,-2,1
485978,-7465,-32,-1961,-1,-1,-2,1
485983,-7455,-33,-1964,-1,-1,-2,1
485988,-7445,-36,-1962,-1,-1,-2,1
485993,-7435,-44,-1954,-1,-2,-2,1
485998,-7419,-51,-1951,-1,-3,-2,1
486003,-7407,-55,-1955,-1,-4,-2,1
486008,-7404,-56,-1958,-1,-5,-2,1
486013,-7409,-57,-1959,-1,-6,-2,1
486018,-7415,-60,-1961,-1,-7,-2,1
486023,-7423,-61,-1964,-1,-7,-2,1
486028,-7437,-60,-1969,-1,-6,-2,1
486033,-7449,-58,-1969,-1,-6,-2,1
486038,-7465,-53,-1970,-1,-5,-2,1
486043,-7487,-42,-1967,-1,-3,-2,1
486048,-7503,-34,-1968,-1,-1,-2,1
486053,-7523,-25,-1968,-1,2,-2,1
486058,-7536,-17,-1972,-1,5,-2,1
486063,-7544,-14,-1979,-1,9,-2,1
486068,-7556,-8,-1987,-1,14,-2,1
486073,-7574,-4,-1991,-1,19,-2,1
486078,-7590,-3,-1991,-1,24,-2,1
486083,-7580,-15,-1999,-1,28,-2,1
486088,-7576,-24,-2014,-1,31,-2,1
486093,-7575,-40,-2018,0,36,-1,1
486098,-7507,-83,-2016,0,37,-1,1
486103,-7335,-114,-2019,0,31,-1,1
486108,-7158,-126,-2026,0,23,-1,1
486113,-7018,-118,-2029,0,14,-1,1
486118,-6948,-91,-2023,0,5,-1,1
486123,-6957,-59,-2003,0,-5,-1,1
486128,-7019,-34,-1975,-1,-13,-1,1
486133,-7092,-19,-1962,-1,-18,-1,1
486138,-7160,-15,-1947,-1,-19,-1,1
486143,-7200,-13,-1936,-2,-18,-1,1
486148,-7235,-13,-1946,-2,-22,-1,1
486153,-7272,-16,-1979,-2,-23,-1,1
486158,-7305,-22,-2004,-2,-21,-1,1
486163,-7339,-29,-2008,-2,-18,-1,1
486168,-7377,-32,-1999,-2,-13,-1,1
486173,-7429,-28,-1996,-2,-9,-1,1
486178,-7489,-19,-2016,-2,-5,-1,1
486183,-7547,-9,-2052,-2,1,-1,1
486188,-7602,-9,-2083,-2,7,-1,1
486193,-7648,-12,-2112,-2,13,-1,1
486198,-7684,-17,-2144,-2,19,-1,1
486203,-7715,-24,-2184,-2,23,-1,1
486208,-7744,-26,-2231,-1,25,-1,1
486213,-7763,-29,-2277,-1,26,-2,1
486218,-7768,-33,-2316,-1,25,-2,1
486223,-7754,-46,-2343,-1,24,-2,1
486228,-7726,-60,-2357,-1,24,-2,1
486233,-7684,-66,-2362,-1,24,-3,1
486238,-7636,-66,-2351,-1,25,-2,1
486243,-7577,-56,-2347,-1,26,-2,1
486248,-7511,-41,-2351,-1,28,-2,1
486253,-7455,-30,-2361,-1,30,-2,1
486258,-7415,-27,-2370,-1,31,-2,1
486263,-7386,-39,-2368,-1,31,-2,1
486268,-7361,-71,-2367,-1,32,-1,1
486273,-7339,-117,-2367,-1,32,-1,1
486278,-7311,-166,-2361,-1,33,-1,1
486283,-7279,-220,-2352,-1,34,-1,1
486288,-7263,-268,-2313,-1,33,-1,1
486293,-7282,-293,-2258,-2,30,-1,1
486298,-7299,-278,-2206,-2,28,-1,1
486303,-7316,-231,-2184,-3,25,-1,1
486308,-7322,-166,-2194,-3,22,-1,1
486313,-7294,-85,-2223,-3,17,-1,1
486318,-7214,2,-2263,-4,7,-2,1
486323,-7076,111,-2323,-4,-12,-2,1
486328,-6944,169,-2485,-4,-40,-2,1
486333,-6846,158,-2636,-3,-60,-2,1
486338,-6787,111,-2754,-4,-68,-2,1
486343,-6766,50,-2794,-4,-71,-2,1
486348,-6773,-2,-2772,-3,-73,-2,1
486353,-6803,-33,-2722,-3,-76,-2,1
486358,-6856,-44,-2637,-3,-77,-2,1
486363,-6913,-47,-2527,-3,-77,-1,1
486368,-6968,-58,-2404,-3,-75,-1,1
486373,-7006,-78,-2302,-3,-72,-1,1
486378,-6997,-111,-2238,-3,-69,0,1
486383,-6942,-148,-2208,-3,-66,0,1
486388,-6852,-172,-2212,-3,-65,1,1
486393,-6750,-173,-2222,-3,-68,2,1
486398,-6671,-148,-2222,-2,-74,2,1
486403,-6661,-106,-2175,-2,-81,2,1
486408,-6707,-54,-2090,-2,-88,3,1
486413,-6805,-4,-1982,-2,-95,3,1
486418,-6915,34,-1868,-2,-101,3,1
486423,-7035,66,-1759,-2,-102,3,1
486428,-7159,92,-1645,-2,-99,3,1
486433,-7291,114,-1532,-3,-93,3,1
486438,-7433,138,-1416,-3,-86,3,1
486443,-7587,161,-1300,-3,-77,2,1
486448,-7740,178,-1199,-3,-66,2,1
486453,-7882,179,-1128,-3,-54,2,1
486458,-8007,134,-1079,-3,-40,2,1
486463,-8093,117,-1046,-3,-22,2,1
486468,-8134,127,-1053,-3,-4,2,1
486473,-8161,141,-1055,-2,14,2,1
486477,-8183,159,-1050,-2,31,2,1
486483,-8201,183,-1052,-2,44,2,1
486487,-8222,200,-1073,-1,54,2,1
486493,-8249,207,-1125,-1,63,2,1
486498,-8281,208,-1191,0,71,2,1
486503,-8320,212,-1264,0,78,2,1
486507,-8354,224,-1342,0,85,1,1
486513,-8370,236,-1434,1,89,1,1
486517,-8364,252,-1530,1,91,0,1
486522,-8340,256,-1630,2,90,0,1
486528,-8281,245,-1716,2,86,-1,1
486532,-8200,223,-1791,2,80,-1,1
486538,-8111,208,-1846,3,74,-1,1
486543,-8024,200,-1896,3,67,-2,1
486548,-7942,204,-1943,3,61,-2,1
486552,-7866,214,-1975,3,53,-2,1
486557,-7792,227,-1998,3,47,-2,1
486562,-7717,232,-2015,3,41,-2,1
486567,-7643,230,-2026,3,35,-2,1
486572,-7577,208,-2032,3,30,-2,1
486578,-7527,176,-2017,3,25,-2,1
486583,-7495,151,-1965,2,23,-2,1
486587,-7480,148,-1884,2,23,-2,1
486592,-7474,150,-1800,2,23,-2,1
486597,-7466,146,-1756,1,24,-2,1
486602,-7449,121,-1767,1,23,-2,1
486607,-7416,78,-1812,1,22,-2,1
486612,-7363,28,-1869,0,19,-2,1
486617,-7312,-20,-1921,0,15,-2,1
486622,-7270,-55,-1963,0,12,-2,1
486627,-7249,-73,-1990,0,9,-2,1
486632,-7251,-78,-2008,0,7,-2,1
486637,-7269,-75,-2025,0,7,-2,1
486642,-7292,-66,-2048,0,7,-2,1
486647,-7316,-58,-2080,-1,9,-2,1
486652,-7338,-52,-2119,-1,11,-2,1
486657,-7356,-50,-2161,-1,13,-2,1
486662,-7372,-48,-2201,-1,15,-2,1
486667,-7382,-45,-2233,-1,17,-2,1
486672,-7391,-41,-2261,-1,18,-2,1
486677,-7393,-40,-2281,-1,19,-2,1
486682,-7394,-34,-2297,-1,20,-2,1
486687,-7387,-27,-2315,-1,21,-3,1
486692,-7367,-16,-2326,-1,22,-3,1
486697,-7343,-2,-2336,-1,21,-3,1
486702,-7307,17,-2353,-1,21,-3,1
486707,-7262,33,-2377,-1,20,-3,1
486712,-7213,48,-2406,-1,19,-3,1
486717,-7170,62,-2437,-1,17,-2,1
486722,-7138,68,-2466,-1,15,-2,1
486727,-7114,72,-2488,-1,13,-2,1
486732,-7104,76,-2506,-1,11,-2,1
486737,-7106,86,-2530,-1,9,-2,1
486742,-7118,95,-2547,-1,8,-2,1
486747,-7134,103,-2568,-1,7,-2,1
486752,-7155,111,-2592,-1,8,-2,1
486757,-7179,118,-2622,-1,8,-2,1
486762,-7202,119,-2654,-1,9,-2,1
486767,-7222,123,-2681,-1,10,-2,1
486772,-7241,124,-2703,-1,11,-2,1
486777,-7254,120,-2724,-1,12,-2,1
486782,-7263,116,-2746,-1,12,-2,1
486787,-7264,111,-2769,-1,13,-3,1
486792,-7264,105,-2792,-1,13,-2,1
486797,-7258,100,-2810,-1,12,-2,1
486802,-7244,96,-2818,-1,12,-3,1
486807,-7224,93,-2821,-1,12,-2,1
486812,-7200,91,-2821,-1,12,-2,1
486817,-7178,88,-2822,-1,11,-2,1
486822,-7161,87,-2832,-1,10,-2,1
486827,-7147,81,-2840,-1,8,-2,1
486832,-7133,76,-2848,-1,7,-2,1
486837,-7126,69,-2862,-1,5,-2,1
486842,-7127,67,-2873,-1,3,-2,1
486847,-7132,65,-2882,-1,2,-2,1
486852,-7134,65,-2901,-1,1,-2,1
486857,-7142,64,-2922,-1,1,-2,1
486862,-7156,62,-2935,-1,1,-2,1
486867,-7176,59,-2942,-1,1,-2,1
486872,-7197,56,-2948,-1,1,-2,1
486877,-7217,53,-2954,-1,2,-2,1
486882,-7233,47,-2963,-1,4,-2,1
486887,-7242,42,-2977,-1,6,-2,1
486892,-7244,40,-2987,-1,8,-2,1
486897,-7238,35,-2989,-1,9,-2,1
486902,-7227,32,-2985,-1,10,-2,1
486907,-7215,32,-2977,-1,11,-2,1
486912,-7198,29,-2976,-1,12,-2,1
486917,-7174,29,-2969,-1,12,-2,1
486922,-7146,31,-2968,-1,12,-2,1
486927,-7115,32,-2973,-1,11,-2,1
486932,-7089,34,-2984,-1,10,-2,1
486937,-7071,38,-2989,-1,9,-2,1
486942,-7058,39,-3000,-1,8,-2,1
486947,-7050,41,-3013,-1,7,-2,1
486952,-7050,41,-3022,-1,6,-3,1
486957,-7052,40,-3033,-1,4,-3,1
486962,-7055,34,-3044,-1,3,-3,1
486967,-7060,29,-3059,-1,2,-3,1
486972,-7065,23,-3071,-1,2,-3,1
486977,-7068,22,-3081,-1,2,-3,1
486982,-7071,24,-3085,-1,1,-3,1
486987,-7067,23,-3083,-1,1,-3,1
486992,-7063,23,-3086,-1,1,-3,1
486997,-7055,22,-3094,-1,1,-3,1
487002,-7045,23,-3103,-1,0,-3,1
487007,-7033,22,-3114,-1,-1,-3,1
487012,-7023,24,-3113,-1,-2,-3,1
487017,-7020,21,-3116,-1,-3,-3,1
487022,-7019,19,-3124,-1,-4,-3,1
487027,-7018,19,-3133,-1,-4,-3,1
487032,-7016,18,-3145,-1,-4,-3,1
487037,-7012,14,-3148,-1,-4,-3,1
487042,-7010,8,-3147,-1,-4,-3,1
487047,-7017,2,-3138,-1,-5,-3,1
487052,-7026,-3,-3120,-1,-5,-3,1
487057,-7039,-7,-3108,-1,-6,-3,1
487062,-7051,-14,-3096,-1,-7,-3,1
487067,-7066,-20,-3087,-1,-7,-3,1
487072,-7084,-29,-3093,-1,-7,-3,1
487077,-7100,-31,-3101,-1,-7,-3,1
487082,-7112,-34,-3104,-1,-6,-3,1
487087,-7122,-33,-3104,-1,-6,-3,1
487092,-7133,-28,-3103,-1,-6,-3,1
487097,-7138,-18,-3103,-1,-6,-3,1
487102,-7148,-9,-3102,-1,-6,-3,1
487107,-7156,2,-3106,-1,-6,-3,1
487112,-7167,15,-3115,-1,-5,-3,1
487117,-7174,26,-3129,-1,-4,-3,1
487122,-7183,38,-3143,-1,-3,-3,1
487127,-7193,53,-3149,-1,-1,-3,1
487132,-7200,64,-3153,0,1,-3,1
487137,-7206,73,-3155,0,4,-3,1
487142,-7205,79,-3157,0,7,-3,1
487147,-7199,82,-3167,0,9,-3,1
487152,-7190,77,-3177,0,12,-3,1
487157,-7183,71,-3187,0,14,-3,1
487162,-7181,63,-3198,0,16,-3,1
487167,-7184,60,-3214,0,18,-3,1
487172,-7194,64,-3228,0,20,-3,1
487177,-7210,67,-3247,1,23,-3,1
487182,-7226,74,-3272,1,27,-3,1
487187,-7243,82,-3300,1,31,-3,1
487192,-7255,91,-3323,1,35,-3,1
487197,-7246,96,-3351,1,38,-4,1
487202,-7208,95,-3391,1,39,-4,1
487207,-7145,92,-3432,2,38,-4,1
487212,-7052,91,-3474,2,34,-4,1
487217,-6920,95,-3493,2,26,-4,1
487222,-6734,107,-3469,2,12,-4,1
487227,-6452,127,-3424,2,-10,-4,1
487232,-6088,166,-3365,2,-43,-4,1
487237,-5658,218,-3292,2,-92,-4,1
487242,-5165,261,-3190,2,-162,-5,1
487247,-4599,267,-2983,1,-252,-5,1
487252,-3974,225,-2632,0,-363,-5,1
487257,-3315,157,-2016,-1,-490,-6,1
487262,-2676,98,-1048,-3,-635,-6,1
487267,-1948,56,350,-5,-804,-7,1
487272,-1145,53,2263,-7,-1004,-6,1
487277,-223,81,4279,-8,-1226,-4,1
487282,544,86,6008,-9,-1431,-1,1
487287,523,49,7489,-9,-1431,4,1
487292,-72,-266,8759,-6,-1431,9,1
487297,-1059,-749,9848,-4,-1431,11,1
487302,-2174,-1297,10781,-1,-1431,14,1
487307,-3125,-1849,11581,3,-1431,17,1
487312,-3907,-2296,12267,8,-1431,17,1
487317,-4746,-2465,12855,13,-1431,13,1
487322,-5739,-2374,13359,15,-1431,8,1
487327,-6557,-2098,13790,14,-1337,7,1
487332,-7032,-1456,13916,12,-1183,8,1
487337,-6512,-822,13232,7,-967,10,1
487342,-5698,-33,11376,6,-743,8,1
487347,-4582,737,9498,3,-520,8,1
487352,-3631,1457,7681,0,-325,8,1
487357,-2744,1970,6338,-3,-156,7,1
487362,-2116,2252,5575,-5,-8,7,1
487367,-1589,2328,5214,-7,114,6,1
487372,-1100,2231,5169,-7,205,5,1
487377,-511,2015,5236,-8,269,5,1
487382,123,1726,5309,-8,312,5,1
487387,797,1424,5324,-9,336,4,1
487392,1408,1156,5313,-9,354,3,1
487397,1911,938,5409,-10,379,1,1
487402,2336,752,5591,-11,406,0,1
487407,2677,619,5820,-11,432,-1,1
487412,2953,514,6095,-11,454,-1,1
487417,3172,432,6454,-12,469,-1,1
487422,3328,360,6900,-12,482,-2,1
487427,3362,269,7385,-13,493,-2,1
487432,3244,134,7861,-13,504,-3,1
487437,2966,-41,8273,-13,518,-4,1
487442,2541,-224,8573,-13,537,-5,1
487447,2021,-375,8779,-13,563,-6,1
487452,1420,-463,8922,-13,598,-8,1
487457,742,-492,9017,-13,643,-9,1
487462,10,-484,9082,-12,698,-11,1
487467,-762,-449,9134,-10,761,-12,1
487472,-1542,-387,9210,-8,828,-13,1
487477,-2289,-302,9250,-5,896,-14,1
487482,-2913,-228,9327,-2,964,-14,1
487487,-3404,-208,9467,1,1026,-13,1
487492,-3743,-254,9744,5,1074,-11,1
487497,-3916,-337,10086,9,1098,-8,1
487502,-3900,-396,10489,12,1085,-5,1
487507,-3755,-411,10756,13,1033,-1,1
487512,-3537,-384,10731,13,947,2,1
487517,-3357,-291,10466,11,818,3,1
487522,-3389,-183,10326,9,668,5,1
487526,-3416,-93,9932,9,538,6,1
487532,-3506,-22,9004,7,448,6,1
487536,-3802,-63,8459,6,386,6,1
487542,-3924,-152,7174,5,338,5,1
487547,-4052,-293,5913,2,306,4,1
487551,-4059,-419,4558,-1,268,3,1
487557,-4040,-495,3519,-3,218,3,1
487562,-4076,-489,2706,-4,163,2,1
487567,-4240,-404,2031,-4,115,2,1
487572,-4509,-275,1524,-4,79,1,1
487577,-4817,-142,1102,-4,52,1,1
487582,-5164,-43,773,-4,35,1,1
487586,-5479,-2,502,-3,26,1,1
487592,-5740,4,180,-3,25,1,1
487596,-5951,12,-194,-3,23,1,1
487601,-6112,19,-539,-2,12,0,1
487606,-6219,29,-798,-2,0,0,1
487611,-6338,39,-979,-1,-10,-1,1
487617,-6475,41,-1100,-1,-18,-1,1
487621,-6610,29,-1185,-1,-26,-2,1
487626,-6732,1,-1227,-1,-33,-2,1
487631,-6831,-41,-1243,-1,-40,-3,1
487636,-6903,-91,-1271,-1,-46,-3,1
487641,-6955,-143,-1292,-1,-52,-3,1
487646,-6993,-192,-1293,-1,-57,-4,1
487651,-7029,-233,-1289,-2,-61,-4,1
487656,-7067,-266,-1270,-2,-65,-4,1
487661,-7108,-288,-1237,-2,-67,-4,1
487666,-7152,-303,-1208,-2,-69,-3,1
487671,-7206,-306,-1178,-3,-68,-3,1
487676,-7268,-300,-1155,-3,-66,-3,1
487681,-7341,-290,-1149,-3,-64,-2,1
487686,-7421,-282,-1148,-3,-61,-2,1
487691,-7502,-271,-1153,-3,-57,-2,1
487696,-7579,-254,-1159,-3,-54,-1,1
487701,-7664,-230,-1159,-3,-50,-1,1
487706,-7757,-200,-1158,-3,-45,-1,1
487711,-7851,-169,-1159,-3,-39,-1,1
487716,-7941,-140,-1157,-2,-32,-1,1
487721,-8016,-115,-1143,-2,-25,-1,1
487726,-8069,-97,-1130,-2,-19,-1,1
487731,-8113,-85,-1105,-2,-14,-1,1
487736,-8144,-80,-1079,-2,-9,-1,1
487741,-8164,-78,-1055,-1,-6,-2,1
487746,-8175,-82,-1019,-1,-3,-1,1
487751,-8169,-88,-980,-1,-1,-2,1
487756,-8147,-94,-949,-1,0,-2,1
487761,-8121,-99,-914,-1,1,-2,1
487766,-8088,-100,-884,-1,0,-2,1
487771,-8052,-98,-866,-1,-1,-2,1
487776,-8013,-93,-845,-1,-2,-2,1
487781,-7976,-87,-832,-1,-3,-2,1
487786,-7939,-85,-819,-1,-5,-1,1
487791,-7902,-85,-802,-1,-7,-1,1
487796,-7869,-82,-785,-1,-8,-1,1
487801,-7839,-75,-771,-1,-10,-1,1
487806,-7808,-66,-756,-1,-11,-1,1
487811,-7780,-60,-745,-1,-13,-1,1
487816,-7758,-57,-733,-1,-14,-1,1
487821,-7741,-55,-721,-1,-16,-1,1
487826,-7731,-55,-716,-1,-17,-1,1
487831,-7736,-65,-707,-1,-18,-2,1
487836,-7748,-76,-703,-1,-19,-2,1
487841,-7766,-88,-695,-1,-18,-2,1
487846,-7779,-103,-682,-1,-17,-2,1
487851,-7788,-118,-662,-1,-15,-2,1
487856,-7798,-133,-640,-1,-13,-2,1
487861,-7807,-148,-622,-1,-10,-3,1
487866,-7815,-160,-608,-1,-8,-3,1
487871,-7820,-173,-592,-1,-5,-3,1
487876,-7812,-180,-575,-1,-2,-3,1
487881,-7798,-186,-555,-1,0,-3,1
487886,-7776,-189,-542,-1,3,-3,1
487891,-7748,-194,-537,-1,4,-4,1
487896,-7718,-196,-532,-1,5,-4,1
487901,-7687,-192,-532,-1,4,-4,1
487906,-7650,-187,-530,-1,4,-4,1
487911,-7616,-185,-520,-1,2,-4,1
487916,-7585,-180,-515,-1,1,-4,1
487921,-7557,-177,-507,-1,-1,-4,1
487926,-7537,-176,-507,-1,-3,-4,1
487931,-7521,-175,-509,-1,-5,-4,1
487936,-7514,-174,-514,-1,-6,-4,1
487941,-7517,-173,-516,-1,-7,-4,1
487946,-7523,-171,-519,-1,-8,-4,1
487951,-7531,-171,-522,-1,-8,-3,1
487956,-7541,-163,-525,-1,-8,-3,1
487961,-7553,-154,-524,-1,-8,-3,1
487966,-7576,-146,-522,-1,-8,-3,1
487971,-7600,-136,-523,-1,-8,-3,1
487976,-7624,-123,-530,-1,-8,-3,1
487981,-7653,-114,-535,-1,-7,-3,1
487986,-7682,-103,-548,-1,-6,-3,1
487991,-7706,-98,-556,-1,-5,-3,1
487996,-7732,-93,-564,-1,-3,-3,1
488001,-7758,-95,-570,-1,-2,-3,1
488006,-7783,-99,-571,-1,-1,-3,1
488011,-7803,-106,-570,-1,0,-3,1
488016,-7818,-113,-572,-1,1,-3,1
488021,-7824,-125,-576,-1,3,-3,1
488026,-7820,-133,-577,-1,5,-2,1
488031,-7808,-139,-585,-1,6,-2,1
488036,-7788,-143,-590,-1,6,-2,1
488041,-7763,-147,-584,-1,6,-2,1
488046,-7730,-150,-578,-1,6,-2,1
488051,-7699,-153,-564,-1,5,-1,1
488056,-7669,-157,-556,-1,4,-1,1
488061,-7642,-158,-549,-1,2,-1,1
488066,-7622,-159,-540,-1,0,-1,1
488071,-7610,-162,-530,-1,-1,-1,1
488076,-7600,-163,-527,-1,-3,-1,1
488081,-7594,-165,-521,-1,-5,-1,1
488086,-7594,-170,-516,-1,-6,-1,1
488091,-7601,-176,-513,-1,-7,-1,1
488096,-7615,-184,-515,-1,-7,-1,1
488101,-7639,-193,-518,-1,-6,-1,1
488106,-7668,-200,-522,-1,-5,-1,1
488111,-7695,-207,-525,-1,-3,-1,1
488116,-7720,-210,-528,-1,-2,-1,1
488121,-7737,-210,-527,-1,0,-1,1
488126,-7749,-211,-521,-1,1,-1,1
488131,-7750,-205,-521,-1,3,-1,1
488136,-7742,-196,-520,-1,4,-1,1
488141,-7730,-188,-519,-1,4,-2,1
488146,-7712,-179,-520,-1,4,-2,1
488151,-7692,-169,-520,-1,4,-2,1
488156,-7673,-163,-518,-1,3,-2,1
488161,-7657,-158,-516,-1,2,-2,1
488166,-7643,-159,-515,-1,1,-2,1
488171,-7634,-162,-519,-1,0,-2,1
488176,-7637,-166,-523,-1,-1,-2,1
488181,-7646,-172,-525,-1,-2,-2,1
488186,-7657,-172,-525,-1,-2,-2,1
488191,-7671,-176,-528,-1,-2,-2,1
488196,-7685,-176,-526,-1,-2,-2,1
488201,-7699,-169,-532,-1,-2,-2,1
488206,-7713,-161,-536,-1,-1,-2,1
488211,-7725,-153,-540,-1,-1,-2,1
488216,-7737,-145,-553,-1,-1,-2,1
488221,-7744,-140,-562,-1,-1,-2,1
488226,-7753,-131,-574,-1,-1,-2,1
488231,-7759,-122,-582,-1,-1,-2,1
488236,-7768,-113,-591,-1,0,-2,1
488241,-7772,-109,-597,-1,0,-2,1
488246,-7777,-105,-603,-1,1,-3,1
488251,-7780,-103,-611,-1,1,-2,1
488256,-7777,-104,-619,-1,1,-2,1
488261,-7773,-107,-621,-1,1,-2,1
488266,-7769,-112,-625,-1,1,-2,1
488271,-7770,-120,-624,-1,1,-2,1
488276,-7772,-130,-616,-1,1,-2,1
488281,-7768,-139,-612,-1,1,-2,1
488286,-7762,-145,-608,-1,1,-2,1
488291,-7757,-151,-605,-1,2,-2,1
488296,-7748,-153,-601,-1,2,-3,1
488301,-7739,-154,-607,-1,2,-3,1
488306,-7731,-152,-614,-1,2,-2,1
488311,-7724,-150,-623,-1,2,-2,1
488316,-7719,-150,-629,-1,3,-2,1
488321,-7715,-152,-635,-1,3,-2,1
488326,-7710,-153,-639,-1,3,-2,1
488331,-7703,-159,-645,-1,3,-2,1
488336,-7696,-163,-652,-1,3,-2,1
488341,-7691,-166,-656,-1,3,-2,1
488346,-7687,-169,-662,-1,3,-2,1
488351,-7680,-173,-670,-1,4,-2,1
488356,-7674,-179,-679,-1,4,-2,1
488361,-7666,-184,-684,-1,4,-2,1
488366,-7657,-190,-685,-1,4,-2,1
488371,-7649,-191,-684,-1,4,-2,1
488376,-7643,-195,-680,-1,3,-2,1
488381,-7634,-193,-679,-1,3,-2,1
488386,-7630,-191,-678,-1,3,-2,1
488391,-7625,-188,-676,-1,2,-2,1
488396,-7619,-182,-673,-1,2,-2,1
488401,-7617,-178,-672,-1,2,-2,1
488406,-7616,-178,-674,-1,1,-2,1
488411,-7615,-179,-678,-1,0,-2,1
488416,-7612,-181,-682,-1,0,-2,1
488421,-7610,-186,-692,-1,-1,-2,1
488426,-7605,-190,-702,-1,-1,-2,1
488431,-7603,-193,-707,-1,-2,-2,1
488436,-7605,-192,-710,-1,-3,-2,1
488441,-7610,-189,-705,-1,-4,-2,1
488446,-7620,-188,-698,-1,-4,-2,1
488451,-7627,-184,-701,-1,-4,-2,1
488456,-7633,-184,-703,-1,-3,-2,1
488461,-7635,-183,-707,-1,-3,-2,1
488466,-7636,-182,-708,-1,-3,-2,1
488471,-7642,-180,-708,-1,-3,-2,1
488476,-7650,-176,-707,-1,-3,-2,1
488481,-7664,-171,-706,-1,-2,-2,1
488486,-7681,-164,-704,-1,-1,-2,1
488491,-7698,-158,-705,-1,0,-2,1
488496,-7712,-152,-706,-1,1,-2,1
488501,-7718,-145,-711,-1,2,-2,1
488506,-7717,-139,-721,-1,3,-2,1
488511,-7715,-138,-731,-1,3,-2,1
488516,-7711,-139,-735,-1,3,-2,1
488521,-7706,-142,-734,-1,3,-2,1
488526,-7704,-144,-733,-1,3,-2,1
488531,-7705,-147,-736,-1,3,-2,1
488536,-7701,-147,-742,-1,3,-2,1
488541,-7695,-149,-749,-1,2,-2,1
488546,-7693,-149,-751,-1,2,-2,1
488550,-7689,-146,-752,-1,1,-2,1
488555,-7688,-144,-752,-1,0,-2,1
488561,-7686,-140,-752,-1,0,-2,1
488566,-7683,-138,-754,-1,-1,-2,1
488570,-7682,-139,-755,-1,-2,-2,1
488575,-7680,-136,-758,-1,-2,-2,1
488580,-7679,-133,-765,-1,-2,-2,1
488585,-7678,-131,-764,-1,-2,-2,1
488590,-7676,-132,-765,-1,-2,-2,1
488595,-7673,-133,-766,-1,-2,-2,1
488600,-7671,-135,-767,-1,-2,-2,1
488605,-7668,-141,-777,-1,-1,-2,1
488610,-7664,-145,-779,-1,-1,-2,1
488615,-7662,-148,-780,-1,0,-2,1
488620,-7660,-151,-776,-1,0,-2,1
488625,-7661,-154,-775,-1,0,-2,1
488630,-7663,-156,-777,-1,0,-2,1
488635,-7667,-158,-781,-1,0,-2,1
488640,-7670,-162,-785,-1,0,-2,1
488645,-7671,-163,-787,-1,0,-2,1
488650,-7673,-163,-788,-1,0,-2,1
488655,-7669,-160,-792,-1,-1,-2,1
488660,-7661,-158,-794,-1,-1,-2,1
488665,-7655,-155,-794,-1,-1,-2,1
488670,-7649,-153,-793,-1,-2,-2,1
488675,-7647,-150,-796,-1,-3,-2,1
488680,-7646,-146,-795,-1,-3,-2,1
488685,-7649,-149,-799,-1,-4,-2,1
488690,-7655,-149,-805,-1,-4,-2,1
488695,-7668,-150,-800,-1,-4,-2,1
488700,-7674,-150,-801,-1,-3,-2,1
488705,-7683,-151,-803,-1,-3,-2,1
488710,-7691,-152,-811,-1,-2,-2,1
488715,-7698,-152,-818,-1,-2,-2,1
488720,-7709,-154,-813,-1,-1,-2,1
488725,-7719,-158,-811,-1,-1,-2,1
488730,-7728,-157,-803,-1,-1,-2,1
488735,-7734,-157,-796,-1,-1,-2,1
488740,-7736,-156,-794,-1,0,-2,1
488745,-7733,-158,-794,-1,0,-2,1
488750,-7729,-160,-792,-1,0,-2,1
488755,-7718,-161,-794,-1,0,-2,1
488760,-7704,-158,-793,-1,0,-2,1
488765,-7688,-158,-785,-1,0,-2,1
488770,-7675,-158,-779,-1,-1,-2,1
488775,-7663,-158,-771,-1,-1,-2,1
488780,-7651,-157,-773,-1,-2,-2,1
488785,-7647,-156,-770,-1,-2,-2,1
488790,-7647,-156,-777,-1,-2,-2,1
488795,-7646,-152,-780,-1,-2,-2,1
488800,-7651,-152,-783,-1,-2,-2,1
488805,-7663,-153,-787,-1,-2,-2,1
488810,-7672,-157,-790,-1,-2,-2,1
488815,-7682,-161,-798,-1,-2,-2,1
488820,-7694,-165,-800,-1,-1,-2,1
488825,-7702,-170,-803,-1,-1,-2,1
488830,-7704,-174,-803,-1,0,-2,1
488835,-7706,-176,-800,-1,0,-2,1
488840,-7704,-181,-793,-1,0,-2,1
488845,-7701,-184,-791,-1,1,-2,1
488850,-7692,-188,-791,-1,1,-2,1
488855,-7681,-189,-786,-1,0,-2,1
488860,-7666,-189,-782,-1,0,-2,1
488865,-7657,-185,-774,-1,-1,-2,1
488870,-7645,-180,-771,-1,-2,-2,1
488875,-7637,-173,-770,-1,-3,-2,1
488880,-7634,-162,-773,-1,-3,-2,1
488885,-7634,-154,-776,-1,-3,-2,1
488890,-7640,-146,-783,-1,-4,-2,1
488895,-7647,-142,-793,-1,-4,-2,1
488900,-7656,-141,-801,-1,-4,-2,1
488905,-7662,-140,-802,-1,-4,-2,1
488910,-7667,-139,-801,-1,-3,-2,1
488915,-7672,-142,-795,-1,-3,-2,1
488920,-7672,-149,-796,-1,-2,-2,1
488925,-7673,-150,-793,-1,-2,-2,1
488930,-7674,-152,-787,-1,-2,-2,1
488935,-7671,-156,-785,-1,-1,-2,1
488940,-7672,-160,-784,-1,-1,-2,1
488945,-7673,-162,-787,-1,-1,-2,1
488950,-7670,-161,-792,-1,-1,-2,1
488955,-7665,-161,-797,-1,0,-2,1
488960,-7659,-161,-794,-1,-1,-2,1
488965,-7658,-163,-792,-1,-1,-2,1
488970,-7656,-160,-789,-1,-1,-2,1
488975,-7652,-158,-789,-1,-1,-2,1
488980,-7653,-157,-790,-1,-2,-2,1
488985,-7655,-153,-795,-1,-2,-2,1
488990,-7661,-150,-794,-1,-3,-2,1
488995,-7666,-149,-790,-1,-3,-2,1
489000,-7670,-151,-788,-1,-2,-2,1
489005,-7675,-155,-791,-1,-2,-2,1
489010,-7675,-158,-791,-1,-2,-2,1
489015,-7677,-159,-792,-1,-2,-2,1
489020,-7677,-159,-792,-1,-3,-2,1
489025,-7681,-162,-798,-1,-3,-2,1
489030,-7684,-161,-804,-1,-3,-2,1
489035,-7692,-157,-804,-1,-3,-2,1
489040,-7700,-151,-799,-1,-3,-2,1
489045,-7705,-146,-798,-1,-3,-2,1
489050,-7707,-141,-799,-1,-2,-2,1
489055,-7704,-134,-803,-1,-1,-2,1
489060,-7696,-130,-814,-1,0,-2,1
489065,-7691,-125,-823,-1,1,-2,1
489070,-7690,-124,-829,-1,1,-2,1
489075,-7690,-123,-831,-1,1,-2,1
489080,-7688,-124,-829,-1,1,-2,1
489085,-7689,-127,-824,-1,1,-2,1
489090,-7694,-132,-824,-1,1,-2,1
489095,-7704,-138,-819,-1,1,-2,1
489100,-7711,-147,-817,-1,1,-2,1
489105,-7717,-156,-823,-1,1,-2,1
489110,-7721,-163,-823,-1,0,-2,1
489115,-7722,-168,-828,-1,0,-2,1
489120,-7721,-170,-827,-1,0,-2,1
489125,-7715,-174,-828,-1,0,-2,1
489130,-7710,-176,-828,-1,0,-2,1
489135,-7705,-174,-833,-1,0,-2,1
489140,-7701,-170,-838,-1,0,-2,1
489145,-7695,-169,-840,-1,0,-2,1
489150,-7682,-166,-833,-1,0,-2,1
489155,-7671,-165,-831,-1,0,-2,1
489160,-7662,-164,-831,-1,-1,-2,1
489165,-7653,-166,-832,-1,-1,-2,1
489170,-7652,-170,-842,-1,-1,-2,1
489175,-7655,-174,-841,-1,-1,-2,1
489180,-7661,-178,-839,-1,-1,-2,1
489185,-7674,-183,-834,-1,-1,-2,1
489190,-7687,-189,-834,-1,-1,-2,1
489195,-7700,-191,-837,-1,-1,-2,1
489200,-7712,-193,-839,-1,0,-2,1
489205,-7719,-196,-837,-1,0,-2,1
489210,-7720,-193,-837,-1,1,-2,1
489215,-7717,-191,-837,-1,1,-2,1
489220,-7707,-184,-833,-1,2,-2,1
489225,-7691,-176,-826,-1,2,-2,1
489230,-7676,-167,-821,-1,2,-2,1
489235,-7661,-160,-818,-1,1,-2,1
489240,-7647,-154,-822,-1,1,-2,1
489245,-7632,-151,-824,-1,0,-2,1
489250,-7618,-150,-828,-1,-1,-2,1
489255,-7607,-146,-825,-1,-1,-2,1
489260,-7602,-140,-822,-1,-1,-2,1
489265,-7596,-140,-821,-1,-2,-2,1
489270,-7591,-139,-822,-1,-2,-2,1
489275,-7588,-138,-819,-1,-3,-2,1
489280,-7589,-135,-819,-1,-3,-2,1
489285,-7591,-135,-823,-1,-3,-2,1
489290,-7596,-133,-833,-1,-3,-2,1
489295,-7600,-132,-841,-1,-3,-2,1
489300,-7605,-130,-843,-1,-3,-2,1
489305,-7612,-126,-846,-1,-3,-2,1
489310,-7621,-123,-850,-1,-3,-2,1
489315,-7631,-121,-855,-1,-3,-2,1
489320,-7639,-118,-859,-1,-3,-2,1
489325,-7646,-119,-859,-1,-3,-2,1
489330,-7654,-122,-862,-1,-3,-2,1
489335,-7658,-126,-860,-1,-3,-2,1
489340,-7662,-130,-863,-1,-2,-2,1
489345,-7662,-137,-858,-1,-2,-2,1
489350,-7663,-147,-860,-1,-1,-2,1
489355,-7660,-158,-863,-1,-1,-2,1
489360,-7664,-169,-858,-1,-1,-2,1
489365,-7670,-174,-856,-1,0,-2,1
489370,-7673,-173,-850,-1,0,-2,1
489375,-7676,-175,-845,-1,1,-2,1
489380,-7681,-176,-849,-1,1,-2,1
489385,-7687,-177,-857,-1,2,-2,1
489390,-7687,-181,-869,-1,2,-2,1
489395,-7686,-182,-875,-1,3,-2,1
489400,-7683,-185,-875,-1,2,-2,1
489405,-7681,-182,-880,-1,2,-2,1
489410,-7681,-184,-883,-1,1,-2,1
489415,-7685,-185,-880,-1,1,-2,1
489420,-7689,-185,-882,-1,1,-2,1
489425,-7691,-186,-880,-1,2,-2,1
489430,-7693,-190,-884,-1,2,-2,1
489435,-7694,-191,-886,-1,3,-2,1
489440,-7698,-191,-893,-1,3,-2,1
489445,-7704,-190,-895,-1,4,-2,1
489450,-7709,-193,-893,-1,4,-2,1
489455,-7719,-191,-898,-1,5,-2,1
489459,-7730,-188,-909,-1,7,-2,1
489464,-7739,-185,-922,-1,9,-2,1
489469,-7741,-176,-935,-1,10,-2,1
489474,-7745,-171,-946,-1,12,-2,1
489479,-7750,-162,-958,-1,14,-2,1
489484,-7757,-155,-973,-1,15,-2,1
489489,-7764,-157,-992,-1,17,-2,1
489494,-7770,-157,-1013,-1,19,-2,1
489499,-7774,-158,-1036,-1,21,-2,1
489505,-7773,-162,-1060,0,23,-2,1
489510,-7767,-164,-1078,0,25,-2,1
489514,-7766,-165,-1095,0,26,-2,1
489520,-7761,-163,-1118,0,27,-2,1
489525,-7752,-159,-1134,0,28,-3,1
489529,-7736,-151,-1146,0,29,-2,1
489535,-7715,-146,-1155,0,30,-3,1
489539,-7689,-147,-1175,0,30,-3,1
489544,-7660,-150,-1191,0,29,-3,1
489550,-7631,-152,-1208,0,28,-3,1
489555,-7602,-155,-1225,0,26,-3,1
489560,-7578,-157,-1239,0,23,-3,1
489564,-7554,-162,-1251,0,20,-3,1
489570,-7539,-162,-1270,0,18,-3,1
489575,-7531,-160,-1294,0,15,-3,1
489580,-7523,-155,-1323,0,13,-3,1
489584,-7505,-146,-1350,-1,10,-3,1
489589,-7473,-133,-1359,-1,6,-3,1
489594,-7447,-128,-1363,-1,2,-3,1
489599,-7432,-134,-1366,-1,-1,-3,1
489604,-7424,-144,-1379,-1,-3,-3,1
489609,-7419,-154,-1398,-1,-4,-3,1
489614,-7420,-157,-1411,-1,-6,-2,1
489619,-7426,-152,-1419,-1,-6,-2,1
489624,-7438,-143,-1422,-1,-6,-2,1
489629,-7456,-136,-1435,-1,-5,-2,1
489634,-7479,-134,-1453,-1,-4,-2,1
489639,-7499,-135,-1467,-1,-2,-2,1
489644,-7514,-131,-1479,-1,-1,-2,1
489649,-7534,-129,-1491,-1,-1,-2,1
489654,-7556,-126,-1499,-1,0,-2,1
489659,-7574,-126,-1508,-1,1,-2,1
489664,-7575,-126,-1513,-1,1,-2,1
489669,-7546,-128,-1509,-1,-1,-2,1
489674,-7484,-128,-1497,-1,-3,-2,1
489679,-7385,-137,-1481,-1,-8,-2,1
489684,-7226,-146,-1459,-1,-17,-1,1
489689,-6995,-138,-1442,-1,-31,-1,1
489694,-6689,-126,-1400,-1,-52,0,1
489699,-6294,-139,-1328,-1,-88,0,1
489704,-5773,-174,-1192,-2,-144,0,1
489709,-5149,-221,-917,-2,-226,0,1
489714,-4494,-316,-376,-3,-336,0,1
489719,-3853,-477,513,-5,-472,0,1
489724,-3275,-640,1753,-7,-622,1,1
489729,-2894,-663,2999,-9,-767,3,1
489734,-2321,-542,3915,-9,-866,7,1
489739,-1794,-417,4783,-9,-948,11,1
489744,-1732,-397,6152,-11,-1065,12,1
489749,-1910,-500,7613,-12,-1196,15,1
489754,-1984,-727,8866,-9,-1317,19,1
489759,-1972,-1010,9939,-4,-1410,22,1
489764,-2046,-1254,10859,2,-1431,22,1
489769,-2476,-1407,11648,7,-1431,20,1
489774,-3287,-1432,12324,11,-1431,17,1
489779,-4405,-1345,12904,14,-1431,13,1
489784,-5551,-1117,13401,15,-1366,8,1
489789,-6817,-722,13827,15,-1232,6,1
489794,-7650,-6,13832,13,-1050,4,1
489799,-7573,797,12347,10,-807,5,1
489804,-6894,1559,9867,6,-550,4,1
489809,-5875,2168,7870,1,-308,2,1
489814,-4804,2476,6593,-5,-103,1,1
489819,-3742,2477,6006,-9,55,-1,1
489824,-2751,2185,6081,-11,168,-2,1
489829,-1813,1667,6445,-11,224,-2,1
489834,-738,1096,6774,-10,225,-2,1
489839,442,599,6933,-9,194,-2,1
489844,1638,220,6887,-8,147,-2,1
489849,2705,-21,6814,-7,95,-2,1
489854,3561,-156,6767,-6,54,-1,1
489859,4124,-189,6703,-7,29,0,1
489864,4445,-136,6702,-7,21,0,1
489869,4511,-29,6739,-7,31,0,1
489874,4367,87,6796,-7,52,0,1
489879,4146,193,6861,-7,81,0,1
489884,3932,288,6888,-7,114,0,1
489889,3688,368,6906,-7,151,0,1
489894,3467,421,6929,-7,185,0,1
489899,3290,448,6963,-7,220,0,1
489904,3123,450,6998,-8,256,-1,1
489909,2942,433,7054,-8,296,-1,1
489914,2710,398,7140,-9,342,-2,1
489919,2402,344,7263,-9,394,-3,1
489924,2040,265,7427,-10,451,-4,1
489929,1623,168,7656,-11,511,-5,1
489934,1162,76,7931,-11,571,-6,1
489939,682,-8,8228,-11,629,-7,1
489944,232,-91,8509,-11,684,-9,1
489949,-186,-172,8756,-10,734,-10,1
489954,-575,-246,8983,-8,778,-11,1
489959,-964,-314,9219,-6,816,-12,1
489964,-1347,-392,9464,-4,850,-12,1
489969,-1729,-482,9671,-1,882,-11,1
489974,-2105,-573,9843,2,908,-10,1
489979,-2485,-647,9932,4,925,-9,1
489984,-2856,-705,9951,7,930,-7,1
489989,-3218,-752,9905,9,920,-5,1
489994,-3535,-819,9817,11,894,-3,1
489999,-3717,-913,9750,12,844,0,1
490004,-3949,-896,9526,11,762,1,1
490009,-4192,-737,8953,9,673,3,1
490014,-4409,-526,8690,8,596,4,1
490019,-4617,-332,8340,8,535,4,1
490024,-4792,-190,7663,8,489,4,1
490029,-4880,-120,6934,7,451,4,1
490034,-4872,-98,6189,5,413,3,1
490039,-4754,-109,5422,4,364,3,1
490044,-4599,-131,4659,3,306,2,1
490049,-4422,-135,3898,1,246,2,1
490054,-4298,-92,3129,0,184,1,1
490059,-4236,-17,2431,-1,116,1,1
490064,-4276,62,1857,-1,51,0,1
490069,-4432,133,1390,-2,-4,-1,1
490074,-4667,189,1003,-2,-47,-2,1
490079,-4981,227,701,-2,-80,-2,1
490084,-5326,241,478,-3,-106,-3,1
490089,-5656,234,297,-3,-124,-3,1
490094,-5954,206,158,-3,-136,-4,1
490099,-6205,158,41,-4,-143,-4,1
490104,-6417,97,-62,-4,-147,-4,1
490109,-6615,31,-121,-4,-147,-5,1
490114,-6797,-34,-148,-4,-144,-5,1
490119,-6967,-96,-166,-4,-138,-5,1
490124,-7130,-154,-161,-4,-129,-4,1
490129,-7267,-203,-150,-4,-118,-4,1
490134,-7385,-236,-139,-3,-104,-4,1
490139,-7500,-261,-119,-3,-88,-3,1
490144,-7599,-279,-92,-3,-73,-3,1
490149,-7687,-292,-74,-3,-57,-3,1
490154,-7764,-302,-63,-3,-42,-2,1
490159,-7815,-303,-64,-3,-28,-2,1
490164,-7854,-294,-70,-3,-16,-1,1
490169,-7877,-273,-66,-2,-7,-1,1
490174,-7881,-240,-52,-2,-2,-1,1
490179,-7886,-200,-25,-2,-1,-1,1
490184,-7899,-160,9,-2,-1,-1,1
490189,-7928,-122,39,-2,-2,-1,1
490194,-7970,-89,77,-2,-2,-1,1
490199,-8006,-59,109,-2,-2,-1,1
490204,-8025,-22,140,-2,-1,-1,1
490209,-8037,18,158,-2,-2,-1,1
490214,-8039,45,171,-1,-2,-2,1
490219,-8041,55,176,-1,-1,-2,1
490224,-8040,40,202,-1,1,-2,1
490229,-8036,17,227,-1,2,-2,1
490234,-8033,-5,246,-1,4,-2,1
490239,-8027,-22,257,-1,5,-2,1
490244,-8015,-28,261,-1,6,-2,1
490249,-8006,-26,264,-1,7,-2,1
490254,-7985,-23,268,-1,7,-2,1
490259,-7962,-18,267,0,6,-2,1
490264,-7937,-20,275,0,5,-2,1
490269,-7911,-29,288,0,3,-2,1
490274,-7884,-38,299,0,0,-2,1
490279,-7862,-49,320,-1,-3,-2,1
490284,-7839,-60,333,-1,-6,-2,1
490289,-7823,-70,350,-1,-10,-2,1
490294,-7808,-81,359,-1,-13,-2,1
490299,-7790,-93,359,-1,-16,-2,1
490304,-7774,-108,351,-1,-19,-2,1
490309,-7762,-125,352,-1,-21,-2,1
490314,-7759,-140,354,-1,-22,-2,1
490319,-7770,-154,361,-1,-22,-2,1
490324,-7788,-167,371,-1,-22,-3,1
490329,-7813,-179,381,-1,-21,-3,1
490334,-7834,-191,394,-1,-19,-3,1
490339,-7847,-204,403,-1,-16,-3,1
490344,-7859,-215,405,-1,-12,-3,1
490349,-7868,-225,410,-1,-9,-3,1
490354,-7869,-233,417,-1,-5,-3,1
490359,-7864,-239,423,-1,-1,-3,1
490364,-7848,-248,432,-1,2,-3,1
490369,-7821,-253,432,-1,5,-4,1
490374,-7792,-257,435,-1,7,-4,1
490379,-7754,-258,442,-1,7,-4,1
490384,-7709,-256,445,-1,7,-4,1
490389,-7669,-250,455,-1,6,-4,1
490394,-7628,-245,466,-1,5,-4,1
490399,-7590,-237,480,-1,2,-4,1
490404,-7568,-228,487,-1,-1,-4,1
490409,-7548,-220,487,-1,-5,-4,1
490414,-7537,-212,487,-1,-9,-4,1
490419,-7539,-202,487,-2,-12,-4,1
490424,-7548,-197,481,-2,-15,-4,1
490429,-7563,-193,474,-2,-17,-4,1
490434,-7584,-195,469,-2,-18,-4,1
490439,-7607,-198,468,-2,-19,-4,1
490444,-7638,-198,474,-2,-18,-4,1
490449,-7669,-194,479,-2,-17,-4,1
490454,-7694,-192,480,-1,-15,-4,1
490459,-7719,-182,485,-1,-12,-4,1
490464,-7739,-170,483,-1,-9,-4,1
490469,-7751,-159,473,-1,-7,-4,1
490474,-7759,-152,470,-1,-4,-3,1
490479,-7760,-151,469,-1,-3,-3,1
490484,-7759,-149,474,-1,-1,-3,1
490489,-7755,-148,487,-1,-1,-3,1
490493,-7745,-148,505,-1,-1,-3,1
490499,-7736,-147,520,-1,-2,-3,1
490504,-7731,-144,530,-1,-3,-3,1
490509,-7720,-138,541,-1,-5,-3,1
490514,-7716,-133,550,-1,-7,-3,1
490518,-7721,-125,559,-1,-9,-3,1
490524,-7721,-115,568,-1,-13,-3,1
490529,-7720,-104,571,-1,-16,-3,1
490534,-7714,-95,573,-1,-21,-3,1
490538,-7707,-92,576,-1,-25,-3,1
490543,-7697,-97,580,-1,-29,-4,1
490549,-7679,-107,586,-1,-33,-4,1
490554,-7655,-120,602,-1,-38,-4,1
490558,-7632,-139,637,-1,-42,-4,1
490563,-7607,-162,673,-1,-46,-4,1
490569,-7584,-183,705,-1,-50,-4,1
490573,-7567,-199,742,-1,-54,-3,1
490578,-7553,-214,791,-1,-57,-3,1
490584,-7580,-241,847,-1,-60,-3,1
490588,-7645,-260,986,-2,-56,-3,1
490593,-7691,-264,1118,-2,-51,-3,1
490599,-7724,-267,1237,-2,-45,-3,1
490603,-7744,-259,1307,-3,-37,-3,1
490608,-7763,-248,1372,-3,-29,-3,1
490613,-7777,-234,1443,-4,-22,-3,1
490618,-7793,-221,1517,-4,-16,-3,1
490623,-7808,-206,1586,-5,-11,-3,1
490628,-7822,-193,1626,-5,-7,-3,1
490633,-7823,-186,1638,-5,-3,-3,1
490638,-7805,-184,1646,-6,0,-3,1
490643,-7785,-189,1648,-6,3,-3,1
490648,-7760,-190,1639,-6,5,-3,1
490653,-7745,-193,1633,-6,6,-3,1
490658,-7734,-189,1615,-7,6,-3,1
490663,-7725,-176,1586,-7,6,-3,1
490668,-7720,-160,1547,-7,8,-3,1
490673,-7714,-144,1488,-7,11,-3,1
490678,-7701,-133,1422,-7,13,-3,1
490683,-7696,-128,1361,-7,15,-3,1
490688,-7692,-131,1294,-7,16,-3,1
490693,-7689,-142,1237,-6,17,-3,1
490698,-7683,-154,1185,-6,16,-3,1
490703,-7675,-170,1139,-6,16,-3,1
490708,-7674,-187,1108,-6,14,-3,1
490713,-7675,-200,1078,-5,12,-3,1
490718,-7681,-213,1063,-5,10,-3,1
490723,-7697,-227,1050,-5,7,-4,1
490728,-7718,-235,1032,-5,5,-4,1
490733,-7738,-241,1011,-5,4,-4,1
490738,-7761,-248,985,-5,4,-4,1
490743,-7778,-259,970,-5,4,-4,1
490748,-7791,-271,960,-4,5,-4,1
490753,-7800,-282,945,-4,6,-4,1
490758,-7808,-296,929,-4,7,-4,1
490763,-7810,-308,906,-4,9,-4,1
490768,-7812,-320,887,-4,11,-4,1
490773,-7807,-334,869,-4,14,-4,1
490778,-7805,-347,857,-3,16,-4,1
490783,-7801,-357,852,-3,17,-4,1
490788,-7797,-363,843,-3,18,-4,1
490793,-7802,-365,832,-3,20,-4,1
490798,-7808,-371,816,-3,22,-4,1
490803,-7801,-383,784,-2,24,-4,1
490808,-7775,-397,734,-2,27,-4,1
490813,-7728,-408,682,-2,28,-4,1
490818,-7667,-413,634,-1,28,-4,1
490823,-7601,-414,593,-1,25,-3,1
490828,-7542,-408,552,-1,19,-3,1
490833,-7492,-388,515,0,13,-3,1
490838,-7458,-358,502,0,5,-3,1
490843,-7437,-320,497,0,-1,-3,1
490848,-7429,-279,502,0,-7,-3,1
490853,-7430,-246,502,0,-12,-3,1
490858,-7444,-222,517,0,-16,-3,1
490863,-7469,-210,546,0,-19,-3,1
490868,-7501,-208,584,0,-21,-3,1
490873,-7532,-215,620,0,-23,-3,1
490878,-7567,-229,658,0,-24,-3,1
490883,-7602,-246,688,0,-23,-3,1
490888,-7640,-269,721,0,-21,-3,1
490893,-7679,-287,749,0,-18,-3,1
490898,-7720,-300,800,0,-14,-3,1
490903,-7760,-308,869,0,-10,-3,1
490908,-7792,-312,931,0,-6,-2,1
490913,-7815,-315,976,-1,-2,-2,1
490918,-7832,-317,991,-1,2,-2,1
490923,-7837,-318,993,-1,6,-2,1
490928,-7827,-318,985,-1,7,-2,1
490933,-7806,-316,977,-1,6,-2,1
490938,-7778,-313,962,-1,4,-2,1
490943,-7751,-311,942,-1,1,-2,1
490948,-7730,-312,925,-1,-2,-2,1
490953,-7714,-314,913,-1,-4,-2,1
490958,-7700,-317,910,-1,-6,-2,1
490963,-7693,-319,914,-1,-6,-2,1
490968,-7689,-319,920,-1,-6,-2,1
490973,-7686,-316,926,-1,-6,-2,1
490978,-7686,-310,928,-1,-5,-1,1
490983,-7686,-302,926,-1,-4,-1,1
490988,-7688,-288,930,-1,-3,-1,1
490993,-7684,-277,929,-1,-3,-2,1
490998,-7681,-266,936,-1,-2,-2,1
491003,-7677,-254,941,-1,-2,-2,1
491008,-7675,-243,943,-1,-2,-2,1
491013,-7672,-233,948,-1,-2,-2,1
491018,-7672,-227,951,-1,-2,-2,1
491023,-7667,-224,952,-1,-2,-2,1
491028,-7664,-224,949,-1,-2,-2,1
491033,-7664,-225,950,-1,-2,-2,1
491038,-7666,-231,955,-1,-2,-2,1
491043,-7669,-240,962,-1,-3,-2,1
491048,-7666,-249,967,-1,-4,-2,1
491053,-7665,-260,967,-1,-4,-2,1
491058,-7666,-267,965,-1,-4,-2,1
491063,-7665,-273,966,-1,-3,-2,1
491068,-7660,-282,964,-1,-3,-2,1
491073,-7653,-287,958,-2,-3,-2,1
491078,-7644,-291,950,-2,-3,-2,1
491083,-7633,-286,946,-2,-3,-2,1
491088,-7623,-281,945,-2,-3,-2,1
491093,-7616,-273,945,-2,-4,-2,1
491098,-7608,-263,950,-2,-4,-2,1
491103,-7603,-256,953,-2,-4,-2,1
491108,-7599,-247,954,-2,-4,-2,1
491113,-7596,-234,957,-2,-5,-2,1
491118,-7598,-223,959,-2,-5,-2,1
491123,-7605,-214,963,-2,-5,-3,1
491128,-7614,-209,965,-2,-5,-3,1
491133,-7625,-208,969,-2,-4,-3,1
491138,-7635,-207,966,-2,-4,-3,1
491143,-7642,-207,965,-2,-3,-3,1
491148,-7645,-205,967,-2,-3,-3,1
491153,-7649,-204,976,-2,-3,-3,1
491158,-7650,-204,981,-2,-3,-3,1
491163,-7653,-206,981,-2,-3,-3,1
491168,-7655,-210,979,-2,-3,-3,1
491173,-7653,-214,974,-2,-2,-3,1
491178,-7650,-222,967,-2,-2,-3,1
491183,-7645,-229,961,-2,-2,-3,1
491188,-7646,-234,953,-1,-3,-3,1
491193,-7649,-239,941,-1,-4,-3,1
491198,-7655,-246,936,-1,-5,-3,1
491203,-7664,-258,927,-1,-5,-3,1
491208,-7674,-269,923,-1,-5,-3,1
491213,-7685,-280,919,-1,-5,-3,1
491218,-7694,-293,913,-1,-5,-3,1
491223,-7703,-306,910,-1,-5,-3,1
491228,-7713,-317,912,-1,-5,-3,1
491233,-7722,-332,915,-1,-4,-3,1
491238,-7730,-341,913,-1,-4,-3,1
491243,-7739,-349,914,-1,-3,-3,1
491248,-7748,-358,918,-1,-3,-3,1
491253,-7752,-363,920,-1,-2,-3,1
491258,-7753,-373,919,-1,-1,-3,1
491263,-7750,-382,922,-1,-1,-3,1
491268,-7746,-391,922,-1,-1,-3,1
491273,-7737,-396,919,-1,-1,-3,1
491278,-7727,-402,921,-1,-1,-3,1
491283,-7710,-407,924,-1,-1,-3,1
491288,-7691,-413,925,-1,-1,-3,1
491293,-7673,-417,924,-1,-1,-3,1
491298,-7654,-417,921,-1,-1,-2,1
491303,-7636,-415,929,-1,-2,-2,1
491308,-7625,-415,932,-1,-2,-2,1
491313,-7618,-412,930,-1,-3,-2,1
491318,-7615,-406,929,-1,-4,-2,1
491323,-7613,-399,928,-1,-4,-2,1
491328,-7616,-396,931,-1,-5,-2,1
491333,-7620,-395,933,-1,-5,-2,1
491338,-7626,-395,939,-1,-6,-1,1
491343,-7631,-395,949,-1,-6,-1,1
491348,-7636,-395,963,-1,-6,-1,1
491353,-7649,-392,970,-1,-6,-1,1
491358,-7662,-388,976,-1,-6,-1,1
491363,-7677,-383,982,-1,-5,-1,1
491368,-7687,-373,989,-1,-5,-1,1
491373,-7697,-363,1000,-1,-4,-1,1
491378,-7708,-349,1013,-1,-3,-1,1
491383,-7717,-339,1020,-1,-2,-1,1
491388,-7720,-335,1028,-1,-2,-1,1
491393,-7717,-329,1032,-1,-1,-1,1
491398,-7709,-320,1026,-1,-1,-1,1
491403,-7702,-317,1024,-1,-1,-1,1
491408,-7693,-313,1027,-1,-2,-1,1
491413,-7687,-312,1039,-1,-3,-2,1
491418,-7690,-312,1055,-1,-4,-2,1
491423,-7692,-311,1067,-1,-5,-2,1
491428,-7694,-313,1072,-1,-5,-2,1
491433,-7698,-320,1073,-1,-5,-2,1
491438,-7703,-322,1081,-1,-5,-2,1
491443,-7706,-322,1083,-1,-5,-2,1
491447,-7709,-320,1092,-1,-5,-2,1
491453,-7714,-322,1093,-1,-4,-2,1
491457,-7719,-322,1096,-1,-4,-2,1
491463,-7717,-325,1099,-1,-4,-2,1
491467,-7714,-326,1095,-1,-3,-2,1
491473,-7713,-326,1092,-1,-3,-2,1
491477,-7710,-322,1091,-1,-3,-2,1
491483,-7703,-320,1092,-1,-3,-2,1
491487,-7699,-317,1095,-1,-3,-2,1
