millis,ax,ay,az,gx,gy,gz,label
6810,3151,2708,5848,-4,-3,0,0
6815,3157,2709,5863,-4,-3,0,1
6820,3165,2705,5874,-4,-3,0,1
6825,3168,2704,5874,-4,-3,0,1
6830,3162,2703,5865,-4,-3,0,1
6835,3154,2702,5852,-4,-3,0,1
6840,3145,2700,5836,-4,-3,0,1
6845,3136,2698,5830,-4,-3,0,1
6850,3133,2699,5832,-4,-3,0,1
6855,3133,2699,5831,-4,-3,0,1
6860,3136,2700,5834,-4,-3,0,1
6865,3145,2703,5838,-4,-3,1,1
6870,3156,2704,5843,-4,-3,0,1
6875,3161,2704,5844,-4,-4,0,1
6880,3165,2703,5844,-4,-4,0,1
6885,3165,2700,5842,-4,-4,0,1
6890,3171,2700,5845,-4,-4,0,1
6895,3177,2697,5848,-4,-4,0,1
6900,3179,2696,5848,-4,-3,0,1
6905,3181,2697,5843,-4,-2,0,1
6910,3178,2698,5833,-4,-1,0,1
6915,3174,2699,5833,-4,0,0,1
6920,3169,2702,5827,-4,1,0,1
6925,3163,2704,5830,-4,1,0,1
6930,3160,2707,5839,-4,1,0,1
6935,3157,2702,5847,-4,1,0,1
6941,3155,2703,5851,-4,1,0,1
6945,3155,2702,5853,-4,0,0,1
6950,3155,2699,5847,-4,-1,0,1
6956,3153,2699,5840,-4,-1,0,1
6961,3146,2702,5832,-4,-2,0,1
6965,3139,2705,5833,-4,-2,0,1
6971,3132,2706,5845,-4,-1,0,1
6976,3135,2706,5851,-4,-1,0,1
6981,3135,2703,5858,-4,-1,0,1
6986,3133,2704,5860,-4,-1,0,1
6991,3135,2706,5857,-4,-2,0,1
6996,3135,2706,5854,-4,-2,0,1
7001,3135,2707,5851,-4,-3,0,1
7006,3134,2707,5849,-4,-4,0,1
7011,3131,2705,5849,-4,-4,0,1
7016,3133,2700,5852,-4,-4,0,1
7021,3137,2699,5852,-4,-4,0,1
7026,3145,2695,5850,-4,-4,0,1
7031,3148,2697,5846,-4,-3,0,1
7036,3148,2698,5845,-4,-3,0,1
7041,3150,2697,5843,-4,-2,0,1
7046,3150,2699,5840,-4,-2,0,1
7051,3152,2698,5845,-4,-2,0,1
7056,3149,2697,5853,-4,-1,0,1
7061,3151,2695,5858,-4,-1,0,1
7066,3153,2698,5860,-4,-1,0,1
7071,3151,2700,5865,-4,-1,0,1
7076,3149,2702,5864,-4,-2,0,1
7081,3148,2703,5859,-4,-2,0,1
7086,3145,2703,5853,-4,-2,0,1
7091,3142,2700,5850,-4,-2,0,1
7096,3144,2698,5849,-4,-2,0,1
7101,3151,2697,5848,-4,-2,0,1
7106,3155,2697,5845,-4,-1,0,1
7111,3156,2695,5845,-4,-1,0,1
7116,3155,2699,5848,-4,-1,0,1
7121,3154,2700,5850,-4,0,0,1
7126,3153,2700,5853,-4,0,0,1
7131,3151,2696,5852,-4,0,0,1
7136,3147,2692,5859,-4,0,0,1
7141,3146,2691,5860,-4,0,0,1
7146,3147,2688,5860,-4,-1,0,1
7151,3145,2685,5857,-4,-1,0,1
7156,3142,2685,5858,-4,-2,0,1
7161,3137,2687,5857,-4,-3,0,1
7166,3135,2689,5861,-4,-3,0,1
7171,3134,2689,5867,-4,-4,0,1
7176,3133,2690,5869,-4,-4,0,1
7181,3137,2690,5869,-4,-4,0,1
7186,3136,2691,5866,-4,-4,0,1
7191,3137,2692,5862,-4,-4,0,1
7196,3136,2695,5856,-4,-4,0,1
7201,3134,2698,5847,-4,-3,0,1
7206,3135,2700,5845,-4,-3,0,1
7211,3138,2702,5849,-4,-3,0,1
7216,3138,2698,5854,-4,-2,0,1
7221,3139,2695,5860,-4,-2,0,1
7226,3140,2690,5860,-4,-2,0,1
7231,3142,2685,5859,-4,-2,0,1
7236,3140,2685,5854,-4,-3,0,1
7241,3139,2690,5849,-4,-3,0,1
7246,3140,2693,5850,-4,-3,0,1
7251,3142,2693,5855,-4,-3,0,1
7256,3144,2693,5858,-4,-3,0,1
7261,3149,2693,5859,-4,-2,0,1
7266,3149,2691,5865,-4,-2,0,1
7271,3150,2692,5866,-4,-1,0,1
7276,3147,2695,5865,-4,-1,0,1
7281,3144,2698,5860,-4,-1,0,1
7286,3139,2698,5860,-4,-1,0,1
7291,3135,2699,5857,-4,-1,0,1
7296,3136,2699,5857,-4,-1,0,1
7301,3139,2701,5857,-4,-2,0,1
7306,3142,2701,5860,-4,-2,0,1
7311,3147,2701,5863,-4,-2,0,1
7316,3151,2703,5867,-4,-2,0,1
7321,3156,2703,5870,-4,-3,0,1
7326,3156,2704,5867,-4,-3,0,1
7331,3162,2702,5866,-4,-3,0,1
7336,3165,2699,5861,-4,-3,0,1
7341,3174,2695,5860,-4,-3,0,1
7346,3179,2695,5860,-4,-2,0,1
7351,3180,2697,5857,-4,-2,0,1
7356,3173,2699,5859,-4,-1,0,1
7361,3166,2702,5862,-4,0,0,1
7366,3158,2706,5858,-4,0,0,1
7371,3149,2710,5856,-4,0,0,1
7376,3144,2710,5855,-4,0,0,1
7381,3140,2709,5851,-4,0,0,1
7386,3145,2705,5846,-4,-1,0,1
7391,3148,2704,5847,-4,-1,0,1
7396,3151,2704,5844,-4,-1,0,1
7401,3150,2702,5843,-4,-2,0,1
7406,3150,2699,5838,-4,-2,0,1
7411,3152,2699,5838,-4,-2,0,1
7416,3152,2695,5839,-4,-2,0,1
7421,3154,2696,5837,-4,-2,0,1
7426,3149,2694,5838,-4,-2,0,1
7431,3144,2695,5841,-4,-2,0,1
7436,3137,2696,5845,-4,-2,0,1
7441,3132,2697,5845,-4,-1,0,1
7446,3126,2695,5851,-4,-1,0,1
7451,3119,2695,5857,-4,-2,0,1
7456,3111,2699,5861,-4,-2,0,1
7461,3105,2702,5866,-4,-2,0,1
7466,3102,2704,5866,-4,-3,0,1
7471,3100,2707,5863,-4,-3,0,1
7476,3098,2709,5865,-4,-3,0,1
7481,3100,2709,5871,-4,-3,0,1
7486,3107,2708,5873,-4,-2,0,1
7492,3110,2706,5872,-4,-2,0,1
7496,3113,2704,5873,-4,-1,0,1
7501,3118,2700,5868,-4,-1,0,1
7507,3121,2700,5867,-4,0,0,1
7511,3123,2702,5870,-4,0,0,1
7516,3127,2699,5871,-4,0,0,1
7522,3130,2693,5873,-4,0,0,1
7527,3136,2692,5875,-4,0,0,1
7532,3140,2691,5880,-4,-1,0,1
7537,3145,2690,5883,-4,-1,0,1
7541,3147,2692,5881,-4,-1,0,1
7547,3141,2693,5879,-4,-1,0,1
7552,3133,2696,5876,-4,-1,0,1
7557,3121,2697,5872,-4,0,0,1
7562,3114,2696,5872,-4,1,0,1
7567,3107,2696,5877,-4,1,0,1
7572,3103,2693,5879,-4,2,0,1
7577,3099,2689,5878,-4,1,0,1
7582,3097,2689,5877,-4,1,0,1
7587,3096,2690,5881,-4,0,0,1
7592,3092,2693,5886,-4,0,0,1
7597,3090,2694,5889,-4,-1,0,1
7602,3090,2692,5895,-4,-2,0,1
7607,3092,2690,5901,-4,-3,0,1
7612,3095,2691,5905,-4,-4,0,1
7617,3098,2690,5907,-4,-4,0,1
7622,3099,2691,5902,-4,-5,0,1
7627,3096,2695,5895,-4,-5,0,1
7632,3099,2697,5880,-4,-4,0,1
7637,3096,2697,5874,-4,-3,0,1
7642,3092,2695,5867,-4,-2,0,1
7647,3090,2691,5866,-4,-1,0,1
7652,3094,2689,5870,-4,-1,0,1
7657,3096,2691,5872,-4,0,0,1
7662,3096,2696,5872,-4,0,0,1
7667,3092,2701,5868,-4,-1,0,1
7672,3093,2700,5868,-4,-1,0,1
7677,3097,2701,5869,-4,-1,0,1
7682,3103,2703,5873,-4,-2,0,1
7687,3105,2703,5879,-4,-2,0,1
7692,3107,2700,5885,-4,-2,0,1
7697,3107,2700,5885,-4,-3,0,1
7702,3106,2698,5884,-4,-3,0,1
7707,3099,2695,5880,-4,-2,0,1
7712,3093,2695,5871,-4,-2,0,1
7717,3091,2694,5862,-4,-2,0,1
7722,3087,2697,5863,-4,-2,0,1
7727,3084,2702,5866,-4,-1,0,1
7732,3084,2704,5874,-4,-1,0,1
7737,3082,2706,5889,-4,-1,0,1
7742,3079,2709,5900,-4,-1,0,1
7747,3076,2706,5900,-4,-1,0,1
7752,3069,2705,5897,-4,-1,0,1
7757,3064,2707,5893,-4,-1,0,1
7762,3061,2711,5889,-4,-1,0,1
7767,3061,2712,5884,-4,-1,0,1
7772,3061,2711,5879,-4,-1,0,1
7777,3063,2710,5878,-4,-1,0,1
7782,3067,2711,5874,-4,-1,1,1
7787,3069,2709,5874,-4,-1,1,1
7792,3069,2707,5873,-4,-1,0,1
7797,3073,2707,5871,-4,-2,1,1
7802,3076,2706,5873,-4,-3,1,1
7807,3079,2704,5876,-4,-4,1,1
7812,3083,2706,5877,-4,-5,1,1
7817,3087,2705,5876,-4,-5,1,1
7822,3096,2708,5880,-4,-6,1,1
7827,3102,2707,5878,-4,-6,0,1
7832,3103,2706,5871,-4,-5,0,1
7837,3101,2706,5867,-4,-5,0,1
7842,3100,2708,5867,-4,-4,0,1
7847,3101,2708,5861,-4,-3,0,1
7852,3104,2705,5859,-4,-2,0,1
7857,3108,2700,5861,-4,-1,0,1
7862,3108,2698,5864,-4,-1,0,1
7867,3108,2698,5873,-4,-1,0,1
7872,3108,2702,5877,-4,-1,0,1
7877,3105,2705,5877,-4,-1,0,1
7882,3102,2706,5875,-4,-1,0,1
7887,3098,2703,5872,-4,-1,0,1
7892,3100,2702,5874,-4,-2,0,1
7897,3100,2703,5882,-4,-2,0,1
7902,3102,2700,5886,-4,-2,0,1
7907,3102,2701,5889,-4,-2,0,1
7912,3099,2703,5890,-4,-2,0,1
7917,3096,2699,5887,-4,-2,0,1
7922,3090,2698,5885,-4,-3,0,1
7927,3089,2697,5883,-4,-3,0,1
7932,3093,2697,5888,-4,-2,0,1
7937,3095,2701,5896,-4,-2,0,1
7942,3101,2697,5899,-4,-2,0,1
7947,3103,2696,5901,-4,-2,0,1
7952,3099,2693,5897,-4,-2,0,1
7957,3092,2692,5887,-4,-3,0,1
7962,3088,2693,5878,-4,-3,0,1
7967,3090,2698,5876,-4,-3,0,1
7972,3094,2700,5881,-4,-3,0,1
7977,3098,2700,5883,-4,-3,0,1
7982,3102,2701,5888,-4,-3,0,1
7987,3109,2699,5888,-4,-3,0,1
7992,3110,2698,5887,-4,-3,0,1
7997,3109,2700,5883,-4,-4,0,1
8002,3105,2702,5879,-4,-4,0,1
8007,3101,2705,5879,-4,-4,0,1
8012,3101,2704,5883,-4,-4,0,1
8017,3102,2703,5887,-4,-4,0,1
8022,3103,2701,5894,-4,-4,0,1
8027,3102,2701,5895,-4,-4,0,1
8032,3101,2700,5892,-4,-5,0,1
8037,3100,2699,5887,-4,-5,0,1
8042,3102,2699,5878,-4,-4,0,1
8047,3100,2700,5869,-4,-4,0,1
8052,3099,2700,5866,-4,-3,0,1
8057,3099,2701,5866,-4,-2,0,1
8062,3103,2702,5873,-4,-1,0,1
8068,3109,2706,5878,-4,-1,0,1
8072,3115,2707,5879,-4,-1,0,1
8078,3116,2709,5879,-4,-1,0,1
8083,3114,2708,5876,-4,-2,0,1
8087,3107,2705,5869,-4,-3,0,1
8093,3106,2703,5862,-4,-3,0,1
8097,3108,2703,5856,-4,-3,0,1
8103,3112,2702,5852,-4,-3,0,1
8108,3113,2702,5855,-4,-3,0,1
8113,3114,2701,5857,-4,-3,0,1
8118,3118,2703,5853,-4,-2,0,1
8123,3114,2703,5853,-4,-2,0,1
8128,3113,2704,5858,-4,-2,0,1
8133,3112,2705,5861,-4,-1,0,1
8138,3112,2705,5866,-4,-1,0,1
8143,3118,2704,5869,-4,-1,0,1
8148,3120,2702,5873,-4,-1,0,1
8153,3122,2703,5875,-4,-1,0,1
8158,3122,2701,5876,-4,0,0,1
8163,3118,2700,5878,-4,0,0,1
8168,3115,2700,5878,-4,0,0,1
8173,3114,2702,5876,-4,0,0,1
8178,3112,2703,5878,-4,0,0,1
8183,3112,2704,5873,-4,0,0,1
8188,3107,2708,5870,-4,-1,0,1
8193,3104,2707,5870,-4,-1,0,1
8198,3098,2707,5868,-4,-2,0,1
8203,3093,2707,5870,-4,-2,0,1
8208,3090,2706,5869,-4,-2,0,1
8213,3089,2704,5873,-4,-3,0,1
8218,3087,2703,5877,-4,-3,0,1
8223,3091,2703,5877,-4,-3,0,1
8228,3092,2705,5879,-4,-3,0,1
8233,3098,2705,5880,-4,-3,0,1
8238,3101,2707,5882,-4,-3,0,1
8243,3101,2705,5882,-4,-2,0,1
8248,3101,2702,5876,-4,-2,0,1
8253,3101,2702,5875,-4,-1,0,1
8258,3100,2701,5876,-4,-1,0,1
8263,3102,2700,5873,-4,-1,0,1
8268,3104,2698,5873,-4,-1,0,1
8273,3106,2698,5876,-4,-1,0,1
8278,3103,2698,5878,-4,-1,0,1
8283,3099,2699,5881,-4,-1,0,1
8288,3096,2700,5885,-4,-2,0,1
8293,3094,2702,5886,-4,-2,0,1
8298,3092,2702,5881,-4,-3,0,1
8303,3095,2704,5882,-4,-3,0,1
8308,3097,2703,5884,-4,-3,0,1
8313,3095,2701,5882,-4,-3,0,1
8318,3097,2701,5882,-4,-3,0,1
8323,3098,2703,5879,-4,-3,0,1
8328,3100,2705,5875,-4,-3,0,1
8333,3103,2707,5871,-4,-2,0,1
8338,3100,2709,5869,-4,-2,0,1
8343,3098,2712,5864,-4,-2,0,1
8348,3098,2713,5865,-4,-1,0,1
8353,3099,2712,5869,-4,-1,0,1
8358,3097,2712,5877,-4,-1,0,1
8363,3094,2710,5881,-4,-1,0,1
8368,3091,2709,5882,-4,-1,0,1
8373,3088,2709,5883,-4,-2,0,1
8378,3087,2711,5877,-4,-2,0,1
8383,3082,2712,5875,-4,-3,0,1
8388,3081,2715,5879,-4,-3,0,1
8393,3085,2715,5881,-4,-4,0,1
8398,3090,2713,5883,-4,-4,0,1
8403,3093,2711,5888,-4,-4,0,1
8408,3094,2709,5886,-4,-4,0,1
8413,3098,2709,5877,-4,-4,0,1
8418,3096,2707,5866,-4,-3,0,1
8423,3095,2709,5858,-4,-3,0,1
8428,3096,2711,5850,-4,-2,0,1
8433,3099,2714,5845,-4,-2,0,1
8438,3104,2714,5852,-4,-1,0,1
8443,3112,2712,5858,-4,-1,0,1
8448,3119,2712,5864,-4,0,0,1
8453,3125,2711,5871,-4,0,0,1
8458,3122,2709,5875,-4,0,0,1
8463,3119,2706,5875,-4,0,0,1
8468,3116,2704,5878,-4,-1,0,1
8473,3107,2702,5879,-4,-1,0,1
8478,3099,2705,5883,-4,-1,0,1
8483,3093,2705,5889,-4,-2,0,1
8488,3093,2710,5890,-4,-2,0,1
8493,3098,2712,5895,-4,-3,0,1
8498,3097,2711,5895,-4,-3,0,1
8503,3095,2712,5896,-4,-4,0,1
8508,3091,2714,5891,-4,-4,0,1
8513,3093,2711,5889,-4,-4,0,1
8518,3097,2710,5882,-4,-3,0,1
8523,3100,2707,5872,-4,-2,0,1
8528,3103,2707,5872,-4,-2,0,1
8533,3102,2708,5872,-4,-1,0,1
8538,3101,2707,5872,-4,0,0,1
8543,3097,2709,5872,-4,0,0,1
8548,3088,2708,5869,-4,1,0,1
8553,3083,2708,5872,-4,1,0,1
8558,3077,2711,5873,-4,1,0,1
8563,3076,2714,5869,-4,0,0,1
8568,3074,2712,5872,-4,-1,0,1
8573,3073,2711,5874,-4,-2,0,1
8578,3074,2711,5874,-4,-3,0,1
8583,3071,2712,5882,-4,-3,0,1
8588,3072,2712,5883,-4,-4,0,1
8593,3075,2709,5885,-4,-4,0,1
8598,3077,2708,5885,-4,-5,0,1
8603,3083,2707,5888,-4,-5,0,1
8608,3086,2704,5883,-4,-5,0,1
8613,3090,2704,5879,-4,-4,0,1
8618,3091,2705,5880,-4,-4,0,1
8623,3092,2704,5876,-4,-3,0,1
8628,3093,2703,5872,-4,-2,0,1
8633,3094,2702,5874,-4,-1,0,1
8638,3093,2703,5873,-4,0,0,1
8643,3094,2704,5878,-4,0,0,1
8649,3097,2703,5883,-4,0,0,1
8654,3096,2702,5887,-4,-1,0,1
8658,3092,2702,5889,-4,-2,0,1
8663,3090,2701,5886,-4,-2,0,1
8668,3089,2698,5881,-4,-3,0,1
8673,3085,2698,5872,-4,-3,0,1
8678,3081,2701,5872,-4,-3,0,1
8684,3073,2705,5870,-4,-3,0,1
8688,3067,2705,5872,-4,-3,0,1
8694,3069,2703,5877,-4,-2,0,1
8699,3073,2701,5882,-4,-2,0,1
8703,3076,2698,5887,-4,-2,0,1
8708,3078,2697,5889,-4,-2,0,1
8714,3079,2698,5890,-4,-3,0,1
8718,3082,2698,5886,-4,-3,0,1
8724,3084,2700,5883,-4,-3,0,1
8729,3087,2702,5880,-4,-3,0,1
8734,3090,2701,5879,-4,-3,0,1
8739,3094,2699,5878,-4,-3,0,1
8744,3095,2702,5878,-4,-2,0,1
8749,3092,2708,5879,-4,-2,0,1
8754,3092,2709,5879,-4,-1,0,1
8759,3090,2709,5876,-4,-1,0,1
8764,3089,2710,5872,-4,-1,0,1
8769,3085,2711,5870,-4,-1,0,1
8774,3082,2710,5874,-4,-2,0,1
8779,3084,2709,5878,-4,-2,0,1
8784,3083,2707,5878,-4,-3,0,1
8789,3085,2707,5877,-4,-4,0,1
8794,3086,2706,5871,-4,-4,0,1
8799,3086,2703,5867,-4,-5,0,1
8804,3091,2704,5863,-4,-5,0,1
8809,3095,2705,5859,-4,-5,0,1
8814,3097,2706,5858,-4,-4,0,1
8819,3097,2703,5860,-4,-3,0,1
8824,3099,2703,5859,-4,-3,0,1
8829,3096,2703,5855,-4,-2,0,1
8834,3094,2702,5851,-4,-2,0,1
8839,3095,2702,5843,-4,-2,0,1
8844,3096,2704,5843,-4,-1,0,1
8849,3094,2705,5845,-4,-1,0,1
8854,3093,2707,5849,-4,-1,0,1
8859,3096,2704,5859,-4,-1,0,1
8864,3092,2702,5868,-4,-1,0,1
8869,3087,2699,5874,-4,-1,0,1
8874,3085,2701,5877,-4,-1,0,1
8879,3083,2703,5880,-4,-2,0,1
8884,3084,2705,5881,-4,-3,0,1
8889,3080,2708,5879,-4,-3,0,1
8894,3082,2706,5876,-4,-4,0,1
8899,3085,2705,5878,-4,-4,0,1
8904,3088,2706,5879,-4,-4,0,1
8909,3093,2702,5883,-4,-4,0,1
8914,3094,2699,5886,-4,-4,0,1
8919,3093,2700,5884,-4,-4,0,1
8924,3095,2700,5882,-4,-3,0,1
8929,3098,2700,5878,-4,-3,0,1
8934,3100,2703,5877,-4,-3,0,1
8939,3104,2705,5880,-4,-2,0,1
8944,3108,2704,5877,-4,-2,0,1
8949,3112,2702,5878,-4,-2,0,1
8954,3111,2701,5881,-4,-2,0,1
8959,3105,2701,5880,-4,-2,0,1
8964,3101,2702,5879,-4,-3,0,1
8969,3096,2705,5875,-4,-3,0,1
8974,3094,2705,5870,-4,-3,0,1
8979,3091,2703,5868,-4,-3,0,1
8984,3094,2702,5866,-4,-3,0,1
8989,3098,2704,5870,-4,-3,0,1
8994,3096,2703,5881,-4,-3,0,1
8999,3098,2704,5890,-4,-3,0,1
9004,3098,2707,5892,-4,-3,0,1
9009,3102,2709,5893,-4,-3,0,1
9014,3102,2710,5890,-4,-3,0,1
9019,3103,2712,5888,-4,-3,0,1
9024,3107,2714,5884,-4,-3,0,1
9029,3109,2712,5881,-4,-3,0,1
9034,3111,2712,5877,-4,-3,0,1
9039,3110,2712,5866,-4,-2,0,1
9044,3108,2713,5859,-4,-2,0,1
9049,3110,2709,5861,-4,-1,0,1
9054,3112,2705,5863,-4,-1,0,1
9059,3113,2705,5865,-4,0,0,1
9064,3111,2707,5867,-4,0,0,1
9069,3111,2709,5872,-4,-1,0,1
9074,3112,2707,5875,-4,-1,0,1
9079,3111,2704,5874,-4,-2,0,1
9084,3113,2702,5871,-4,-2,0,1
9089,3110,2702,5871,-4,-3,0,1
9094,3106,2702,5873,-4,-3,0,1
9099,3102,2700,5871,-4,-3,0,1
9104,3098,2699,5869,-4,-3,0,1
9109,3092,2701,5871,-4,-3,0,1
9114,3086,2701,5874,-4,-3,0,1
9119,3081,2701,5878,-4,-2,0,1
9124,3079,2699,5874,-4,-2,0,1
9129,3082,2699,5873,-4,-2,0,1
9134,3084,2702,5873,-4,-3,0,1
9139,3091,2698,5875,-4,-3,0,1
9144,3098,2697,5874,-4,-3,0,1
9149,3105,2696,5871,-4,-4,0,1
9154,3109,2697,5866,-4,-4,0,1
9159,3111,2694,5858,-4,-4,0,1
9164,3114,2696,5854,-4,-4,0,1
9169,3116,2700,5855,-4,-4,0,1
9174,3119,2707,5858,-4,-3,0,1
9179,3124,2711,5862,-4,-3,0,1
9184,3131,2710,5874,-4,-2,0,1
9189,3135,2711,5879,-4,-2,0,1
9194,3133,2709,5879,-4,-1,0,1
9199,3128,2707,5873,-4,-1,0,1
9204,3123,2705,5866,-4,-1,0,1
9209,3117,2701,5857,-4,-1,0,1
9214,3112,2700,5853,-4,-1,0,1
9219,3111,2703,5853,-4,0,0,1
9224,3109,2706,5854,-4,0,0,1
9229,3108,2706,5858,-4,0,0,1
9235,3107,2707,5865,-4,0,0,1
9239,3104,2708,5866,-4,0,0,1
9244,3100,2707,5869,-4,-1,0,1
9249,3099,2701,5871,-4,-1,0,1
9254,3096,2701,5874,-4,-2,0,1
9260,3096,2703,5877,-4,-3,0,1
9264,3099,2703,5879,-4,-3,0,1
9270,3101,2701,5881,-4,-4,0,1
9275,3104,2698,5879,-4,-4,0,1
9280,3109,2700,5871,-4,-5,0,1
9285,3112,2699,5863,-4,-5,0,1
9290,3115,2698,5853,-4,-5,0,1
9295,3115,2698,5852,-4,-4,0,1
9300,3113,2698,5851,-4,-4,0,1
9305,3113,2698,5858,-4,-3,0,1
9310,3112,2696,5858,-4,-2,0,1
9315,3116,2697,5858,-4,-2,0,1
9320,3122,2694,5856,-4,-1,0,1
9325,3123,2694,5857,-4,-1,0,1
9330,3121,2693,5859,-4,-2,0,1
9335,3119,2693,5864,-4,-2,0,1
9340,3119,2696,5866,-4,-2,0,1
9345,3122,2699,5875,-4,-3,0,1
9350,3123,2702,5879,-4,-3,0,1
9355,3127,2705,5882,-4,-4,0,1
9360,3126,2707,5881,-4,-4,0,1
9365,3121,2707,5878,-4,-4,0,1
9370,3122,2709,5876,-4,-4,0,1
9375,3122,2711,5874,-4,-4,0,1
9380,3118,2710,5873,-4,-3,0,1
9385,3116,2708,5871,-4,-3,0,1
9390,3116,2705,5871,-4,-3,0,1
9395,3118,2704,5868,-4,-3,0,1
9400,3117,2702,5866,-4,-3,0,1
9405,3115,2702,5861,-4,-3,0,1
9410,3114,2700,5856,-4,-3,0,1
9415,3113,2701,5858,-4,-3,0,1
9420,3116,2701,5858,-4,-3,0,1
9425,3120,2704,5861,-4,-3,0,1
9430,3124,2703,5860,-4,-4,0,1
9435,3127,2703,5866,-4,-4,0,1
9440,3129,2704,5874,-4,-3,0,1
9445,3130,2702,5877,-4,-3,0,1
9450,3131,2701,5873,-4,-3,0,1
9455,3128,2703,5865,-4,-2,0,1
9460,3122,2704,5860,-4,-1,0,1
9465,3114,2706,5855,-4,0,0,1
9470,3112,2705,5851,-4,0,0,1
9475,3112,2703,5852,-4,1,0,1
9480,3114,2701,5859,-4,1,1,1
9485,3115,2700,5865,-4,0,1,1
9490,3111,2698,5870,-4,0,1,1
9495,3112,2697,5874,-4,-1,1,1
9500,3112,2698,5874,-4,-2,1,1
9505,3115,2700,5873,-4,-3,1,1
9510,3121,2700,5871,-4,-4,1,1
9515,3126,2700,5868,-4,-4,1,1
9520,3128,2697,5856,-4,-5,1,1
9525,3127,2696,5851,-4,-5,1,1
9530,3125,2693,5843,-4,-5,1,1
9535,3129,2691,5837,-4,-5,1,1
9540,3131,2690,5836,-4,-4,1,1
9545,3134,2691,5837,-4,-4,1,1
9550,3137,2694,5841,-4,-3,1,1
9555,3138,2696,5841,-4,-3,1,1
9560,3140,2699,5841,-4,-2,1,1
9565,3141,2702,5839,-4,-2,1,1
9570,3143,2704,5846,-4,-2,0,1
9575,3145,2704,5843,-4,-2,0,1
9580,3146,2703,5848,-4,-1,0,1
9585,3149,2703,5850,-4,-1,0,1
9590,3149,2703,5849,-4,0,0,1
9595,3144,2700,5851,-4,0,0,1
9600,3138,2699,5856,-4,1,0,1
9605,3134,2700,5856,-4,1,0,1
9610,3131,2698,5856,-4,2,0,1
9615,3127,2696,5861,-4,2,0,1
9620,3123,2694,5870,-4,2,0,1
9625,3119,2694,5874,-4,1,0,1
9630,3117,2692,5880,-4,1,1,1
9635,3117,2691,5887,-4,0,0,1
9640,3118,2689,5889,-4,0,0,1
9645,3119,2685,5892,-4,-1,0,1
9650,3118,2686,5889,-4,-2,1,1
9655,3117,2687,5883,-4,-2,1,1
9660,3118,2688,5880,-4,-3,0,1
9665,3116,2689,5879,-4,-3,0,1
9670,3121,2690,5882,-4,-3,0,1
9675,3126,2690,5888,-4,-3,0,1
9680,3132,2690,5890,-4,-3,0,1
9685,3133,2690,5886,-4,-2,0,1
9690,3134,2691,5885,-4,-2,0,1
9695,3130,2691,5882,-4,-2,0,1
9700,3127,2688,5877,-4,-1,0,1
9705,3125,2686,5875,-4,-1,0,1
9710,3127,2689,5874,-4,-1,0,1
9715,3123,2691,5875,-4,-1,0,1
9720,3121,2693,5872,-4,-1,0,1
9725,3115,2694,5871,-4,-2,0,1
9730,3107,2695,5869,-4,-2,0,1
9735,3101,2692,5869,-4,-2,0,1
9740,3097,2691,5868,-4,-2,0,1
9745,3095,2691,5870,-4,-2,0,1
9750,3097,2694,5876,-4,-2,0,1
9755,3100,2693,5879,-4,-2,0,1
9760,3100,2691,5879,-4,-2,0,1
9765,3105,2688,5880,-4,-2,0,1
9770,3109,2686,5884,-4,-2,0,1
9775,3109,2690,5887,-4,-2,0,1
9780,3108,2694,5885,-4,-2,0,1
9785,3105,2697,5884,-4,-2,0,1
9790,3102,2697,5885,-4,-2,0,1
9795,3099,2697,5883,-4,-2,0,1
9800,3095,2694,5876,-4,-2,0,1
9805,3093,2695,5869,-4,-3,0,1
9810,3094,2697,5867,-4,-3,0,1
9815,3097,2700,5866,-4,-3,0,1
9820,3100,2701,5875,-4,-4,0,1
9825,3105,2698,5877,-4,-4,0,1
9830,3114,2695,5881,-4,-4,0,1
9836,3120,2692,5885,-4,-3,0,1
9841,3123,2692,5883,-4,-3,0,1
9845,3121,2693,5878,-4,-2,0,1
9850,3116,2697,5869,-4,-2,0,1
9855,3108,2700,5861,-4,-1,0,1
9861,3106,2699,5860,-4,-1,0,1
9866,3103,2698,5868,-4,0,0,1
9871,3106,2698,5876,-4,0,0,1
9876,3108,2699,5884,-4,0,0,1
9881,3109,2697,5895,-4,0,0,1
9885,3107,2699,5898,-4,0,0,1
9891,3102,2699,5899,-4,-1,0,1
9896,3096,2699,5898,-4,-1,0,1
9901,3088,2700,5891,-4,-2,0,1
9906,3080,2700,5887,-4,-2,0,1
9911,3077,2702,5882,-4,-3,0,1
9916,3080,2703,5880,-4,-3,0,1
9921,3084,2705,5880,-4,-3,0,1
9926,3083,2701,5884,-4,-3,0,1
9931,3085,2697,5888,-4,-3,0,1
9936,3093,2695,5893,-4,-4,0,1
9941,3103,2695,5894,-4,-4,0,1
9946,3106,2695,5892,-4,-5,0,1
9951,3110,2696,5890,-4,-5,0,1
9956,3111,2694,5886,-4,-5,0,1
9961,3114,2690,5883,-4,-5,0,1
9966,3115,2688,5881,-4,-5,0,1
9971,3113,2685,5879,-4,-4,0,1
9976,3108,2686,5871,-4,-3,0,1
9981,3100,2685,5858,-4,-2,0,1
9986,3090,2687,5850,-4,-1,0,1
9991,3079,2689,5840,-4,-1,0,1
9996,3076,2695,5842,-4,0,0,1
10001,3073,2700,5850,-4,0,1,1
10006,3074,2703,5863,-4,-1,1,1
10011,3076,2703,5877,-4,-2,1,1
10016,3080,2706,5891,-4,-3,1,1
10021,3085,2707,5896,-4,-4,1,1
10026,3089,2707,5893,-4,-5,1,1
10031,3092,2709,5888,-4,-5,1,1
10036,3092,2711,5883,-4,-6,1,1
10041,3099,2709,5878,-4,-5,1,1
10046,3110,2704,5874,-4,-4,1,1
10051,3120,2701,5875,-4,-3,1,1
10056,3124,2703,5872,-4,-1,1,1
10061,3140,2709,5863,-4,0,0,1
10066,3149,2713,5859,-4,1,0,1
10071,3134,2705,5864,-4,2,0,1
10076,3108,2695,5863,-4,3,0,1
10081,3094,2689,5861,-4,3,1,1
10086,3091,2689,5869,-4,2,1,1
10091,3092,2689,5878,-4,0,1,1
10096,3096,2693,5883,-4,-2,1,1
10101,3100,2695,5887,-4,-3,1,1
10106,3106,2696,5888,-4,-4,1,1
10111,3101,2695,5885,-4,-5,1,1
10116,3090,2690,5878,-4,-5,1,1
10121,3085,2687,5873,-4,-4,1,1
10126,3087,2683,5871,-4,-3,1,1
10131,3100,2682,5869,-4,-1,1,1
10136,3111,2686,5866,-4,-1,1,1
10141,3125,2690,5864,-4,0,1,1
10146,3133,2690,5865,-4,0,1,1
10151,3134,2692,5864,-4,0,1,1
10156,3127,2692,5865,-4,0,1,1
10161,3118,2694,5862,-4,0,1,1
10166,3113,2694,5865,-4,-1,1,1
10171,3110,2694,5869,-4,-1,1,1
10176,3114,2690,5879,-4,-2,1,1
10181,3119,2689,5889,-4,-2,1,1
10186,3122,2691,5894,-4,-3,1,1
10191,3121,2691,5898,-4,-4,1,1
10196,3123,2692,5899,-4,-4,1,1
10201,3116,2693,5895,-4,-4,1,1
10206,3096,2690,5888,-4,-3,1,1
10211,3077,2686,5873,-4,-3,1,1
10216,3068,2686,5863,-4,-2,1,1
10221,3068,2689,5858,-4,-2,1,1
10226,3074,2689,5862,-4,-3,1,1
10231,3087,2691,5869,-4,-4,1,1
10236,3103,2695,5883,-4,-5,1,1
10241,3117,2697,5895,-4,-6,1,1
10246,3127,2699,5897,-4,-7,1,1
10251,3134,2701,5892,-4,-7,1,1
10256,3147,2704,5880,-4,-7,1,1
10261,3153,2707,5866,-4,-6,0,1
10266,3150,2706,5856,-4,-5,0,1
10271,3146,2703,5850,-4,-3,0,1
10276,3141,2698,5846,-4,-2,0,1
10281,3139,2696,5843,-4,-1,0,1
10286,3137,2698,5842,-4,0,0,1
10291,3137,2701,5844,-4,0,0,1
10296,3134,2707,5842,-4,0,0,1
10301,3134,2710,5847,-4,-1,0,1
10306,3131,2709,5851,-4,-2,0,1
10311,3130,2708,5855,-4,-2,0,1
10316,3125,2711,5854,-4,-3,0,1
10321,3120,2709,5851,-4,-3,0,1
10326,3120,2707,5854,-4,-3,0,1
10331,3130,2707,5853,-4,-2,0,1
10336,3131,2706,5847,-4,-2,0,1
10341,3127,2703,5846,-4,-1,0,1
10346,3127,2699,5845,-4,0,0,1
10351,3129,2695,5844,-4,0,0,1
10356,3133,2696,5845,-4,1,0,1
10361,3133,2699,5849,-4,1,0,1
10366,3129,2702,5856,-4,1,0,1
10371,3127,2703,5861,-4,1,0,1
10376,3122,2705,5867,-4,1,0,1
10381,3113,2702,5871,-4,1,0,1
10386,3102,2704,5874,-4,0,0,1
10391,3097,2707,5877,-4,-1,0,1
10396,3093,2707,5881,-4,-2,0,1
10402,3093,2706,5885,-4,-3,0,1
10407,3095,2703,5889,-4,-3,0,1
10411,3097,2700,5891,-4,-4,0,1
10416,3098,2698,5888,-4,-5,0,1
10421,3096,2694,5884,-4,-5,0,1
10427,3096,2695,5880,-4,-5,0,1
10432,3095,2697,5877,-4,-5,1,1
10437,3096,2698,5880,-4,-5,1,1
10442,3096,2696,5878,-4,-5,0,1
10446,3096,2694,5873,-4,-5,0,1
10452,3098,2696,5867,-4,-5,1,1
10457,3102,2699,5862,-4,-4,1,1
10462,3116,2698,5865,-4,-4,0,1
10467,3134,2696,5869,-4,-3,0,1
10472,3141,2691,5868,-4,-2,0,1
10477,3142,2689,5855,-4,-2,0,1
10482,3145,2692,5850,-4,-2,0,1
10487,3147,2694,5851,-4,-1,0,1
10492,3145,2693,5855,-4,0,0,1
10497,3138,2694,5864,-4,1,0,1
10502,3129,2693,5873,-4,2,0,1
10507,3123,2691,5877,-4,2,0,1
10512,3125,2689,5884,-4,2,0,1
10517,3130,2691,5875,-4,1,0,1
10522,3127,2698,5864,-4,0,0,1
10527,3116,2705,5853,-4,0,0,1
10532,3101,2707,5847,-4,0,0,1
10537,3087,2704,5846,-4,1,0,1
10542,3081,2701,5859,-4,2,0,1
10547,3081,2698,5873,-4,2,0,1
10552,3085,2697,5888,-4,3,0,1
10557,3098,2696,5895,-4,3,0,1
10562,3107,2699,5902,-4,2,0,1
10567,3111,2699,5898,-4,0,0,1
10572,3104,2697,5894,-4,-1,0,1
10577,3098,2695,5886,-4,-2,0,1
10582,3093,2694,5887,-4,-2,0,1
10587,3087,2691,5888,-4,-3,0,1
10592,3085,2692,5888,-4,-2,0,1
10597,3086,2694,5890,-4,-2,0,1
10602,3087,2695,5890,-4,-2,0,1
10607,3083,2694,5887,-4,-1,0,1
10612,3082,2693,5882,-4,-2,0,1
10617,3079,2692,5882,-4,-2,0,1
10622,3077,2693,5886,-4,-2,0,1
10627,3079,2693,5890,-4,-2,0,1
10632,3086,2692,5897,-4,-3,0,1
10637,3091,2691,5899,-4,-3,0,1
10642,3091,2687,5900,-4,-3,0,1
10647,3091,2683,5897,-4,-3,0,1
10652,3086,2684,5896,-4,-3,0,1
10657,3082,2687,5892,-4,-3,0,1
10662,3081,2687,5896,-4,-3,0,1
10667,3082,2690,5898,-4,-2,0,1
10672,3087,2691,5898,-4,-2,0,1
10677,3090,2690,5901,-4,-2,0,1
10682,3089,2690,5900,-4,-1,0,1
10687,3089,2694,5902,-4,-2,0,1
10692,3087,2695,5908,-4,-2,0,1
10697,3088,2695,5908,-4,-2,0,1
10702,3087,2692,5910,-4,-2,0,1
10707,3089,2689,5908,-4,-2,0,1
10712,3090,2686,5903,-4,-2,0,1
10717,3093,2687,5901,-4,-2,0,1
10722,3095,2688,5898,-4,-2,0,1
10727,3091,2684,5889,-4,-2,0,1
10732,3083,2687,5882,-4,-2,0,1
10737,3079,2690,5881,-4,-1,0,1
10742,3078,2690,5878,-4,-1,0,1
10747,3081,2691,5876,-4,-1,0,1
10752,3085,2693,5877,-4,0,0,1
10757,3089,2698,5878,-4,0,0,1
10762,3089,2702,5881,-4,0,0,1
10767,3090,2702,5879,-4,1,0,1
10772,3089,2702,5879,-4,1,0,1
10777,3090,2701,5881,-4,1,0,1
10782,3086,2700,5876,-4,1,0,1
10787,3082,2699,5872,-4,1,0,1
10792,3077,2696,5879,-4,2,0,1
10797,3076,2693,5891,-4,2,0,1
10802,3072,2692,5902,-4,2,0,1
10807,3072,2690,5906,-4,1,0,1
10812,3071,2690,5904,-4,1,0,1
10817,3070,2689,5907,-4,1,0,1
10822,3067,2687,5905,-4,0,0,1
10827,3059,2689,5908,-4,0,0,1
10832,3055,2687,5910,-4,-1,0,1
10837,3051,2687,5912,-4,-1,0,1
10842,3044,2689,5914,-4,-2,0,1
10847,3045,2694,5911,-4,-3,0,1
10852,3048,2696,5905,-4,-3,0,1
10857,3048,2695,5905,-4,-3,0,1
10862,3044,2696,5903,-4,-4,0,1
10867,3042,2697,5894,-4,-4,0,1
10872,3040,2696,5884,-4,-3,0,1
10877,3036,2696,5880,-4,-3,0,1
10882,3033,2695,5879,-4,-2,0,1
10887,3034,2695,5881,-4,-1,0,1
10892,3037,2695,5893,-4,-1,0,1
10897,3042,2692,5908,-4,-1,0,1
10902,3045,2689,5915,-4,-1,0,1
10907,3044,2686,5915,-4,-2,0,1
10912,3041,2689,5907,-4,-2,0,1
10917,3038,2693,5900,-4,-3,0,1
10922,3034,2696,5896,-4,-3,0,1
10927,3030,2698,5893,-4,-3,0,1
10932,3030,2697,5897,-4,-2,0,1
10937,3027,2698,5902,-4,-2,0,1
10942,3028,2699,5906,-4,-1,0,1
10947,3026,2700,5908,-4,0,0,1
10952,3024,2700,5906,-4,0,0,1
10957,3022,2698,5905,-4,0,0,1
10962,3020,2701,5910,-4,0,0,1
10967,3016,2701,5910,-4,0,0,1
10972,3011,2700,5905,-4,0,0,1
10977,3010,2700,5897,-4,0,0,1
10982,3012,2700,5893,-4,0,0,1
10987,3011,2696,5895,-4,0,0,1
10993,3017,2695,5902,-4,1,0,1
10998,3021,2694,5911,-4,1,0,1
11002,3023,2693,5924,-4,1,0,1
11008,3025,2692,5929,-4,1,0,1
11012,3022,2692,5935,-4,1,0,1
11018,3024,2691,5936,-4,1,0,1
11023,3023,2691,5930,-4,0,0,1
11027,3020,2692,5925,-4,-1,0,1
11033,3018,2692,5920,-4,-1,0,1
11038,3014,2693,5912,-4,-1,0,1
11043,3007,2694,5914,-4,-2,0,1
11048,2999,2694,5918,-4,-1,0,1
11053,2989,2696,5919,-4,-1,0,1
11058,2978,2694,5914,-4,-1,0,1
11063,2970,2691,5912,-4,-1,0,1
11068,2971,2691,5910,-4,-1,0,1
11073,2974,2692,5912,-4,-2,0,1
11078,2979,2692,5919,-4,-3,0,1
11083,2985,2694,5928,-4,-3,0,1
11088,2989,2692,5933,-4,-4,0,1
11093,2990,2691,5937,-4,-4,0,1
11098,2986,2690,5935,-4,-4,0,1
11103,2984,2688,5931,-4,-4,0,1
11108,2981,2690,5924,-4,-3,0,1
11113,2980,2692,5921,-4,-3,0,1
11118,2982,2695,5917,-4,-2,0,1
11123,2987,2697,5917,-4,-2,0,1
11128,2993,2696,5917,-4,-2,0,1
11133,2993,2695,5918,-4,-2,0,1
11138,2993,2697,5917,-4,-2,0,1
11143,2991,2700,5911,-4,-2,0,1
11148,2989,2698,5908,-4,-1,0,1
11153,2986,2700,5911,-4,-1,0,1
11158,2986,2701,5915,-4,-1,0,1
11163,2989,2699,5918,-4,-1,0,1
11168,2988,2701,5922,-4,0,0,1
11173,2986,2698,5923,-4,0,0,1
11178,2984,2695,5928,-4,0,0,1
11183,2981,2696,5937,-4,0,0,1
11188,2979,2695,5942,-4,-1,0,1
11193,2975,2696,5942,-4,-1,0,1
11198,2971,2697,5940,-4,-2,0,1
11203,2967,2696,5932,-4,-2,0,1
11208,2968,2697,5928,-4,-3,0,1
11213,2972,2696,5926,-4,-3,0,1
11218,2976,2693,5919,-4,-3,0,1
11223,2980,2695,5914,-4,-3,0,1
11228,2982,2694,5913,-4,-3,0,1
11233,2981,2692,5907,-4,-2,0,1
11238,2982,2688,5907,-4,-1,0,1
11243,2983,2686,5905,-4,-1,0,1
11248,2980,2688,5904,-4,0,0,1
11253,2979,2690,5910,-4,0,0,1
11258,2981,2691,5914,-4,0,0,1
11263,2981,2696,5913,-4,0,0,1
11268,2978,2701,5910,-4,-1,0,1
11273,2974,2705,5912,-4,-1,0,1
11278,2970,2706,5917,-4,-2,0,1
11283,2968,2705,5927,-4,-2,0,1
11288,2965,2704,5932,-4,-2,0,1
11293,2966,2702,5935,-4,-2,0,1
11298,2967,2701,5941,-4,-3,0,1
11303,2968,2700,5940,-4,-3,1,1
11308,2969,2701,5940,-4,-3,0,1
11313,2976,2702,5940,-4,-4,0,1
11318,2982,2703,5935,-4,-4,0,1
11323,2982,2700,5927,-4,-3,0,1
11328,2979,2699,5921,-4,-2,0,1
11333,2976,2698,5916,-4,-2,0,1
11338,2974,2699,5908,-4,-1,0,1
11343,2969,2698,5910,-4,-1,0,1
11348,2967,2694,5918,-4,-1,0,1
11353,2966,2692,5926,-4,-1,0,1
11358,2967,2692,5928,-4,-2,0,1
11363,2969,2690,5927,-4,-2,0,1
11368,2967,2690,5931,-4,-2,0,1
11373,2967,2692,5932,-4,-2,0,1
11378,2971,2688,5936,-4,-2,0,1
11383,2972,2688,5936,-4,-2,0,1
11388,2970,2689,5927,-4,-2,0,1
11393,2968,2689,5918,-4,-2,0,1
11398,2967,2693,5911,-4,-1,0,1
11403,2963,2698,5909,-4,-1,0,1
11408,2960,2701,5907,-4,0,0,1
11413,2959,2701,5911,-4,1,0,1
11418,2958,2701,5913,-4,1,0,1
11423,2960,2702,5914,-4,1,0,1
11428,2964,2703,5918,-4,1,0,1
11433,2967,2704,5922,-4,0,0,1
11438,2971,2704,5928,-4,0,0,1
11443,2971,2701,5933,-4,-1,0,1
11448,2971,2699,5936,-4,-1,0,1
11453,2971,2699,5937,-4,-1,0,1
11458,2971,2695,5941,-4,-1,0,1
11463,2970,2691,5938,-4,-1,0,1
11468,2964,2688,5936,-4,-1,0,1
11473,2959,2687,5931,-4,-2,0,1
11478,2958,2688,5928,-4,-1,0,1
11483,2954,2689,5923,-4,-1,0,1
11488,2954,2690,5917,-4,-1,0,1
11493,2951,2691,5912,-4,0,0,1
11498,2949,2691,5907,-4,1,0,1
11503,2948,2695,5907,-4,1,0,1
11508,2947,2700,5909,-4,2,0,1
11513,2937,2702,5913,-4,3,0,1
11518,2928,2698,5915,-4,3,0,1
11523,2925,2694,5917,-4,3,0,1
11528,2921,2693,5924,-4,3,0,1
11533,2918,2691,5934,-4,3,0,1
11538,2918,2688,5942,-4,2,0,1
11543,2920,2684,5949,-4,2,0,1
11548,2920,2682,5952,-4,2,0,1
11553,2919,2684,5948,-4,1,0,1
11559,2921,2687,5949,-4,1,0,1
11564,2922,2690,5953,-4,0,0,1
11568,2923,2692,5960,-4,0,0,1
11573,2922,2689,5967,-4,-1,0,1
11578,2919,2685,5974,-4,-2,0,1
11583,2916,2683,5980,-4,-2,0,1
11588,2912,2686,5983,-4,-3,0,1
11594,2906,2691,5979,-4,-3,0,1
11598,2900,2691,5970,-4,-3,0,1
11604,2898,2693,5957,-4,-3,0,1
11609,2896,2696,5953,-4,-3,0,1
11614,2895,2697,5950,-4,-2,0,1
11619,2891,2699,5950,-4,-2,0,1
11624,2886,2698,5951,-4,-2,0,1
11629,2882,2697,5953,-4,-1,0,1
11634,2880,2696,5956,-4,-1,0,1
11639,2879,2695,5958,-4,-1,0,1
11644,2875,2692,5958,-4,-1,0,1
11649,2875,2689,5959,-4,-1,0,1
11654,2872,2689,5955,-4,-2,0,1
11659,2870,2692,5950,-4,-2,0,1
11664,2865,2695,5950,-4,-2,0,1
11669,2857,2697,5947,-4,-1,0,1
11674,2853,2699,5942,-4,-1,0,1
11679,2855,2701,5941,-4,0,0,1
11684,2856,2705,5940,-4,1,0,1
11689,2864,2706,5939,-4,1,0,1
11694,2871,2705,5939,-4,2,0,1
11699,2875,2701,5942,-4,2,0,1
11704,2877,2700,5949,-4,1,0,1
11709,2875,2702,5952,-4,1,0,1
11714,2872,2704,5951,-4,0,0,1
11719,2864,2704,5957,-4,0,0,1
11724,2862,2704,5960,-4,-1,0,1
11729,2859,2704,5963,-4,-2,0,1
11734,2857,2704,5967,-4,-3,0,1
11739,2856,2708,5964,-4,-3,0,1
11744,2855,2708,5962,-4,-4,0,1
11749,2856,2705,5960,-4,-3,0,1
11754,2859,2703,5961,-4,-3,0,1
11759,2860,2703,5964,-4,-2,0,1
11764,2862,2703,5963,-4,-1,0,1
11769,2863,2701,5966,-4,0,0,1
11774,2861,2700,5970,-4,1,0,1
11779,2857,2699,5969,-4,1,0,1
11784,2854,2700,5965,-4,1,0,1
11789,2853,2704,5964,-4,1,0,1
11794,2854,2707,5970,-4,0,0,1
11799,2855,2705,5978,-4,-1,0,1
11804,2854,2702,5976,-4,-1,0,1
11809,2851,2701,5975,-4,-1,0,1
11814,2851,2698,5969,-4,-1,0,1
11819,2849,2696,5958,-4,-1,0,1
11824,2841,2695,5951,-4,0,0,1
11829,2836,2691,5949,-4,1,0,1
11834,2829,2689,5949,-4,1,0,1
11839,2824,2689,5948,-4,2,0,1
11844,2821,2689,5948,-4,3,0,1
11849,2817,2689,5951,-4,3,0,1
11854,2812,2692,5954,-4,3,0,1
11859,2806,2695,5962,-4,2,0,1
11864,2805,2697,5968,-4,1,0,1
11869,2804,2700,5978,-4,1,0,1
11874,2807,2703,5987,-4,0,0,1
11879,2809,2703,5992,-4,0,0,1
11884,2809,2701,5995,-4,-1,0,1
11889,2806,2699,5995,-4,0,0,1
11894,2805,2698,5996,-4,0,0,1
11899,2805,2698,5989,-4,0,1,1
11904,2802,2699,5979,-4,1,0,1
11909,2798,2699,5971,-4,1,0,1
11914,2795,2697,5971,-4,2,0,1
11919,2789,2696,5973,-4,2,0,1
11924,2785,2694,5976,-4,3,0,1
11929,2784,2695,5980,-4,3,0,1
11934,2783,2697,5990,-4,3,0,1
11939,2779,2693,6004,-4,3,0,1
11944,2777,2688,6016,-4,3,0,1
11949,2775,2685,6024,-4,3,0,1
11954,2778,2686,6031,-4,3,0,1
11959,2783,2685,6030,-4,2,0,1
11964,2785,2688,6022,-4,2,0,1
11969,2782,2693,6021,-4,1,0,1
11974,2775,2698,6017,-4,0,0,1
11979,2766,2702,6021,-4,0,0,1
11984,2760,2703,6022,-4,0,0,1
11989,2757,2701,6019,-4,0,0,1
11994,2756,2696,6015,-4,0,0,1
11999,2753,2694,6009,-4,1,0,1
12004,2746,2693,6009,-4,1,0,1
12009,2739,2687,6011,-4,2,0,1
12014,2732,2685,6012,-4,2,0,1
12019,2729,2685,6011,-4,3,0,1
12024,2724,2686,6005,-4,3,0,1
12029,2717,2691,6005,-4,3,0,1
12034,2714,2692,6008,-4,3,0,1
12039,2708,2691,6010,-4,3,0,1
12044,2702,2691,6010,-4,2,0,1
12049,2700,2692,6012,-4,2,0,1
12054,2699,2691,6020,-4,1,0,1
12059,2697,2695,6027,-4,1,0,1
12064,2691,2696,6029,-4,1,0,1
12069,2684,2696,6034,-4,0,0,1
12074,2680,2696,6037,-4,0,0,1
12079,2673,2695,6041,-4,0,0,1
12084,2671,2696,6045,-4,0,0,1
12089,2672,2699,6048,-4,-1,0,1
12094,2669,2702,6053,-4,-1,0,1
12099,2668,2700,6056,-4,-2,0,1
12104,2668,2695,6057,-4,-2,0,1
12109,2668,2691,6060,-4,-2,0,1
12114,2673,2686,6060,-4,-2,0,1
12119,2679,2686,6052,-4,-1,0,1
12124,2681,2689,6043,-4,0,0,1
12129,2680,2690,6038,-4,0,0,1
12134,2684,2691,6037,-4,0,0,1
12139,2678,2690,6033,-4,0,0,1
12144,2667,2687,6035,-4,-1,0,1
12149,2658,2684,6040,-4,-1,0,1
12155,2655,2683,6043,-4,-1,0,1
12160,2652,2683,6043,-4,0,0,1
12164,2650,2684,6039,-4,0,0,1
12170,2650,2685,6038,-4,0,0,1
12174,2646,2684,6042,-4,1,0,1
12179,2645,2681,6048,-4,1,0,1
12185,2643,2681,6053,-4,0,0,1
12189,2642,2682,6055,-4,0,0,1
12195,2641,2681,6052,-4,1,0,1
12199,2642,2685,6051,-4,1,0,1
12205,2641,2685,6051,-4,1,0,1
12210,2636,2688,6050,-4,1,0,1
12214,2628,2688,6048,-4,1,0,1
12219,2625,2688,6054,-4,0,0,1
12225,2622,2686,6063,-4,0,0,1
12230,2622,2684,6071,-4,-1,0,1
12235,2621,2681,6072,-4,-1,0,1
12240,2617,2679,6067,-4,-2,0,1
12245,2612,2683,6060,-4,-2,0,1
12250,2611,2687,6052,-4,-1,0,1
12255,2614,2692,6050,-4,-1,0,1
12260,2616,2694,6049,-4,-1,0,1
12265,2620,2694,6050,-4,-1,0,1
12270,2622,2691,6047,-4,-2,0,1
12275,2621,2692,6053,-4,-2,0,1
12280,2620,2693,6057,-4,-2,0,1
12285,2621,2688,6059,-4,-2,0,1
12290,2621,2685,6060,-4,-3,0,1
12295,2621,2684,6055,-4,-3,0,1
12300,2619,2686,6050,-4,-3,0,1
12305,2620,2688,6046,-4,-3,0,1
12310,2621,2688,6039,-4,-3,0,1
12315,2622,2689,6035,-4,-2,0,1
12320,2622,2688,6033,-4,-2,0,1
12325,2619,2689,6031,-4,-1,0,1
12330,2613,2690,6038,-4,-1,0,1
12335,2609,2690,6043,-4,-2,0,1
12340,2606,2691,6050,-4,-2,0,1
12345,2606,2691,6059,-4,-3,0,1
12350,2604,2688,6065,-4,-3,0,1
12355,2602,2688,6068,-4,-4,0,1
12360,2602,2688,6066,-4,-4,0,1
12365,2602,2691,6059,-4,-4,0,1
12370,2604,2692,6053,-4,-4,0,1
12375,2612,2693,6052,-4,-3,0,1
12380,2622,2692,6057,-4,-3,0,1
12385,2632,2691,6061,-4,-3,0,1
12390,2637,2690,6061,-4,-2,0,1
12395,2635,2691,6057,-4,-2,0,1
12400,2630,2693,6057,-4,-2,0,1
12405,2623,2697,6053,-4,-2,0,1
12410,2619,2698,6053,-4,-2,0,1
12415,2615,2697,6057,-4,-2,0,1
12420,2618,2697,6058,-4,-2,0,1
12425,2622,2693,6059,-4,-2,0,1
12430,2624,2695,6062,-4,-2,0,1
12435,2625,2697,6062,-4,-2,0,1
12440,2627,2696,6064,-4,-2,0,1
12445,2626,2693,6069,-4,-2,0,1
12450,2624,2690,6073,-4,-2,0,1
12455,2623,2691,6075,-4,-2,0,1
12460,2624,2690,6072,-4,-2,0,1
12465,2624,2688,6069,-4,-2,0,1
12470,2625,2691,6063,-4,-3,0,1
12475,2628,2693,6053,-4,-3,0,1
12480,2626,2693,6049,-4,-3,0,1
12485,2622,2695,6045,-4,-4,0,1
12490,2620,2696,6041,-4,-4,0,1
12495,2615,2696,6043,-4,-3,0,1
12500,2611,2696,6042,-4,-3,0,1
12505,2612,2698,6040,-4,-3,0,1
12510,2617,2697,6040,-4,-3,0,1
12515,2622,2696,6040,-4,-3,0,1
12520,2627,2697,6038,-4,-3,0,1
12525,2630,2695,6042,-4,-3,0,1
12530,2629,2694,6044,-4,-3,0,1
12535,2624,2694,6049,-4,-3,0,1
12540,2619,2694,6050,-4,-2,0,1
12545,2617,2691,6046,-4,-2,0,1
12550,2614,2692,6044,-4,-1,0,1
12555,2610,2694,6038,-4,0,0,1
12560,2607,2695,6035,-4,0,0,1
12565,2608,2694,6038,-4,0,0,1
12570,2610,2694,6042,-4,0,0,1
12575,2610,2693,6046,-4,-1,0,1
12580,2609,2691,6054,-4,-1,0,1
12585,2607,2690,6058,-4,-1,0,1
12590,2606,2690,6062,-4,-2,0,1
12595,2610,2691,6060,-4,-2,0,1
12600,2616,2689,6056,-4,-2,0,1
12605,2621,2689,6053,-4,-3,0,1
12610,2623,2683,6052,-4,-3,0,1
12615,2625,2682,6055,-4,-3,0,1
12620,2624,2685,6057,-4,-3,0,1
12625,2621,2684,6057,-4,-3,0,1
12630,2618,2683,6057,-4,-3,0,1
12635,2614,2684,6052,-4,-3,0,1
12640,2611,2683,6047,-4,-2,0,1
12645,2606,2684,6041,-4,-2,0,1
12650,2602,2684,6039,-4,-1,0,1
12655,2597,2682,6040,-4,-1,0,1
12660,2597,2682,6046,-4,0,0,1
12665,2599,2680,6053,-4,0,0,1
12670,2604,2681,6059,-4,0,0,1
12675,2608,2685,6067,-4,0,0,1
12680,2611,2683,6071,-4,-1,0,1
12685,2613,2683,6068,-4,-1,0,1
12690,2616,2682,6067,-4,-1,0,1
12695,2620,2683,6067,-4,-2,0,1
12700,2621,2684,6067,-4,-2,0,1
12705,2621,2687,6066,-4,-3,0,1
12710,2619,2688,6063,-4,-3,0,1
12715,2615,2687,6063,-4,-3,0,1
12720,2606,2686,6060,-4,-3,0,1
12725,2603,2686,6054,-4,-3,0,1
12730,2606,2686,6050,-4,-3,0,1
12735,2611,2687,6048,-4,-3,0,1
12740,2620,2685,6046,-4,-2,0,1
12745,2626,2681,6046,-4,-2,0,1
12751,2624,2681,6044,-4,-1,0,1
12755,2620,2683,6045,-4,-1,0,1
12760,2617,2684,6049,-4,-1,0,1
12766,2617,2690,6056,-4,-1,0,1
12770,2618,2695,6062,-4,-1,0,1
12776,2619,2693,6067,-4,-2,0,1
12780,2614,2692,6072,-4,-3,0,1
12786,2612,2695,6072,-4,-3,0,1
12791,2611,2696,6074,-4,-4,0,1
12796,2609,2697,6078,-4,-4,0,1
12801,2608,2696,6080,-4,-4,0,1
12806,2608,2694,6076,-4,-4,0,1
12811,2611,2692,6081,-4,-5,0,1
12816,2614,2690,6078,-4,-5,0,1
12821,2622,2687,6078,-4,-5,0,1
12826,2628,2686,6073,-4,-5,0,1
12831,2627,2684,6068,-4,-5,0,1
12836,2624,2684,6064,-4,-5,0,1
12841,2617,2687,6059,-4,-5,0,1
12846,2613,2691,6054,-4,-4,0,1
12851,2617,2694,6044,-4,-4,0,1
12856,2621,2698,6039,-4,-3,0,1
12861,2622,2698,6033,-4,-4,0,1
12866,2627,2695,6035,-4,-4,0,1
12871,2626,2690,6037,-4,-4,0,1
12876,2622,2690,6042,-4,-4,0,1
12881,2617,2690,6045,-4,-4,0,1
12886,2618,2691,6048,-4,-4,0,1
12891,2622,2690,6045,-4,-4,0,1
12896,2628,2691,6048,-4,-4,0,1
12901,2632,2690,6049,-4,-4,0,1
12906,2638,2690,6048,-4,-3,0,1
12911,2642,2689,6038,-4,-3,0,1
12916,2641,2689,6031,-4,-2,0,1
12921,2643,2689,6027,-4,-2,0,1
12926,2645,2693,6027,-4,-2,0,1
12931,2646,2694,6029,-4,-2,0,1
12936,2643,2692,6037,-4,-2,0,1
12941,2641,2688,6041,-4,-3,0,1
12946,2644,2688,6048,-4,-3,0,1
12951,2649,2687,6054,-4,-3,0,1
12956,2655,2686,6062,-4,-3,0,1
12961,2658,2685,6063,-4,-3,0,1
12966,2657,2684,6057,-4,-2,0,1
12971,2652,2687,6050,-4,-2,0,1
12976,2648,2687,6046,-4,-1,0,1
12981,2645,2688,6045,-4,-1,0,1
12986,2642,2687,6050,-4,-1,0,1
12991,2641,2683,6059,-4,-1,0,1
12996,2638,2682,6066,-4,-1,0,1
13001,2635,2684,6069,-4,-2,0,1
13006,2632,2684,6073,-4,-3,0,1
13011,2633,2684,6077,-4,-3,0,1
13016,2635,2685,6076,-4,-4,0,1
13021,2640,2684,6071,-4,-4,0,1
13026,2642,2680,6062,-4,-4,0,1
13031,2643,2681,6052,-4,-3,0,1
13036,2648,2681,6042,-4,-2,0,1
13041,2651,2681,6036,-4,-2,0,1
13046,2654,2681,6032,-4,-1,0,1
13051,2656,2683,6034,-4,-1,0,1
13056,2659,2686,6039,-4,-1,0,1
13061,2659,2689,6039,-4,-1,0,1
13066,2659,2691,6037,-4,-1,0,1
13071,2656,2692,6035,-4,-1,0,1
13076,2647,2692,6035,-4,0,0,1
13081,2638,2689,6042,-4,0,0,1
13086,2637,2684,6049,-4,-1,0,1
13091,2637,2683,6057,-4,-1,0,1
13096,2637,2684,6063,-4,-2,0,1
13101,2640,2686,6064,-4,-2,0,1
13106,2644,2685,6062,-4,-3,0,1
13111,2648,2688,6058,-4,-3,0,1
13116,2648,2687,6056,-4,-3,0,1
13121,2648,2688,6052,-4,-3,0,1
13126,2648,2687,6051,-4,-3,0,1
13131,2646,2689,6057,-4,-2,0,1
13136,2647,2687,6058,-4,-2,0,1
13141,2645,2684,6051,-4,-1,0,1
13146,2644,2687,6044,-4,-1,0,1
13151,2637,2691,6037,-4,-1,0,1
13156,2627,2692,6035,-4,-1,0,1
13161,2622,2689,6038,-4,-1,0,1
13166,2620,2689,6038,-4,-1,0,1
13171,2624,2686,6037,-4,-2,0,1
13176,2625,2682,6036,-4,-2,0,1
13181,2628,2679,6034,-4,-2,0,1
13186,2632,2676,6033,-4,-2,0,1
13191,2637,2679,6034,-4,-2,0,1
13196,2638,2685,6036,-4,-1,0,1
13201,2638,2688,6038,-4,-1,0,1
13206,2636,2689,6045,-4,-1,0,1
13211,2637,2685,6047,-4,-1,0,1
13216,2637,2685,6049,-4,-1,0,1
13221,2636,2682,6050,-4,-1,0,1
13226,2635,2680,6054,-4,-2,0,1
13231,2632,2683,6060,-4,-2,0,1
13236,2626,2686,6062,-4,-2,0,1
13241,2623,2688,6068,-4,-2,0,1
13246,2624,2685,6069,-4,-2,0,1
13251,2628,2686,6067,-4,-2,0,1
13256,2631,2689,6068,-4,-2,0,1
13261,2633,2690,6070,-4,-2,0,1
13266,2632,2694,6075,-4,-2,0,1
13271,2632,2698,6081,-4,-3,0,1
13276,2626,2698,6086,-4,-3,0,1
13281,2622,2694,6088,-4,-3,0,1
13286,2621,2689,6087,-4,-3,0,1
13291,2625,2685,6085,-4,-3,0,1
13296,2625,2681,6079,-4,-4,0,1
13301,2627,2677,6068,-4,-4,0,1
13307,2625,2676,6052,-4,-4,0,1
13311,2625,2677,6034,-4,-3,0,1
13316,2626,2677,6022,-4,-2,0,1
13322,2630,2678,6022,-4,-1,0,1
13326,2631,2679,6024,-4,-1,0,1
13331,2633,2679,6031,-4,0,0,1
13337,2636,2676,6041,-4,0,0,1
13341,2638,2679,6048,-4,0,0,1
13346,2639,2681,6056,-4,-1,0,1
13351,2639,2679,6062,-4,-2,0,1
13356,2639,2680,6064,-4,-2,0,1
13362,2641,2684,6068,-4,-3,0,1
13367,2641,2686,6068,-4,-3,0,1
13371,2641,2687,6063,-4,-4,0,1
13377,2638,2690,6059,-4,-4,0,1
13382,2634,2690,6051,-4,-4,0,1
13387,2632,2692,6043,-4,-4,0,1
13392,2630,2690,6041,-4,-3,0,1
13397,2629,2692,6043,-4,-3,0,1
13402,2626,2693,6046,-4,-3,0,1
13407,2625,2693,6044,-4,-2,0,1
13412,2630,2691,6042,-4,-2,0,1
13417,2634,2691,6041,-4,-2,0,1
13422,2637,2690,6033,-4,-2,0,1
13427,2640,2692,6036,-4,-2,0,1
13432,2643,2693,6036,-4,-2,0,1
13437,2648,2693,6041,-4,-2,0,1
13442,2646,2695,6050,-4,-2,0,1
13447,2646,2694,6059,-4,-3,0,1
13452,2645,2694,6061,-4,-3,0,1
13457,2643,2693,6061,-4,-4,0,1
13462,2640,2693,6064,-4,-4,0,1
13467,2636,2692,6061,-4,-4,0,1
13472,2630,2689,6057,-4,-4,0,1
13477,2628,2686,6047,-4,-4,0,1
13482,2628,2686,6043,-4,-3,0,1
13487,2631,2683,6045,-4,-3,0,1
13492,2637,2680,6044,-4,-3,0,1
13497,2640,2678,6045,-4,-3,0,1
13502,2642,2680,6045,-4,-4,0,1
13507,2647,2681,6045,-4,-4,0,1
13512,2652,2681,6043,-4,-4,0,1
13517,2654,2681,6045,-4,-4,0,1
13522,2655,2684,6048,-4,-4,0,1
13527,2656,2685,6046,-4,-3,0,1
13532,2655,2685,6040,-4,-3,0,1
13537,2651,2683,6037,-4,-3,0,1
13542,2647,2683,6035,-4,-2,0,1
13547,2642,2685,6034,-4,-2,0,1
13552,2642,2686,6035,-4,-2,0,1
13557,2638,2688,6037,-4,-2,0,1
13562,2636,2690,6044,-4,-2,0,1
13567,2637,2692,6045,-4,-3,0,1
13572,2642,2692,6046,-4,-4,0,1
13577,2645,2694,6043,-4,-4,0,1
13582,2648,2693,6039,-4,-4,0,1
13587,2652,2690,6030,-4,-3,0,1
13592,2655,2688,6028,-4,-3,0,1
13597,2655,2691,6024,-4,-2,0,1
13602,2655,2692,6018,-4,-1,0,1
13607,2657,2692,6018,-4,-1,0,1
13612,2659,2692,6018,-4,-1,0,1
13617,2661,2693,6023,-4,-1,0,1
13622,2660,2693,6031,-4,-2,0,1
13627,2657,2695,6038,-4,-2,0,1
13632,2654,2695,6042,-4,-2,0,1
13637,2649,2694,6047,-4,-3,0,1
13642,2646,2696,6051,-4,-3,0,1
13647,2647,2694,6056,-4,-3,0,1
13652,2648,2689,6062,-4,-4,0,1
13657,2651,2683,6062,-4,-4,0,1
13662,2647,2680,6058,-4,-3,0,1
13667,2649,2679,6052,-4,-3,0,1
13672,2649,2681,6047,-4,-3,0,1
13677,2651,2679,6042,-4,-2,0,1
13682,2654,2680,6043,-4,-2,0,1
13687,2655,2682,6045,-4,-2,0,1
13692,2653,2681,6040,-4,-1,0,1
13697,2656,2681,6042,-4,-1,0,1
13702,2657,2684,6040,-4,-2,0,1
13707,2657,2685,6035,-4,-2,0,1
13712,2656,2687,6038,-4,-2,0,1
13717,2657,2690,6035,-4,-2,0,1
13722,2660,2694,6036,-4,-2,0,1
13727,2664,2696,6042,-4,-2,0,1
13732,2668,2695,6046,-4,-2,0,1
13737,2673,2694,6051,-4,-2,0,1
13742,2673,2692,6057,-4,-2,0,1
13747,2669,2692,6060,-4,-2,0,1
13752,2662,2692,6062,-4,-3,0,1
13757,2658,2693,6060,-4,-3,0,1
13762,2656,2692,6059,-4,-3,0,1
13767,2661,2691,6052,-4,-3,0,1
13772,2663,2692,6045,-4,-2,0,1
13777,2665,2694,6036,-4,-2,0,1
13782,2665,2693,6027,-4,-1,0,1
13787,2663,2693,6023,-4,-1,0,1
13792,2662,2690,6026,-4,-1,0,1
13797,2658,2690,6034,-4,-1,0,1
13802,2655,2687,6041,-4,-1,0,1
13807,2656,2684,6042,-4,-2,0,1
13812,2659,2682,6042,-4,-2,0,1
13817,2660,2685,6040,-4,-2,0,1
13822,2662,2685,6037,-4,-3,0,1
13827,2667,2687,6039,-4,-3,0,1
13832,2667,2686,6039,-4,-3,0,1
13837,2666,2687,6041,-4,-3,0,1
13842,2665,2684,6038,-4,-2,0,1
13847,2663,2685,6033,-4,-2,0,1
13852,2659,2689,6031,-4,-2,0,1
13857,2658,2690,6027,-4,-2,0,1
13862,2653,2687,6027,-4,-2,0,1
13867,2651,2682,6032,-4,-2,0,1
13872,2654,2683,6035,-4,-2,0,1
13877,2661,2687,6041,-4,-3,0,1
13882,2667,2686,6046,-4,-3,0,1
13887,2673,2684,6055,-4,-3,0,1
13892,2676,2685,6055,-4,-3,0,1
13898,2679,2684,6046,-4,-2,0,1
13902,2679,2682,6046,-4,-2,0,1
13908,2676,2681,6047,-4,-2,0,1
13913,2672,2683,6048,-4,-2,0,1
13918,2667,2684,6045,-4,-3,0,1
13923,2665,2684,6043,-4,-3,0,1
13928,2660,2688,6037,-4,-3,0,1
13933,2657,2689,6029,-4,-3,0,1
13938,2657,2690,6026,-4,-2,0,1
13943,2658,2690,6023,-4,-2,0,1
13948,2660,2689,6025,-4,-2,0,1
13953,2663,2689,6031,-4,-3,0,1
13958,2662,2687,6039,-4,-3,0,1
13963,2661,2684,6042,-4,-3,0,1
13968,2657,2681,6039,-4,-3,0,1
13973,2653,2680,6037,-4,-3,0,1
13978,2648,2681,6037,-4,-3,0,1
13983,2647,2681,6039,-4,-3,0,1
13988,2647,2682,6040,-4,-2,0,1
13993,2648,2682,6034,-4,-2,0,1
13998,2649,2683,6026,-4,-1,0,1
14003,2651,2687,6021,-4,-1,0,1
14008,2656,2687,6022,-4,-1,0,1
14013,2658,2686,6021,-4,-1,0,1
14018,2661,2685,6028,-4,-1,0,1
14023,2661,2686,6045,-4,-1,0,1
14028,2658,2689,6053,-4,-1,0,1
14033,2657,2685,6056,-4,-1,0,1
14038,2660,2684,6057,-4,-1,0,1
14043,2661,2686,6060,-4,-1,0,1
14048,2660,2687,6062,-4,-1,0,1
14053,2658,2688,6066,-4,-2,0,1
14058,2658,2689,6068,-4,-2,0,1
14063,2656,2689,6071,-4,-3,0,1
14068,2656,2684,6070,-4,-3,0,1
14073,2653,2680,6069,-4,-4,0,1
14078,2652,2677,6064,-4,-4,0,1
14083,2648,2671,6057,-4,-4,0,1
14088,2646,2672,6049,-4,-3,0,1
14093,2644,2673,6043,-4,-3,0,1
14098,2644,2674,6032,-4,-3,0,1
14103,2643,2676,6024,-4,-2,0,1
14108,2641,2677,6023,-4,-2,0,1
14113,2638,2677,6027,-4,-2,0,1
14118,2638,2675,6028,-4,-2,0,1
14123,2640,2678,6031,-4,-1,0,1
14128,2642,2681,6035,-4,-1,0,1
14133,2644,2683,6036,-4,-1,0,1
14138,2644,2682,6038,-4,-1,0,1
14143,2645,2682,6040,-4,-1,0,1
14148,2646,2684,6044,-4,0,0,1
14153,2648,2683,6041,-4,0,0,1
14158,2652,2683,6039,-4,0,0,1
14163,2653,2684,6037,-4,0,0,1
14168,2653,2683,6036,-4,0,0,1
14173,2652,2681,6042,-4,0,0,1
14178,2653,2677,6044,-4,0,0,1
14183,2656,2676,6048,-4,0,0,1
14188,2660,2679,6048,-4,0,0,1
14193,2662,2679,6051,-4,0,0,1
14198,2662,2682,6054,-4,0,0,1
14203,2662,2681,6059,-4,0,0,1
14208,2664,2681,6062,-4,0,0,1
14213,2663,2682,6063,-4,-1,0,1
14218,2660,2681,6061,-4,-1,0,1
14223,2655,2680,6064,-4,-2,0,1
14228,2648,2681,6063,-4,-2,0,1
14233,2643,2680,6059,-4,-2,0,1
14238,2637,2681,6055,-4,-1,0,1
14243,2632,2683,6048,-4,-1,0,1
14248,2633,2684,6039,-4,0,0,1
14253,2633,2683,6038,-4,0,0,1
14258,2634,2680,6044,-4,0,0,1
14263,2634,2679,6048,-4,1,0,1
14268,2633,2681,6049,-4,1,0,1
14273,2629,2683,6053,-4,1,0,1
14278,2626,2688,6056,-4,1,0,1
14283,2628,2688,6054,-4,1,0,1
14288,2627,2690,6052,-4,0,0,1
14293,2625,2691,6048,-4,0,0,1
14298,2626,2691,6049,-4,-1,0,1
14303,2623,2689,6047,-4,-1,0,1
14308,2619,2685,6045,-4,-1,0,1
14313,2615,2684,6045,-4,-1,0,1
14318,2612,2681,6044,-4,0,0,1
14323,2605,2681,6044,-4,0,0,1
14328,2599,2683,6046,-4,0,0,1
14333,2593,2686,6050,-4,0,0,1
14338,2588,2687,6056,-4,-1,0,1
14343,2587,2691,6062,-4,-1,0,1
14348,2588,2689,6064,-4,-1,0,1
14353,2591,2690,6068,-4,-1,0,1
14358,2594,2691,6072,-4,-2,0,1
14363,2596,2690,6075,-4,-2,0,1
14368,2597,2689,6076,-4,-2,0,1
14373,2597,2687,6073,-4,-2,0,1
14378,2599,2688,6071,-4,-2,0,1
14383,2597,2688,6068,-4,-2,0,1
14388,2596,2692,6066,-4,-2,0,1
14393,2597,2691,6060,-4,-2,0,1
14398,2598,2691,6051,-4,-2,0,1
14403,2594,2692,6044,-4,-1,0,1
14408,2594,2692,6041,-4,-1,0,1
14413,2592,2695,6039,-4,-1,0,1
14418,2590,2697,6042,-4,0,0,1
14423,2588,2692,6049,-4,0,0,1
14428,2587,2691,6054,-4,-1,0,1
14433,2586,2692,6061,-4,-1,0,1
14438,2587,2690,6069,-4,-1,0,1
14443,2585,2691,6076,-4,-2,0,1
14448,2585,2693,6079,-4,-2,0,1
14453,2584,2694,6081,-4,-2,0,1
14458,2581,2691,6080,-4,-2,0,1
14463,2581,2689,6079,-4,-2,0,1
14468,2586,2687,6076,-4,-2,0,1
14473,2588,2687,6079,-4,-2,0,1
14478,2586,2688,6083,-4,-2,0,1
14483,2581,2688,6080,-4,-2,0,1
14489,2577,2686,6077,-4,-2,0,1
14493,2573,2686,6074,-4,-2,0,1
14499,2569,2688,6067,-4,-2,0,1
14503,2572,2686,6065,-4,-2,0,1
14509,2576,2687,6070,-4,-2,0,1
14514,2575,2688,6068,-4,-2,0,1
14519,2576,2687,6066,-4,-1,0,1
14524,2573,2686,6063,-4,-1,0,1
14529,2573,2685,6064,-4,-1,0,1
14534,2574,2683,6070,-4,-2,0,1
14539,2576,2683,6079,-4,-2,0,1
14544,2576,2682,6088,-4,-3,0,1
14549,2577,2684,6086,-4,-3,0,1
14554,2576,2685,6080,-4,-3,0,1
14559,2573,2685,6079,-4,-3,0,1
14564,2572,2683,6076,-4,-3,0,1
14569,2570,2685,6068,-4,-4,0,1
14574,2568,2685,6065,-4,-4,0,1
14579,2561,2686,6058,-4,-4,0,1
14584,2556,2690,6049,-4,-3,0,1
14589,2556,2691,6043,-4,-3,0,1
14594,2565,2691,6042,-4,-3,0,1
14599,2574,2693,6042,-4,-3,0,1
14604,2584,2695,6045,-4,-3,0,1
14609,2588,2692,6048,-4,-2,0,1
14614,2593,2691,6047,-4,-2,0,1
14619,2592,2691,6046,-4,-2,0,1
14624,2589,2690,6047,-4,-1,0,1
14629,2587,2690,6051,-4,-1,0,1
14634,2585,2685,6052,-4,-1,0,1
14639,2584,2680,6058,-4,-1,0,1
14644,2582,2681,6059,-4,0,0,1
14649,2579,2681,6064,-4,0,0,1
14654,2570,2684,6068,-4,0,0,1
14659,2562,2686,6069,-4,0,0,1
14664,2559,2687,6076,-4,0,0,1
14669,2558,2688,6081,-4,0,0,1
14674,2563,2689,6081,-4,0,0,1
14679,2561,2689,6084,-4,0,0,1
14684,2559,2690,6091,-4,0,0,1
14689,2555,2693,6090,-4,0,0,1
14694,2551,2691,6091,-4,1,0,1
14699,2546,2686,6091,-4,1,0,1
14704,2545,2681,6092,-4,1,0,1
14709,2542,2682,6091,-4,2,0,1
14714,2541,2682,6088,-4,2,0,1
14719,2538,2681,6081,-4,2,0,1
14724,2535,2680,6071,-4,2,0,1
14729,2533,2678,6063,-4,2,0,1
14734,2532,2676,6054,-4,2,0,1
14739,2532,2677,6045,-4,2,0,1
14744,2530,2678,6043,-4,3,0,1
14749,2526,2676,6049,-4,3,0,1
14754,2526,2677,6056,-4,4,0,1
14759,2526,2680,6064,-4,4,0,1
14764,2519,2683,6068,-4,5,0,1
14769,2512,2684,6068,-4,6,0,1
14774,2507,2686,6072,-4,6,0,1
14779,2502,2687,6073,-4,6,0,1
14784,2495,2687,6077,-4,6,0,1
14789,2485,2691,6077,-4,5,0,1
14794,2481,2694,6082,-4,5,0,1
14799,2475,2696,6088,-4,4,0,1
14804,2469,2694,6090,-4,3,0,1
14809,2465,2690,6097,-4,3,0,1
14814,2463,2689,6102,-4,3,0,1
14819,2457,2690,6108,-4,3,0,1
14824,2448,2693,6108,-4,3,0,1
14829,2438,2694,6108,-4,3,0,1
14834,2431,2693,6108,-4,3,0,1
14839,2425,2686,6107,-4,3,0,1
14844,2419,2684,6116,-4,3,0,1
14849,2419,2684,6121,-4,4,0,1
14854,2421,2683,6125,-4,4,0,1
14859,2422,2683,6126,-4,5,0,1
14864,2419,2682,6121,-4,5,0,1
14869,2413,2684,6117,-4,5,0,1
14874,2402,2684,6110,-4,5,0,1
14879,2387,2682,6104,-4,6,0,1
14884,2369,2679,6117,-4,6,0,1
14889,2355,2679,6125,-4,8,0,1
14894,2345,2678,6126,-4,10,0,1
14899,2339,2678,6122,-4,12,0,1
14904,2337,2681,6121,-4,13,0,1
14909,2329,2682,6125,-4,14,0,1
14914,2324,2684,6136,-4,14,0,1
14919,2315,2686,6144,-4,14,0,1
14924,2303,2685,6149,-4,14,0,1
14929,2287,2684,6154,-4,13,0,1
14934,2276,2684,6161,-4,13,0,1
14939,2267,2684,6170,-4,12,0,1
14944,2260,2679,6168,-4,12,0,1
14949,2251,2679,6169,-4,11,0,1
14954,2239,2681,6169,-4,11,0,1
14959,2226,2684,6172,-4,11,0,1
14964,2211,2686,6172,-4,10,0,1
14969,2197,2684,6168,-4,10,0,1
14974,2185,2682,6169,-4,10,0,1
14979,2176,2678,6171,-4,10,0,1
14984,2174,2679,6170,-4,9,0,1
14989,2173,2683,6173,-4,9,0,1
14994,2169,2682,6180,-4,9,0,1
14999,2161,2680,6188,-4,9,0,1
15004,2151,2680,6189,-4,10,0,1
15009,2137,2679,6196,-4,11,0,1
15014,2117,2680,6205,-4,12,0,1
15019,2096,2680,6211,-4,12,0,1
15024,2081,2680,6216,-4,12,0,1
15029,2069,2678,6214,-4,12,0,1
15034,2060,2680,6210,-4,11,0,1
15039,2048,2690,6210,-4,11,0,1
15044,2025,2706,6207,-4,10,0,1
15049,2002,2715,6206,-4,10,0,1
15055,1984,2712,6200,-4,10,0,1
15059,1970,2708,6199,-4,10,0,1
15065,1963,2702,6202,-4,11,0,1
15070,1955,2702,6212,-4,11,0,1
15074,1953,2700,6227,-4,11,0,1
15080,1947,2696,6244,-4,10,0,1
15084,1936,2694,6258,-4,9,0,1
15090,1922,2687,6265,-4,9,0,1
15095,1909,2682,6266,-4,8,0,1
15100,1903,2677,6268,-4,8,0,1
15105,1897,2675,6273,-4,8,0,1
15110,1892,2674,6276,-4,7,0,1
15115,1886,2673,6277,-4,7,0,1
15120,1878,2669,6275,-4,6,0,1
15125,1870,2663,6275,-4,6,0,1
15130,1853,2663,6276,-4,6,0,1
15135,1835,2662,6275,-4,6,0,1
15140,1820,2664,6272,-4,6,0,1
15145,1809,2671,6270,-4,6,0,1
15150,1799,2675,6263,-4,6,0,1
15155,1792,2679,6264,-4,5,0,1
15160,1787,2679,6260,-4,5,0,1
15165,1780,2681,6259,-4,5,0,1
15170,1773,2683,6269,-4,5,0,1
15175,1768,2686,6275,-4,5,0,1
15180,1763,2686,6277,-4,5,0,1
15185,1755,2689,6281,-4,5,0,1
15190,1744,2691,6285,-4,4,0,1
15195,1738,2691,6289,-4,4,0,1
15200,1732,2687,6294,-4,4,0,1
15205,1727,2682,6297,-4,3,0,1
15210,1723,2680,6295,-4,2,0,1
15215,1714,2678,6295,-4,2,0,1
15220,1709,2678,6292,-4,2,0,1
15225,1703,2678,6290,-4,2,0,1
15230,1693,2675,6289,-4,2,0,1
15235,1688,2674,6291,-4,3,0,1
15240,1691,2670,6296,-4,3,0,1
15245,1694,2665,6297,-4,4,0,1
15250,1696,2661,6298,-4,4,0,1
15255,1697,2659,6299,-4,4,0,1
15260,1694,2660,6300,-4,5,0,1
15265,1685,2663,6296,-4,5,0,1
15270,1674,2662,6304,-4,4,0,1
15275,1661,2663,6310,-4,4,0,1
15280,1647,2666,6308,-4,3,0,1
15285,1637,2670,6307,-4,3,0,1
15290,1627,2673,6300,-4,3,0,1
15295,1617,2675,6300,-4,2,0,1
15300,1610,2677,6302,-4,3,0,1
15305,1606,2678,6305,-4,3,0,1
15310,1604,2681,6308,-4,3,0,1
15315,1604,2679,6308,-4,3,0,1
15320,1602,2678,6312,-4,3,0,1
15325,1599,2673,6318,-4,3,0,1
15330,1597,2672,6316,-4,3,0,1
15335,1593,2675,6317,-4,2,0,1
15340,1588,2678,6312,-4,2,0,1
15345,1584,2678,6305,-4,1,0,1
15350,1580,2681,6301,-4,1,0,1
15355,1578,2680,6301,-4,0,0,1
15360,1571,2677,6303,-4,-1,0,1
15365,1565,2674,6310,-4,0,0,1
15370,1564,2671,6317,-4,0,0,1
15375,1567,2673,6319,-4,1,0,1
15380,1564,2674,6320,-4,2,0,1
15385,1559,2677,6325,-4,2,0,1
15390,1559,2679,6331,-4,2,0,1
15395,1559,2682,6341,-4,2,0,1
15400,1558,2683,6347,-4,2,0,1
15405,1553,2681,6353,-4,1,0,1
15410,1547,2681,6355,-4,1,0,1
15415,1546,2680,6353,-4,0,0,1
15420,1544,2679,6347,-4,0,0,1
15425,1539,2675,6343,-4,0,0,1
15430,1534,2672,6339,-4,0,0,1
15435,1529,2669,6330,-4,0,0,1
15440,1523,2666,6327,-4,1,0,1
15445,1520,2666,6327,-4,2,0,1
15450,1520,2665,6324,-4,2,0,1
15455,1519,2666,6323,-4,2,0,1
15460,1518,2666,6325,-4,2,0,1
15465,1515,2666,6328,-4,1,0,1
15470,1507,2668,6337,-4,1,0,1
15475,1498,2668,6348,-4,0,0,1
15480,1489,2670,6354,-4,0,0,1
15485,1479,2673,6351,-4,0,0,1
15490,1475,2675,6344,-4,0,0,1
15495,1475,2675,6340,-4,0,0,1
15500,1476,2674,6336,-4,1,0,1
15505,1474,2676,6329,-4,1,0,1
15510,1469,2677,6331,-4,1,0,1
15515,1464,2678,6334,-4,1,0,1
15520,1461,2678,6329,-4,2,0,1
15525,1458,2679,6325,-4,3,0,1
15530,1452,2678,6320,-4,3,0,1
15535,1449,2678,6313,-4,3,0,1
15540,1448,2678,6314,-4,3,0,1
15545,1450,2675,6320,-4,2,0,1
15550,1449,2673,6326,-4,2,0,1
15555,1444,2674,6333,-4,2,0,1
15560,1439,2674,6339,-4,2,0,1
15565,1435,2677,6348,-4,2,0,1
15570,1431,2675,6349,-4,2,0,1
15575,1429,2672,6351,-4,2,0,1
15580,1429,2672,6347,-4,3,0,1
15585,1427,2675,6347,-4,3,0,1
15590,1420,2678,6347,-4,4,0,1
15595,1413,2676,6347,-4,4,0,1
15600,1407,2674,6350,-4,4,0,1
15605,1403,2673,6351,-4,4,0,1
15610,1400,2673,6355,-4,3,0,1
15615,1398,2674,6358,-4,2,0,1
15620,1395,2673,6355,-4,2,0,1
15625,1388,2671,6348,-4,1,0,1
15630,1385,2670,6341,-4,1,0,1
15636,1381,2670,6337,-4,0,0,1
15641,1377,2670,6333,-4,1,0,1
15646,1371,2668,6337,-4,1,0,1
15650,1367,2668,6343,-4,1,0,1
15655,1362,2672,6348,-4,0,0,1
15661,1359,2673,6360,-4,0,0,1
15666,1356,2677,6372,-4,0,0,1
15671,1352,2681,6377,-4,-1,0,1
15676,1350,2681,6374,-4,-1,0,1
15681,1351,2681,6370,-4,0,0,1
15686,1353,2680,6365,-4,0,0,1
15691,1352,2679,6364,-4,0,0,1
15696,1348,2678,6358,-4,0,0,1
15701,1342,2677,6351,-4,0,0,1
15706,1339,2675,6346,-4,0,0,1
15711,1336,2677,6343,-4,0,0,1
15716,1334,2678,6341,-4,0,0,1
15721,1336,2677,6346,-4,0,0,1
15726,1339,2673,6354,-4,0,0,1
15731,1340,2672,6360,-4,0,0,1
15736,1338,2672,6362,-4,0,0,1
15741,1333,2672,6366,-4,0,0,1
15746,1329,2676,6369,-4,0,0,1
15751,1326,2677,6368,-4,0,0,1
15756,1323,2676,6368,-4,0,0,1
15761,1318,2676,6371,-4,0,0,1
15766,1319,2672,6371,-4,-1,0,1
15771,1318,2671,6364,-4,-1,0,1
15776,1316,2672,6358,-4,-1,0,1
15781,1312,2674,6350,-4,0,0,1
15786,1309,2676,6345,-4,0,0,1
15791,1309,2675,6343,-4,1,0,1
15796,1309,2673,6344,-4,1,0,1
15801,1312,2673,6341,-4,1,0,1
15806,1307,2671,6344,-4,1,0,1
15811,1303,2670,6351,-4,0,0,1
15816,1299,2670,6360,-4,0,0,1
15821,1295,2668,6361,-4,-1,0,1
15826,1293,2668,6364,-4,-1,0,1
15831,1291,2668,6363,-4,-1,0,1
15836,1286,2667,6365,-4,-1,0,1
15841,1285,2667,6364,-4,-1,0,1
15846,1285,2667,6363,-4,-1,0,1
15851,1284,2670,6356,-4,0,0,1
15856,1283,2672,6351,-4,0,0,1
15861,1283,2672,6349,-4,0,0,1
15866,1279,2672,6353,-4,0,0,1
15871,1277,2669,6354,-4,-1,0,1
15876,1275,2668,6357,-4,-1,0,1
15881,1272,2665,6365,-4,-1,0,1
15886,1268,2665,6367,-4,0,0,1
15891,1267,2665,6368,-4,0,0,1
15896,1266,2667,6369,-4,-1,0,1
15901,1265,2668,6365,-4,-1,0,1
15906,1267,2670,6357,-4,-2,0,1
15911,1268,2670,6357,-4,-2,0,1
15916,1269,2672,6358,-4,-2,0,1
15921,1272,2672,6359,-4,-3,0,1
15926,1269,2674,6360,-4,-2,0,1
15931,1263,2677,6356,-4,-2,0,1
15936,1262,2678,6356,-4,-2,0,1
15941,1268,2678,6358,-4,-2,0,1
15946,1273,2677,6358,-4,-2,0,1
15951,1275,2675,6357,-4,-2,0,1
15956,1273,2675,6361,-4,-2,0,1
15961,1273,2677,6363,-4,-1,0,1
15966,1270,2676,6362,-4,-1,0,1
15971,1264,2674,6364,-4,-1,0,1
15976,1259,2672,6364,-4,-1,0,1
15981,1256,2670,6365,-4,0,0,1
15986,1251,2673,6364,-4,0,0,1
15991,1246,2676,6362,-4,0,0,1
15996,1244,2678,6364,-4,1,0,1
16001,1245,2677,6368,-4,0,0,1
16006,1247,2677,6374,-4,-1,0,1
16011,1249,2679,6375,-4,-2,0,1
16016,1248,2679,6371,-4,-3,0,1
16021,1247,2678,6369,-4,-3,0,1
16026,1248,2680,6370,-4,-3,0,1
16031,1250,2677,6369,-4,-2,0,1
16036,1249,2675,6367,-4,-2,0,1
16041,1244,2677,6360,-4,-1,0,1
16046,1244,2678,6357,-4,0,0,1
16051,1244,2678,6357,-4,0,0,1
16056,1248,2677,6363,-4,0,0,1
16061,1245,2674,6374,-4,0,0,1
16066,1243,2671,6382,-4,0,0,1
16071,1245,2670,6385,-4,-1,0,1
16076,1245,2669,6383,-4,-2,0,1
16081,1242,2668,6380,-4,-2,0,1
16086,1237,2667,6382,-4,-2,0,1
16091,1235,2669,6381,-4,-2,0,1
16096,1233,2668,6382,-4,-2,0,1
16101,1233,2668,6383,-4,-2,0,1
16106,1236,2669,6386,-4,-2,0,1
16111,1239,2668,6384,-4,-2,0,1
16116,1239,2669,6386,-4,-2,0,1
16121,1235,2671,6385,-4,-2,0,1
16126,1228,2674,6383,-4,-2,0,1
16131,1222,2676,6382,-4,-1,0,1
16136,1225,2676,6380,-4,-1,0,1
16141,1227,2677,6373,-4,-1,0,1
16146,1228,2678,6365,-4,-1,0,1
16151,1228,2675,6360,-4,-1,0,1
16156,1225,2674,6357,-4,-1,0,1
16161,1219,2675,6356,-4,-1,0,1
16166,1216,2674,6357,-4,-1,0,1
16171,1217,2673,6356,-4,-1,0,1
16176,1220,2672,6359,-4,-2,0,1
16181,1223,2672,6369,-4,-2,0,1
16186,1219,2672,6380,-4,-2,0,1
16191,1216,2672,6387,-4,-2,0,1
16196,1220,2675,6384,-4,-1,0,1
16201,1217,2682,6382,-4,-1,0,1
16206,1214,2687,6378,-4,0,0,1
16211,1212,2686,6375,-4,0,0,1
16217,1214,2685,6369,-4,0,0,1
16222,1213,2681,6364,-4,0,0,1
16226,1211,2679,6361,-4,-1,0,1
16232,1207,2676,6359,-4,-1,0,1
16236,1199,2676,6361,-4,-1,0,1
16242,1193,2678,6361,-4,-1,0,1
16247,1186,2679,6364,-4,-1,0,1
16252,1182,2679,6365,-4,-1,0,1
16257,1183,2683,6368,-4,0,0,1
16262,1187,2686,6374,-4,0,0,1
16267,1191,2686,6374,-4,1,0,1
16272,1193,2685,6376,-4,1,0,1
16277,1193,2685,6377,-4,1,0,1
16282,1189,2682,6378,-4,1,0,1
16287,1182,2680,6386,-4,1,0,1
16292,1175,2681,6385,-4,0,0,1
16297,1170,2679,6380,-4,0,0,1
16302,1170,2679,6383,-4,0,1,1
16307,1174,2676,6384,-4,0,0,1
16312,1178,2674,6384,-4,0,0,1
16317,1182,2675,6377,-4,-1,0,1
16322,1179,2674,6366,-4,-1,0,1
16327,1174,2674,6359,-4,-1,0,1
16332,1169,2673,6360,-4,-2,0,1
16337,1167,2675,6368,-4,-2,0,1
16342,1167,2677,6371,-4,-3,0,1
16347,1166,2680,6379,-4,-3,0,1
16352,1164,2680,6388,-4,-4,0,1
16357,1160,2679,6388,-4,-4,0,1
16362,1157,2676,6385,-4,-3,0,1
16367,1159,2672,6380,-4,-3,0,1
16372,1163,2670,6374,-4,-2,0,1
16377,1168,2667,6372,-4,-2,0,1
16382,1167,2666,6372,-4,-1,0,1
16387,1163,2666,6368,-4,-1,0,1
16392,1159,2666,6366,-4,0,0,1
16397,1157,2665,6362,-4,0,0,1
16402,1156,2666,6367,-4,0,0,1
16407,1159,2667,6367,-4,0,0,1
16412,1157,2668,6363,-4,-1,0,1
16417,1158,2673,6366,-4,-1,0,1
16422,1160,2675,6372,-4,-1,0,1
16427,1160,2679,6379,-4,-1,0,1
16432,1159,2679,6389,-4,-1,0,1
16437,1160,2677,6396,-4,-1,0,1
16442,1160,2677,6403,-4,-1,0,1
16447,1158,2674,6412,-4,-1,0,1
16452,1156,2670,6414,-4,-1,0,1
16457,1153,2668,6413,-4,-1,0,1
16462,1155,2666,6406,-4,-2,0,1
16467,1155,2663,6401,-4,-2,0,1
16472,1152,2662,6398,-4,-2,0,1
16477,1147,2663,6397,-4,-2,0,1
16482,1144,2663,6393,-4,-1,0,1
16487,1146,2667,6382,-4,0,0,1
16492,1147,2670,6373,-4,0,0,1
16497,1147,2672,6366,-4,0,0,1
16502,1147,2675,6367,-4,-1,0,1
16507,1147,2677,6372,-4,-1,0,1
16512,1147,2679,6375,-4,-2,0,1
16517,1147,2679,6379,-4,-2,0,1
16522,1147,2680,6382,-4,-2,0,1
16527,1147,2678,6387,-4,-2,0,1
16532,1145,2677,6387,-4,-2,0,1
16537,1143,2675,6386,-4,-1,0,1
16542,1143,2675,6386,-4,-1,0,1
16547,1140,2672,6381,-4,-2,0,1
16552,1135,2669,6375,-4,-2,0,1
16557,1134,2668,6369,-4,-2,0,1
16562,1130,2665,6369,-4,-2,0,1
16567,1122,2666,6365,-4,-2,0,1
16572,1117,2666,6362,-4,-2,0,1
16577,1121,2667,6362,-4,-2,0,1
16582,1132,2669,6371,-4,-2,0,1
16587,1139,2669,6378,-4,-2,0,1
16592,1139,2667,6382,-4,-2,0,1
16597,1143,2666,6389,-4,-2,0,1
16602,1146,2667,6396,-4,-2,0,1
16607,1148,2666,6397,-4,-2,0,1
16612,1146,2666,6394,-4,-2,0,1
16617,1143,2665,6394,-4,-2,0,1
16622,1142,2663,6391,-4,-1,0,1
16627,1135,2660,6385,-4,-1,0,1
16632,1127,2658,6382,-4,-1,0,1
16637,1119,2656,6377,-4,-1,0,1
16642,1115,2654,6372,-4,-2,0,1
16647,1117,2656,6372,-4,-2,0,1
16652,1117,2656,6378,-4,-3,0,1
16657,1116,2656,6380,-4,-3,0,1
16662,1119,2657,6386,-4,-2,0,1
16667,1119,2661,6387,-4,-1,0,1
16672,1123,2665,6389,-4,0,0,1
16677,1128,2669,6390,-4,0,0,1
16682,1134,2671,6393,-4,0,0,1
16687,1138,2674,6395,-4,-1,0,1
16692,1134,2675,6402,-4,-1,0,1
16697,1126,2671,6402,-4,-2,0,1
16702,1118,2670,6398,-4,-1,0,1
16707,1112,2670,6387,-4,-1,0,1
16712,1107,2670,6375,-4,-1,0,1
16717,1105,2669,6367,-4,0,0,1
16722,1103,2671,6369,-4,0,0,1
16727,1108,2672,6370,-4,0,0,1
16732,1118,2674,6374,-4,-1,0,1
16737,1125,2673,6378,-4,-1,0,1
16742,1131,2675,6384,-4,-2,0,1
16747,1129,2672,6389,-4,-2,0,1
16752,1125,2671,6393,-4,-2,0,1
16757,1121,2668,6391,-4,-1,0,1
16762,1120,2667,6391,-4,-1,0,1
16767,1120,2667,6388,-4,-1,0,1
16772,1121,2667,6387,-4,-2,0,1
16777,1116,2665,6391,-4,-2,0,1
16783,1109,2665,6393,-4,-1,0,1
16788,1102,2665,6388,-4,-1,0,1
16793,1095,2667,6385,-4,0,0,1
16797,1094,2668,6381,-4,0,0,1
16802,1093,2667,6374,-4,1,0,1
16807,1091,2666,6375,-4,1,0,1
16813,1091,2665,6377,-4,1,0,1
16817,1093,2664,6386,-4,0,0,1
16822,1094,2659,6395,-4,0,0,1
16828,1086,2655,6404,-4,0,0,1
16832,1078,2654,6405,-4,0,0,1
16838,1073,2653,6405,-4,0,0,1
16843,1073,2654,6403,-4,1,0,1
16848,1073,2656,6399,-4,1,0,1
16853,1072,2661,6393,-4,1,0,1
16858,1071,2664,6386,-4,1,0,1
16863,1069,2667,6379,-4,1,0,1
16868,1068,2668,6376,-4,1,0,1
16873,1066,2667,6374,-4,0,0,1
16878,1064,2664,6371,-4,0,0,1
16883,1063,2667,6369,-4,-1,0,1
16888,1056,2670,6369,-4,-1,0,1
16893,1052,2669,6377,-4,-1,0,1
16898,1050,2671,6384,-4,-1,0,1
16903,1048,2672,6388,-4,-1,0,1
16908,1049,2675,6393,-4,0,0,1
16913,1053,2675,6401,-4,0,0,1
16918,1053,2674,6408,-4,0,0,1
16923,1050,2674,6410,-4,0,0,1
16928,1045,2673,6409,-4,-1,0,1
16933,1039,2673,6406,-4,-1,0,1
16938,1035,2671,6397,-4,-1,0,1
16943,1036,2669,6390,-4,-2,0,1
16948,1039,2667,6380,-4,-2,0,1
16953,1043,2666,6370,-4,-2,0,1
16958,1041,2663,6364,-4,-2,0,1
16963,1035,2660,6364,-4,-1,0,1
16968,1028,2660,6371,-4,-1,0,1
16973,1025,2663,6376,-4,-1,0,1
16978,1027,2668,6387,-4,-1,0,1
16983,1031,2669,6398,-4,-1,0,1
16988,1039,2670,6398,-4,-1,0,1
16993,1044,2668,6396,-4,-1,0,1
16998,1043,2666,6397,-4,-1,0,1
17003,1034,2669,6400,-4,-1,0,1
17008,1025,2668,6400,-4,-1,0,1
17013,1021,2667,6400,-4,-1,0,1
17018,1022,2669,6401,-4,-1,0,1
17023,1023,2668,6399,-4,-2,0,1
17028,1022,2669,6395,-4,-2,0,1
17033,1018,2667,6387,-4,-2,0,1
17038,1013,2673,6384,-4,-1,0,1
17043,1010,2679,6383,-4,0,0,1
17048,1009,2680,6383,-4,0,0,1
17053,1010,2681,6389,-4,0,0,1
17058,1012,2677,6393,-4,-1,0,1
17063,1013,2672,6401,-4,-1,0,1
17068,1015,2668,6404,-4,-1,0,1
17073,1015,2665,6405,-4,0,0,1
17078,1017,2666,6403,-4,0,0,1
17083,1020,2668,6399,-4,1,0,1
17088,1018,2670,6396,-4,1,0,1
17093,1018,2671,6400,-4,2,0,1
17098,1017,2670,6402,-4,2,0,1
17103,1012,2669,6402,-4,2,0,1
17108,1003,2667,6401,-4,1,0,1
17113,992,2665,6402,-4,1,0,1
17118,988,2665,6402,-4,2,0,1
17123,991,2664,6400,-4,2,0,1
17128,988,2665,6400,-4,2,0,1
17133,987,2666,6404,-4,2,0,1
17138,984,2664,6403,-4,2,0,1
17143,979,2661,6405,-4,2,0,1
17148,972,2664,6408,-4,3,0,1
17153,970,2664,6401,-4,3,0,1
17158,972,2667,6399,-4,4,0,1
17163,973,2668,6396,-4,4,0,1
17168,971,2669,6396,-4,3,0,1
17173,967,2669,6395,-4,3,0,1
17178,960,2670,6395,-4,2,0,1
17183,956,2670,6395,-4,1,0,1
17188,945,2671,6399,-4,0,0,1
17193,939,2670,6402,-4,0,0,1
17198,934,2668,6400,-4,1,0,1
17203,934,2667,6394,-4,1,0,1
17208,933,2670,6390,-4,2,0,1
17213,931,2673,6386,-4,3,0,1
17218,927,2672,6380,-4,3,0,1
17223,920,2670,6390,-4,3,0,1
17228,912,2670,6395,-4,3,0,1
17233,900,2671,6404,-4,3,0,1
17238,893,2672,6409,-4,2,0,1
17243,894,2673,6410,-4,2,0,1
17248,901,2672,6409,-4,0,0,1
17253,901,2667,6413,-4,-1,0,1
17258,894,2665,6411,-4,-2,0,1
17263,886,2661,6409,-4,-2,0,1
17268,883,2660,6407,-4,-1,0,1
17273,881,2659,6403,-4,0,0,1
17278,874,2658,6400,-4,0,0,1
17283,871,2656,6400,-4,1,0,1
17288,867,2655,6402,-4,2,0,1
17293,866,2656,6406,-4,3,0,1
17298,865,2660,6411,-4,4,0,1
17303,858,2665,6415,-4,4,0,1
17308,850,2668,6417,-4,4,0,1
17313,846,2668,6415,-4,4,0,1
17318,847,2667,6408,-4,4,0,1
17323,851,2668,6408,-4,3,0,1
17328,851,2668,6412,-4,2,0,1
17333,849,2668,6415,-4,1,0,1
17338,841,2666,6422,-4,1,0,1
17344,830,2665,6432,-4,1,0,1
17348,823,2664,6437,-4,2,0,1
17354,818,2665,6430,-4,3,0,1
17358,807,2662,6424,-4,3,0,1
17363,802,2663,6422,-4,4,0,1
17368,801,2665,6424,-4,4,0,1
17373,800,2663,6420,-4,4,0,1
17378,796,2661,6419,-4,3,0,1
17384,789,2661,6420,-4,2,0,1
17389,783,2660,6416,-4,1,0,1
17394,775,2660,6413,-4,1,0,1
17399,769,2663,6405,-4,0,0,1
17404,764,2666,6399,-4,0,0,1
17409,764,2671,6398,-4,0,0,1
17414,766,2671,6400,-4,1,0,1
17419,770,2672,6399,-4,1,0,1
17424,770,2671,6399,-4,1,0,1
17429,763,2668,6405,-4,1,0,1
17434,758,2665,6407,-4,1,0,1
17439,750,2661,6409,-4,1,0,1
17444,740,2658,6412,-4,1,0,1
17449,738,2657,6417,-4,2,0,1
17454,740,2663,6420,-4,2,0,1
17459,741,2668,6423,-4,3,0,1
17464,738,2671,6429,-4,3,0,1
17469,735,2669,6433,-4,2,0,1
17474,727,2670,6440,-4,2,0,1
17479,710,2671,6447,-4,2,0,1
17484,696,2672,6444,-4,2,0,1
17489,690,2674,6441,-4,3,0,1
17494,694,2675,6429,-4,4,0,1
17499,700,2671,6416,-4,5,0,1
17504,703,2668,6407,-4,6,0,1
17509,702,2665,6409,-4,6,0,1
17514,692,2663,6411,-4,6,0,1
17519,678,2665,6417,-4,6,0,1
17524,667,2666,6421,-4,6,0,1
17529,662,2667,6426,-4,6,0,1
17534,662,2666,6430,-4,5,0,1
17539,663,2668,6429,-4,4,0,1
17544,660,2671,6425,-4,3,0,1
17549,648,2674,6417,-4,1,0,1
17554,642,2674,6413,-4,0,0,1
17559,635,2672,6414,-4,-1,0,1
17564,625,2671,6418,-4,-1,0,1
17569,616,2668,6422,-4,-1,0,1
17574,606,2666,6421,-4,0,0,1
17579,601,2665,6415,-4,2,0,1
17584,604,2666,6408,-4,3,0,1
17589,608,2668,6405,-4,4,0,1
17594,608,2671,6407,-4,4,0,1
17599,608,2671,6414,-4,3,0,1
17604,602,2672,6420,-4,2,0,1
17609,593,2671,6428,-4,1,0,1
17614,588,2666,6436,-4,0,0,1
17619,585,2664,6444,-4,0,0,1
17624,587,2664,6448,-4,0,0,1
17629,589,2664,6447,-4,-1,0,1
17634,587,2665,6440,-4,-1,0,1
17639,580,2666,6435,-4,-1,0,1
17644,567,2666,6435,-4,0,0,1
17649,559,2666,6431,-4,1,0,1
17654,563,2668,6423,-4,2,0,1
17659,568,2669,6419,-4,3,0,1
17664,572,2670,6420,-4,2,0,1
17669,574,2673,6415,-4,2,0,1
17674,573,2676,6416,-4,1,0,1
17679,563,2676,6421,-4,1,0,1
17684,550,2673,6427,-4,0,0,1
17689,542,2670,6433,-4,0,0,1
17694,540,2667,6437,-4,0,0,1
17699,543,2670,6433,-4,-1,0,1
17704,542,2674,6423,-4,-1,0,1
17709,539,2673,6420,-4,-2,0,1
17714,534,2674,6423,-4,-2,0,1
17719,531,2673,6429,-4,-3,0,1
17724,519,2671,6438,-4,-3,0,1
17729,507,2670,6443,-4,-2,0,1
17734,507,2670,6432,-4,-1,0,1
17739,511,2669,6419,-4,0,0,1
17744,516,2669,6408,-4,1,0,1
17749,520,2669,6400,-4,2,0,1
17754,520,2668,6401,-4,2,0,1
17759,520,2665,6408,-4,2,0,1
17764,517,2661,6416,-4,2,0,1
17769,515,2661,6425,-4,1,0,1
17774,517,2659,6432,-4,0,0,1
17779,516,2657,6435,-4,-1,0,1
17784,513,2654,6440,-4,-1,0,1
17789,510,2650,6440,-4,-1,0,1
17794,509,2651,6436,-4,-1,0,1
17799,504,2654,6434,-4,-1,0,1
17804,498,2655,6430,-4,-1,0,1
17809,494,2657,6423,-4,-1,0,1
17814,496,2657,6417,-4,-1,0,1
17819,494,2656,6417,-4,0,0,1
17824,486,2658,6413,-4,0,0,1
17829,485,2661,6414,-4,1,0,1
17834,487,2663,6416,-4,1,0,1
17839,489,2665,6418,-4,1,0,1
17844,493,2665,6420,-4,1,0,1
17849,492,2664,6425,-4,0,0,1
17854,486,2666,6436,-4,0,0,1
17859,481,2668,6442,-4,0,0,1
17864,482,2672,6441,-4,1,0,1
17869,479,2671,6433,-4,1,0,1
17874,477,2670,6430,-4,1,0,1
17879,477,2667,6428,-4,1,0,1
17884,474,2665,6423,-4,0,0,1
17889,468,2663,6424,-4,0,0,1
17894,457,2662,6428,-4,-1,0,1
17899,447,2663,6425,-4,-1,0,1
17904,436,2661,6429,-4,-1,0,1
17909,426,2660,6435,-4,-1,0,1
17914,425,2661,6435,-4,0,0,1
17919,429,2662,6427,-4,2,0,1
17925,431,2666,6417,-4,3,0,1
17929,436,2665,6410,-4,4,0,1
17934,438,2665,6407,-4,4,0,1
17939,433,2664,6407,-4,4,0,1
17944,426,2660,6414,-4,4,0,1
17949,421,2659,6418,-4,4,0,1
17955,412,2656,6422,-4,4,0,1
17959,402,2654,6428,-4,4,0,1
17965,399,2653,6428,-4,4,0,1
17969,397,2655,6424,-4,5,0,1
17974,393,2658,6422,-4,5,0,1
17980,384,2662,6424,-4,6,0,1
17985,372,2665,6425,-4,7,0,1
17990,368,2664,6426,-4,8,0,1
17995,364,2663,6419,-4,9,0,1
18000,361,2659,6420,-4,9,0,1
18005,360,2658,6417,-4,9,0,1
18010,359,2658,6414,-4,9,0,1
18015,359,2658,6419,-4,8,0,1
18020,357,2660,6420,-4,7,0,1
18025,346,2662,6416,-4,5,0,1
18030,331,2660,6418,-4,5,0,1
18035,316,2660,6423,-4,4,0,1
18040,306,2662,6427,-4,4,0,1
18045,300,2666,6427,-4,3,0,1
18050,298,2663,6426,-4,3,0,1
18055,290,2658,6429,-4,2,0,1
18060,275,2657,6439,-4,3,0,1
18065,260,2660,6451,-4,4,0,1
18070,249,2661,6454,-4,5,0,1
18075,247,2664,6451,-4,6,0,1
18080,250,2667,6450,-4,7,0,1
18085,245,2666,6450,-4,6,0,1
18090,241,2664,6453,-4,5,0,1
18095,236,2662,6450,-4,4,0,1
18100,228,2662,6448,-4,4,0,1
18105,218,2661,6444,-4,3,0,1
18110,207,2661,6441,-4,2,0,1
18115,199,2658,6435,-4,1,0,1
18120,199,2658,6434,-4,0,0,1
18125,197,2658,6432,-4,0,0,1
18130,199,2655,6433,-4,-1,0,1
18135,196,2652,6434,-4,0,0,1
18140,190,2649,6440,-4,0,0,1
18145,186,2652,6445,-4,1,0,1
18150,187,2657,6448,-4,1,0,1
18155,187,2661,6443,-4,2,0,1
18160,183,2661,6443,-4,2,0,1
18165,178,2662,6442,-4,3,0,1
18170,176,2666,6440,-4,4,0,1
18175,167,2664,6439,-4,4,0,1
18180,150,2661,6437,-4,3,0,1
18185,137,2658,6436,-4,3,0,1
18190,129,2655,6435,-4,3,0,1
18195,116,2656,6433,-4,3,0,1
18200,107,2656,6429,-4,4,0,1
18205,98,2655,6428,-4,5,0,1
18210,93,2658,6431,-4,6,0,1
18215,90,2663,6431,-4,8,0,1
18220,88,2666,6428,-4,10,0,1
18225,89,2668,6426,-4,11,0,1
18230,85,2667,6426,-4,11,0,1
18235,80,2660,6424,-4,12,0,1
18240,73,2656,6423,-4,12,0,1
18245,62,2656,6422,-4,11,0,1
18250,43,2668,6421,-4,11,0,1
18255,26,2670,6414,-4,9,0,1
18260,12,2665,6416,-4,9,0,1
18265,4,2661,6424,-4,8,0,1
18270,6,2660,6431,-4,8,0,1
18275,3,2660,6436,-4,7,0,1
18280,-10,2657,6434,-4,7,0,1
18285,-29,2653,6430,-4,7,0,1
18290,-37,2650,6425,-4,8,0,1
18295,-38,2649,6422,-4,9,0,1
18300,-45,2648,6422,-4,9,0,1
18305,-67,2648,6425,-4,9,0,1
18310,-90,2647,6426,-4,10,0,1
18315,-104,2644,6428,-4,12,0,1
18320,-115,2644,6423,-4,14,0,1
18325,-128,2648,6422,-4,17,0,1
18330,-140,2649,6425,-4,19,0,1
18335,-147,2651,6421,-4,21,0,1
18340,-155,2653,6416,-4,22,0,1
18345,-166,2655,6418,-4,23,0,1
18350,-180,2656,6423,-4,23,0,1
18355,-191,2659,6418,-4,21,0,1
18360,-212,2663,6413,-4,20,0,1
18365,-231,2664,6410,-4,17,0,1
18370,-246,2667,6403,-4,15,0,1
18375,-263,2667,6399,-4,13,0,1
18380,-279,2667,6403,-4,12,0,1
18385,-291,2665,6405,-4,11,0,1
18390,-301,2657,6410,-4,10,0,1
18395,-315,2648,6416,-4,9,0,1
18400,-330,2647,6422,-4,9,0,1
18405,-343,2644,6419,-4,8,0,1
18410,-353,2641,6420,-4,8,0,1
18415,-368,2643,6416,-4,8,0,1
18420,-385,2640,6410,-4,7,0,1
18425,-401,2635,6411,-4,6,0,1
18430,-411,2634,6410,-4,7,0,1
18435,-416,2637,6405,-4,7,0,1
18440,-422,2638,6393,-4,7,0,1
18445,-428,2641,6379,-4,6,0,1
18450,-440,2644,6378,-4,6,0,1
18455,-457,2643,6386,-4,6,0,1
18460,-476,2644,6395,-4,7,0,1
18465,-502,2645,6406,-4,8,0,1
18470,-527,2650,6411,-4,9,0,1
18475,-547,2656,6415,-4,11,0,1
18480,-559,2658,6409,-4,12,0,1
18485,-565,2661,6403,-4,13,0,1
18490,-574,2661,6395,-4,14,0,1
18495,-586,2657,6390,-4,14,0,1
18500,-594,2653,6388,-4,15,0,1
18506,-599,2652,6387,-4,15,0,1
18510,-604,2650,6387,-4,15,0,1
18516,-615,2647,6392,-4,15,0,1
18520,-628,2649,6389,-4,14,0,1
18525,-635,2649,6384,-4,14,0,1
18530,-635,2657,6371,-4,13,0,1
18535,-641,2657,6364,-4,11,0,1
18540,-653,2657,6361,-4,9,0,1
18545,-663,2654,6369,-4,8,0,1
18550,-673,2654,6374,-4,7,0,1
18556,-679,2653,6377,-4,6,0,1
18561,-692,2651,6379,-4,5,0,1
18566,-712,2647,6385,-4,3,0,1
18571,-730,2644,6391,-4,2,0,1
18576,-744,2637,6388,-4,2,0,1
18581,-759,2636,6387,-4,2,0,1
18586,-779,2635,6385,-4,3,0,1
18591,-790,2636,6379,-4,4,0,1
18596,-796,2638,6369,-4,5,0,1
18601,-802,2636,6357,-4,5,0,1
18606,-818,2635,6353,-4,6,0,1
18611,-844,2636,6354,-4,7,0,1
18616,-863,2638,6352,-4,10,0,1
18621,-872,2641,6344,-4,13,0,1
18626,-879,2647,6336,-4,16,0,1
18631,-886,2651,6328,-4,19,0,1
18636,-898,2646,6319,-4,20,0,1
18641,-908,2638,6316,-4,22,0,1
18646,-916,2632,6318,-4,23,0,1
18651,-926,2632,6323,-4,24,0,1
18656,-947,2628,6326,-4,25,0,1
18661,-968,2626,6327,-4,26,0,1
18666,-979,2629,6327,-5,27,0,1
18671,-997,2635,6328,-5,28,0,1
18676,-1015,2635,6327,-5,28,0,1
18681,-1028,2637,6323,-5,27,0,1
18686,-1037,2640,6319,-5,25,0,1
18691,-1054,2641,6318,-4,22,0,1
18696,-1079,2641,6311,-4,20,0,1
18701,-1096,2644,6304,-4,17,0,1
18706,-1105,2648,6298,-4,14,0,1
18711,-1112,2651,6290,-4,11,0,1
18716,-1131,2647,6287,-4,8,0,1
18721,-1183,2641,6299,-4,5,0,1
18726,-1232,2637,6316,-4,7,0,1
18731,-1260,2642,6316,-4,11,0,1
18736,-1273,2653,6316,-4,15,1,1
18741,-1277,2660,6307,-4,17,1,1
18746,-1276,2658,6291,-4,18,1,1
18751,-1277,2649,6280,-4,17,0,1
18756,-1288,2643,6267,-4,15,0,1
18761,-1312,2640,6257,-4,14,0,1
18766,-1332,2638,6246,-4,12,0,1
18771,-1342,2638,6242,-4,11,0,1
18776,-1358,2639,6246,-4,9,0,1
18781,-1380,2638,6243,-4,8,0,1
18786,-1400,2637,6237,-4,9,0,1
18791,-1423,2638,6249,-4,10,0,1
18796,-1448,2640,6258,-4,13,0,1
18801,-1461,2643,6258,-4,17,0,1
18806,-1468,2643,6254,-4,19,0,1
18811,-1484,2641,6244,-4,20,0,1
18816,-1506,2636,6234,-4,19,0,1
18821,-1522,2630,6231,-4,19,0,1
18826,-1536,2630,6227,-4,19,0,1
18831,-1552,2627,6224,-4,18,0,1
18836,-1558,2624,6222,-4,18,0,1
18841,-1563,2622,6223,-4,16,0,1
18846,-1569,2624,6218,-4,15,0,1
18851,-1570,2632,6210,-4,13,0,1
18856,-1574,2638,6198,-4,10,0,1
18861,-1578,2646,6186,-4,6,0,1
18866,-1581,2653,6175,-4,1,0,1
18871,-1587,2653,6168,-4,-3,0,1
18876,-1592,2649,6171,-4,-7,0,1
18881,-1603,2647,6177,-4,-11,0,1
18886,-1634,2644,6188,-4,-14,0,1
18891,-1684,2635,6203,-4,-13,0,1
18896,-1718,2634,6212,-4,-8,0,1
18901,-1720,2642,6217,-4,-1,0,1
18906,-1705,2654,6210,-4,6,0,1
18911,-1690,2658,6195,-4,9,0,1
18916,-1688,2649,6182,-4,10,0,1
18921,-1697,2640,6175,-4,10,0,1
18926,-1707,2638,6181,-4,11,0,1
18931,-1722,2639,6177,-4,12,0,1
18936,-1741,2641,6169,-4,13,0,1
18941,-1761,2640,6159,-4,12,0,1
18946,-1773,2636,6153,-4,12,0,1
18951,-1774,2634,6147,-4,12,0,1
18956,-1770,2634,6143,-4,13,0,1
18961,-1773,2633,6140,-4,13,0,1
18966,-1777,2633,6137,-4,12,0,1
18971,-1783,2630,6134,-4,12,0,1
18976,-1796,2626,6134,-4,11,0,1
18981,-1810,2627,6133,-4,10,0,1
18986,-1814,2635,6131,-4,9,0,1
18991,-1807,2641,6132,-4,6,0,1
18996,-1796,2642,6129,-4,3,0,1
19001,-1798,2635,6121,-4,-1,0,1
19006,-1820,2629,6123,-4,-4,0,1
19011,-1860,2622,6128,-4,-5,0,1
19016,-1895,2623,6135,-4,-2,0,1
19021,-1913,2628,6140,-4,3,0,1
19026,-1918,2631,6139,-4,7,0,1
19031,-1925,2630,6132,-4,11,0,1
19036,-1926,2627,6124,-4,14,0,1
19041,-1921,2627,6117,-4,15,0,1
19046,-1929,2626,6107,-4,16,0,1
19051,-1950,2625,6093,-4,16,0,1
19056,-1974,2628,6081,-4,16,0,1
19061,-1989,2629,6073,-4,17,0,1
19066,-1996,2632,6074,-4,17,0,1
19071,-1995,2633,6068,-4,18,0,1
19076,-2000,2632,6066,-4,18,0,1
19081,-2010,2632,6071,-4,19,0,1
19086,-2023,2629,6079,-4,20,0,1
19092,-2034,2630,6082,-4,20,0,1
19097,-2043,2628,6076,-4,20,0,1
19102,-2051,2629,6069,-4,19,0,1
19107,-2060,2629,6061,-4,18,0,1
19112,-2074,2625,6058,-4,17,0,1
19116,-2089,2630,6050,-4,16,0,1
19121,-2098,2634,6040,-4,14,0,1
19126,-2121,2634,6023,-4,11,0,1
19132,-2164,2628,6019,-4,8,0,1
19136,-2203,2625,6021,-4,7,0,1
19142,-2222,2628,6022,-4,7,0,1
19147,-2236,2628,6014,-4,7,0,1
19152,-2241,2626,6011,-4,7,0,1
19157,-2234,2628,6007,-4,6,0,1
19162,-2228,2628,5997,-4,6,0,1
19167,-2238,2627,5989,-4,5,0,1
19172,-2254,2631,5988,-4,4,0,1
19177,-2274,2632,5996,-4,4,0,1
19182,-2293,2631,5994,-4,4,0,1
19187,-2316,2627,5991,-4,5,0,1
19192,-2336,2626,5993,-4,7,0,1
19197,-2336,2631,5993,-4,10,0,1
19202,-2328,2635,5993,-4,12,0,1
19207,-2332,2635,5987,-4,14,0,1
19212,-2351,2632,5979,-4,15,0,1
19217,-2362,2627,5974,-4,17,0,1
19222,-2368,2627,5964,-4,18,0,1
19227,-2375,2627,5954,-4,18,0,1
19232,-2381,2625,5939,-4,17,0,1
19237,-2373,2625,5927,-4,14,0,1
19242,-2353,2628,5916,-4,11,0,1
19247,-2336,2632,5902,-4,5,0,1
19252,-2339,2634,5894,-4,-2,0,1
19257,-2357,2633,5896,-4,-8,0,1
19262,-2374,2633,5908,-4,-14,0,1
19267,-2399,2634,5924,-4,-17,0,1
19272,-2443,2632,5942,-4,-19,0,1
19277,-2477,2628,5957,-3,-17,0,1
19282,-2478,2630,5965,-4,-14,0,1
19287,-2460,2637,5965,-4,-10,0,1
19292,-2439,2639,5951,-4,-8,0,1
19297,-2420,2639,5928,-4,-8,0,1
19302,-2404,2636,5912,-4,-8,0,1
19307,-2406,2633,5905,-4,-9,0,1
19312,-2424,2624,5912,-4,-8,0,1
19317,-2445,2617,5918,-4,-6,0,1
19322,-2456,2611,5932,-4,-3,0,1
19327,-2446,2608,5941,-4,0,0,1
19332,-2428,2611,5937,-4,3,0,1
19337,-2414,2613,5930,-4,4,0,1
19342,-2400,2613,5920,-4,4,0,1
19347,-2392,2615,5913,-4,3,0,1
19352,-2399,2623,5910,-4,2,0,1
19357,-2411,2626,5916,-4,1,0,1
19362,-2416,2626,5927,-4,0,0,1
19367,-2411,2632,5941,-4,0,0,1
19372,-2398,2635,5948,-4,-1,0,1
19377,-2394,2637,5946,-4,-3,0,1
19382,-2395,2635,5940,-4,-5,0,1
19387,-2399,2635,5932,-4,-7,0,1
19392,-2426,2630,5934,-4,-9,0,1
19397,-2451,2625,5945,-4,-9,0,1
19402,-2457,2623,5954,-4,-6,0,1
19407,-2444,2627,5953,-4,-4,0,1
19412,-2424,2628,5947,-4,-3,0,1
19417,-2405,2626,5938,-4,-3,0,1
19422,-2396,2626,5927,-4,-3,0,1
19427,-2398,2625,5927,-4,-3,0,1
19432,-2402,2626,5932,-4,-3,0,1
19437,-2407,2629,5938,-4,-3,0,1
19442,-2408,2629,5945,-4,-4,0,1
19447,-2406,2628,5957,-4,-5,0,1
19452,-2404,2626,5960,-4,-6,0,1
19457,-2416,2622,5960,-4,-7,0,1
19462,-2426,2620,5965,-4,-6,0,1
19467,-2424,2626,5969,-4,-4,0,1
19472,-2412,2630,5966,-4,-3,0,1
19477,-2398,2633,5960,-4,-3,0,1
19482,-2381,2630,5954,-4,-3,0,1
19487,-2366,2625,5953,-4,-5,0,1
19492,-2368,2618,5953,-4,-6,0,1
19497,-2378,2616,5953,-4,-7,0,1
19502,-2389,2617,5954,-4,-7,0,1
19507,-2387,2617,5957,-4,-7,0,1
19512,-2381,2617,5961,-4,-8,0,1
19517,-2373,2618,5971,-4,-8,0,1
19522,-2366,2619,5980,-4,-9,0,1
19527,-2372,2619,5988,-4,-9,0,1
19532,-2382,2620,5997,-4,-8,0,1
19537,-2381,2624,6004,-4,-7,0,1
19542,-2374,2628,6000,-4,-5,0,1
19547,-2372,2629,5992,-4,-3,0,1
19552,-2370,2624,5985,-4,-2,0,1
19557,-2358,2619,5983,-4,-1,0,1
19562,-2342,2619,5977,-4,0,0,1
19567,-2336,2620,5970,-4,0,0,1
19572,-2341,2619,5964,-4,-1,0,1
19577,-2346,2619,5961,-4,-1,0,1
19582,-2355,2619,5965,-4,-1,0,1
19587,-2361,2618,5972,-4,0,0,1
19592,-2357,2615,5975,-4,0,0,1
19597,-2349,2620,5978,-4,0,0,1
19602,-2341,2621,5978,-4,-2,0,1
19607,-2343,2622,5975,-4,-4,0,1
19612,-2350,2621,5974,-4,-5,0,1
19617,-2359,2617,5974,-4,-6,0,1
19622,-2369,2615,5970,-4,-6,0,1
19627,-2378,2615,5973,-4,-5,0,1
19632,-2373,2617,5975,-4,-3,0,1
19637,-2351,2622,5969,-4,-1,0,1
19642,-2337,2624,5959,-4,-1,0,1
19647,-2331,2626,5949,-4,-2,0,1
19652,-2335,2626,5938,-4,-2,0,1
19658,-2340,2626,5936,-4,-3,0,1
19663,-2345,2627,5935,-4,-3,0,1
19667,-2352,2628,5936,-4,-3,0,1
19673,-2355,2628,5943,-4,-3,0,1
19677,-2353,2626,5949,-4,-4,0,1
19682,-2345,2623,5953,-4,-4,0,1
19687,-2345,2621,5956,-4,-4,0,1
19692,-2344,2621,5959,-4,-4,0,1
19697,-2346,2622,5961,-4,-4,0,1
19702,-2349,2619,5962,-4,-4,0,1
19708,-2353,2617,5965,-4,-4,0,1
19713,-2354,2618,5968,-4,-3,0,1
19718,-2348,2621,5968,-4,-3,0,1
19723,-2345,2619,5967,-4,-3,0,1
19728,-2344,2620,5967,-4,-2,0,1
19733,-2338,2623,5964,-4,-1,0,1
19738,-2333,2628,5960,-4,0,0,1
19743,-2330,2632,5956,-4,0,0,1
19748,-2326,2632,5956,-4,-1,0,1
19753,-2327,2629,5962,-4,-1,0,1
19758,-2327,2626,5975,-4,-2,0,1
19763,-2331,2622,5990,-4,-3,0,1
19768,-2341,2617,5998,-4,-2,0,1
19773,-2352,2614,6006,-4,0,0,1
19778,-2353,2615,6003,-4,2,0,1
19783,-2346,2619,6000,-4,3,0,1
19788,-2330,2625,5994,-4,4,0,1
19793,-2318,2624,5984,-4,3,0,1
19798,-2307,2622,5975,-4,1,0,1
19803,-2305,2619,5967,-4,0,0,1
19808,-2310,2616,5961,-4,-2,0,1
19813,-2310,2615,5951,-4,-3,0,1
19818,-2312,2612,5947,-4,-5,0,1
19823,-2316,2611,5951,-4,-7,0,1
19828,-2317,2610,5961,-4,-8,0,1
19833,-2323,2610,5968,-4,-8,0,1
19838,-2331,2611,5976,-4,-7,0,1
19843,-2338,2610,5984,-4,-6,0,1
19848,-2335,2612,5989,-4,-5,0,1
19853,-2328,2617,5992,-4,-5,0,1
19858,-2328,2621,5989,-4,-5,0,1
19863,-2323,2620,5987,-4,-5,0,1
19868,-2320,2619,5994,-4,-6,0,1
19873,-2319,2615,5991,-4,-5,0,1
19878,-2327,2614,5987,-4,-5,0,1
19883,-2333,2617,5980,-4,-3,0,1
19888,-2331,2617,5975,-4,-2,0,1
19893,-2322,2618,5972,-4,-1,0,1
19898,-2315,2620,5970,-4,-1,0,1
19903,-2316,2617,5970,-4,-1,0,1
19908,-2314,2618,5975,-4,0,0,1
19913,-2309,2621,5976,-4,0,0,1
19918,-2302,2622,5979,-4,1,0,1
19923,-2301,2622,5980,-4,0,0,1
19928,-2299,2620,5984,-4,0,0,1
19933,-2301,2616,5985,-4,-1,0,1
19938,-2312,2615,5991,-4,-2,0,1
19943,-2319,2616,5995,-4,-2,0,1
19948,-2325,2614,6002,-4,-2,0,1
19953,-2325,2613,6004,-4,-2,0,1
19958,-2322,2614,6003,-4,-2,0,1
19963,-2318,2618,5997,-4,-2,0,1
19968,-2312,2627,5987,-4,-2,0,1
19973,-2310,2631,5984,-4,-3,0,1
19978,-2313,2630,5979,-4,-3,0,1
19983,-2313,2624,5982,-4,-3,0,1
19988,-2307,2623,5979,-4,-2,0,1
19993,-2306,2620,5977,-4,-2,0,1
19998,-2309,2617,5976,-4,-1,0,1
20003,-2316,2613,5972,-4,-1,0,1
20008,-2321,2615,5973,-4,0,0,1
20013,-2330,2616,5974,-4,0,0,1
20018,-2345,2619,5971,-4,1,0,1
20023,-2358,2621,5973,-4,1,0,1
20028,-2366,2623,5978,-4,2,0,1
20033,-2365,2626,5983,-4,3,0,1
20038,-2357,2628,5983,-4,4,0,1
20043,-2346,2630,5977,-4,4,0,1
20048,-2336,2630,5972,-4,4,0,1
20053,-2330,2632,5975,-4,4,0,1
20058,-2335,2632,5973,-4,3,0,1
20063,-2342,2629,5974,-4,3,0,1
20068,-2344,2624,5975,-4,2,0,1
20073,-2354,2620,5977,-4,2,0,1
20078,-2361,2616,5978,-4,2,0,1
20083,-2363,2616,5972,-4,2,0,1
20088,-2363,2618,5964,-4,3,0,1
20093,-2365,2621,5950,-4,3,0,1
20098,-2375,2619,5940,-4,2,0,1
20103,-2388,2621,5941,-4,2,0,1
20108,-2394,2617,5947,-4,1,0,1
20113,-2401,2615,5954,-4,1,0,1
20118,-2406,2616,5957,-4,0,0,1
20123,-2407,2616,5959,-4,0,0,1
20128,-2404,2619,5957,-4,0,0,1
20133,-2401,2620,5952,-4,0,0,1
20138,-2404,2625,5952,-4,0,0,1
20143,-2420,2623,5949,-4,1,0,1
20148,-2441,2622,5951,-4,2,0,1
20153,-2453,2623,5950,-4,3,0,1
20158,-2455,2625,5951,-4,5,1,1
20163,-2455,2625,5944,-4,6,1,1
20168,-2446,2622,5936,-4,7,0,1
20173,-2437,2620,5933,-4,7,0,1
20178,-2444,2616,5934,-4,7,0,1
20183,-2455,2614,5934,-4,8,0,1
20188,-2460,2615,5931,-4,9,0,1
20193,-2463,2617,5931,-4,10,0,1
20198,-2469,2619,5932,-4,9,0,1
20203,-2479,2620,5928,-4,8,0,1
20208,-2488,2623,5933,-4,8,0,1
20213,-2498,2625,5928,-4,8,0,1
20218,-2507,2626,5926,-4,9,1,1
20223,-2515,2627,5923,-4,9,0,1
20228,-2515,2626,5918,-4,8,0,1
20233,-2514,2625,5913,-4,7,0,1
20238,-2515,2622,5908,-4,6,0,1
20243,-2516,2623,5899,-4,4,0,1
20248,-2517,2624,5887,-4,2,0,1
20253,-2524,2624,5881,-4,0,0,1
20258,-2543,2619,5880,-4,-1,0,1
20264,-2565,2617,5884,-4,-1,0,1
20269,-2579,2617,5894,-4,0,0,1
20273,-2585,2620,5901,-4,2,0,1
20278,-2583,2623,5898,-4,4,0,1
20283,-2584,2626,5894,-4,5,0,1
20289,-2596,2624,5890,-4,5,0,1
20293,-2610,2623,5890,-4,6,0,1
20299,-2624,2622,5882,-4,7,0,1
20304,-2630,2619,5877,-4,8,0,1
20309,-2629,2619,5875,-4,9,1,1
20313,-2632,2621,5870,-4,9,1,1
20318,-2667,2648,5852,-4,10,0,1
20324,-2701,2662,5816,-4,12,0,1
20329,-2717,2659,5805,-4,13,0,1
20334,-2722,2652,5806,-4,15,0,1
20339,-2725,2647,5812,-4,16,0,1
20344,-2726,2642,5818,-4,16,0,1
20349,-2723,2633,5820,-4,16,0,1
20354,-2726,2628,5826,-4,17,0,1
20359,-2739,2626,5825,-4,17,0,1
20364,-2760,2624,5820,-4,18,0,1
20369,-2780,2629,5805,-4,20,0,1
20374,-2801,2632,5793,-4,22,0,1
20379,-2814,2628,5791,-5,23,0,1
20384,-2825,2622,5792,-5,23,0,1
20389,-2837,2617,5799,-5,24,0,1
20394,-2847,2610,5799,-5,24,0,1
20399,-2862,2604,5786,-5,24,0,1
20404,-2883,2601,5781,-5,24,0,1
20409,-2892,2600,5775,-5,25,0,1
20414,-2898,2599,5767,-5,25,0,1
20419,-2905,2601,5751,-5,24,0,1
20424,-2909,2599,5737,-5,22,0,1
20429,-2924,2597,5727,-4,19,0,1
20434,-2951,2597,5711,-4,17,0,1
20439,-2985,2602,5695,-4,16,0,1
20444,-3012,2608,5683,-4,16,0,1
20449,-3029,2615,5671,-4,15,0,1
20454,-3047,2616,5659,-4,15,0,1
20459,-3059,2615,5648,-4,13,0,1
20464,-3067,2615,5637,-4,12,0,1
20469,-3084,2614,5625,-4,11,0,1
20474,-3116,2609,5613,-4,9,0,1
20479,-3154,2608,5613,-4,10,0,1
20484,-3182,2613,5622,-4,12,0,1
20489,-3196,2615,5626,-4,14,0,1
20494,-3208,2614,5618,-4,16,0,1
20499,-3227,2609,5603,-4,16,0,1
20504,-3239,2605,5592,-4,17,0,1
20509,-3248,2600,5580,-4,17,0,1
20514,-3270,2596,5571,-4,17,0,1
20519,-3289,2601,5563,-4,18,0,1
20524,-3300,2609,5561,-4,19,0,1
20529,-3309,2612,5554,-4,19,0,1
20534,-3324,2608,5543,-4,19,0,1
20539,-3345,2605,5533,-4,19,0,1
20544,-3359,2605,5531,-4,20,0,1
20549,-3373,2610,5535,-4,20,0,1
20554,-3373,2606,5532,-4,21,0,1
20559,-3369,2602,5528,-4,21,0,1
20564,-3363,2600,5519,-4,20,0,1
20569,-3348,2603,5507,-4,18,0,1
20574,-3344,2600,5482,-4,15,0,1
20579,-3362,2594,5459,-4,11,0,1
20584,-3407,2583,5447,-4,9,0,1
20589,-3453,2577,5453,-4,9,0,1
20594,-3484,2582,5457,-4,11,0,1
20599,-3501,2589,5452,-4,13,0,1
20604,-3516,2597,5446,-4,14,0,1
20609,-3536,2597,5434,-4,15,0,1
20614,-3556,2601,5422,-4,16,0,1
20619,-3579,2601,5411,-4,18,0,1
20624,-3604,2602,5406,-4,20,0,1
20629,-3624,2605,5404,-4,22,0,1
20634,-3637,2605,5395,-4,24,0,1
20639,-3649,2605,5384,-5,24,0,1
20644,-3661,2601,5369,-5,25,0,1
20649,-3676,2595,5344,-5,25,0,1
20654,-3701,2594,5321,-5,25,0,1
20659,-3718,2585,5298,-5,26,0,1
20664,-3726,2586,5282,-5,27,0,1
20669,-3748,2588,5266,-5,26,0,1
20674,-3773,2595,5246,-5,26,0,1
20679,-3796,2599,5234,-5,26,0,1
20684,-3814,2603,5226,-5,26,0,1
20689,-3835,2606,5220,-5,25,0,1
20694,-3866,2605,5209,-5,25,0,1
20699,-3891,2598,5201,-5,24,0,1
20704,-3897,2592,5194,-5,23,0,1
20709,-3899,2589,5189,-5,21,0,1
20714,-3907,2583,5169,-4,19,0,1
20719,-3941,2582,5148,-4,16,0,1
20724,-3996,2578,5138,-4,16,0,1
20729,-4028,2580,5134,-4,19,0,1
20734,-4044,2586,5131,-4,22,0,1
20739,-4051,2594,5121,-5,24,0,1
20744,-4050,2598,5105,-5,25,0,1
20749,-4052,2600,5088,-5,24,0,1
20754,-4065,2603,5059,-5,23,0,1
20759,-4094,2600,5028,-5,21,0,1
20764,-4132,2592,5007,-5,19,0,1
20769,-4167,2589,4992,-5,18,0,1
20774,-4194,2585,4990,-5,18,0,1
20779,-4205,2582,4998,-5,20,0,1
20784,-4208,2581,5000,-5,21,0,1
20789,-4211,2584,4990,-5,21,0,1
20794,-4217,2590,4976,-5,22,0,1
20799,-4231,2596,4957,-5,22,0,1
20804,-4252,2601,4936,-5,21,0,1
20809,-4284,2601,4920,-5,21,0,1
20814,-4307,2599,4908,-5,21,0,1
20819,-4326,2598,4896,-5,21,0,1
20824,-4339,2598,4888,-5,21,0,1
20830,-4350,2600,4883,-5,22,0,1
20834,-4363,2597,4872,-5,22,0,1
20840,-4392,2592,4852,-5,21,0,1
20845,-4426,2591,4840,-5,22,0,1
20849,-4455,2590,4824,-4,22,0,1
20854,-4484,2582,4805,-5,22,0,1
20860,-4507,2578,4788,-5,23,0,1
20864,-4517,2577,4771,-5,23,0,1
20870,-4523,2573,4756,-5,23,0,1
20875,-4532,2571,4738,-5,22,0,1
20879,-4551,2575,4722,-5,22,0,1
20885,-4577,2575,4706,-5,23,0,1
20890,-4608,2571,4691,-5,25,0,1
20894,-4633,2579,4676,-5,27,0,1
20900,-4667,2589,4666,-5,29,0,1
20905,-4675,2587,4662,-5,31,1,1
20910,-4668,2582,4649,-5,31,0,1
20915,-4666,2580,4627,-5,30,0,1
20920,-4677,2583,4605,-5,29,0,1
20925,-4700,2581,4585,-5,28,0,1
20930,-4720,2583,4565,-5,28,0,1
20935,-4737,2583,4541,-5,27,0,1
20940,-4745,2582,4523,-5,24,0,1
20945,-4752,2580,4505,-5,22,0,1
20950,-4765,2576,4491,-4,18,0,1
20955,-4780,2576,4471,-4,16,0,1
20960,-4792,2581,4450,-4,14,0,1
20965,-4800,2593,4428,-4,12,0,1
20970,-4813,2595,4406,-4,8,0,1
20975,-4845,2587,4385,-4,5,0,1
20980,-4896,2577,4381,-4,4,0,1
20985,-4947,2572,4392,-4,6,0,1
20990,-4982,2571,4401,-4,10,0,1
20995,-5002,2573,4401,-4,15,1,1
21000,-5007,2576,4399,-4,20,1,1
21005,-5001,2575,4395,-5,24,0,1
21010,-4996,2573,4378,-5,25,0,1
21015,-4998,2571,4346,-5,26,0,1
21020,-5013,2570,4309,-5,25,0,1
21025,-5028,2571,4281,-5,25,0,1
21030,-5037,2574,4255,-5,24,0,1
21035,-5041,2570,4226,-5,22,0,1
21040,-5053,2565,4190,-5,19,0,1
21045,-5070,2568,4168,-5,17,0,1
21050,-5086,2576,4159,-4,15,0,1
21055,-5107,2583,4152,-5,15,0,1
21060,-5141,2588,4142,-5,15,0,1
21065,-5169,2580,4136,-5,18,0,1
21070,-5178,2572,4138,-5,21,0,1
21075,-5188,2573,4138,-5,23,0,1
21080,-5204,2573,4133,-5,24,0,1
21085,-5219,2575,4124,-5,24,0,1
21090,-5233,2571,4115,-5,25,0,1
21095,-5255,2570,4102,-5,25,0,1
21100,-5282,2567,4082,-5,25,0,1
21105,-5307,2564,4069,-5,26,0,1
21110,-5327,2561,4062,-5,26,0,1
21115,-5342,2562,4058,-5,26,0,1
21120,-5358,2569,4040,-5,27,0,1
21125,-5374,2573,4011,-5,27,0,1
21130,-5382,2573,3976,-5,27,0,1
21135,-5386,2570,3941,-5,27,0,1
21140,-5387,2567,3913,-5,25,0,1
21145,-5381,2566,3888,-5,23,0,1
21150,-5378,2567,3860,-5,20,0,1
21155,-5384,2566,3841,-5,17,0,1
21160,-5403,2561,3827,-4,15,0,1
21165,-5425,2560,3822,-4,14,0,1
21170,-5439,2560,3814,-4,15,0,1
21175,-5456,2564,3797,-4,16,0,1
21180,-5480,2571,3779,-4,17,0,1
21185,-5509,2575,3770,-4,18,0,1
21190,-5540,2575,3767,-4,20,0,1
21195,-5561,2574,3760,-5,22,0,1
21200,-5575,2570,3747,-5,24,0,1
21205,-5582,2565,3732,-5,25,0,1
21210,-5590,2561,3713,-5,26,0,1
21215,-5607,2558,3686,-5,27,0,1
21220,-5620,2559,3656,-5,28,0,1
21225,-5630,2563,3624,-5,28,0,1
21230,-5631,2563,3594,-5,29,0,1
21235,-5638,2558,3568,-5,28,0,1
21240,-5647,2557,3542,-5,27,0,1
21245,-5650,2557,3522,-5,25,0,1
21250,-5671,2558,3495,-5,22,0,1
21255,-5746,2556,3458,-5,18,0,1
21260,-5820,2551,3407,-5,15,0,1
21265,-5851,2552,3377,-5,12,0,1
21270,-5843,2555,3384,-4,11,0,1
21275,-5823,2558,3412,-4,11,0,1
21280,-5812,2564,3427,-4,11,0,1
21285,-5815,2570,3437,-4,12,0,1
21290,-5843,2567,3439,-4,13,0,1
21295,-5890,2562,3429,-4,15,0,1
21300,-5922,2545,3396,-4,17,0,1
21305,-5945,2535,3353,-4,17,0,1
21310,-5944,2536,3315,-5,17,0,1
21315,-5917,2546,3288,-5,16,0,1
21320,-5884,2558,3270,-4,14,0,1
21325,-5866,2561,3254,-4,12,0,1
21330,-5864,2557,3240,-4,10,0,1
21335,-5869,2552,3237,-4,9,0,1
21340,-5885,2551,3227,-4,8,0,1
21345,-5907,2552,3213,-4,7,0,1
21350,-5929,2547,3199,-4,6,0,1
21355,-5945,2539,3197,-4,6,0,1
21360,-5953,2530,3197,-4,5,0,1
21365,-5965,2528,3197,-4,5,0,1
21370,-5973,2536,3198,-4,5,0,1
21375,-5973,2547,3201,-4,5,0,1
21380,-5972,2552,3198,-4,4,0,1
21385,-5985,2550,3180,-4,4,0,1
21390,-5997,2543,3162,-4,3,0,1
21395,-5997,2543,3156,-4,3,0,1
21400,-5990,2545,3145,-4,2,0,1
21405,-5983,2544,3130,-4,0,0,1
21411,-5979,2544,3117,-4,-2,0,1
21415,-5993,2542,3118,-4,-4,0,1
21420,-6016,2536,3127,-4,-4,0,1
21426,-6034,2529,3125,-4,-2,0,1
21431,-6047,2532,3120,-4,0,0,1
21436,-6048,2539,3120,-4,1,0,1
21440,-6031,2543,3121,-4,1,0,1
21446,-6006,2544,3107,-4,-1,0,1
21450,-5994,2540,3083,-4,-3,0,1
21456,-6004,2539,3064,-4,-3,0,1
21461,-6015,2542,3075,-4,-3,0,1
21466,-6026,2545,3091,-4,-2,0,1
21471,-6045,2545,3104,-4,0,0,1
21475,-6058,2543,3115,-4,1,0,1
21481,-6057,2542,3120,-4,2,0,1
21486,-6046,2537,3112,-4,2,0,1
21491,-6040,2535,3100,-4,2,0,1
21496,-6041,2535,3096,-4,3,0,1
21501,-6044,2539,3099,-4,3,0,1
21506,-6053,2540,3098,-4,2,0,1
21511,-6057,2542,3096,-4,1,0,1
21516,-6049,2546,3097,-4,0,0,1
21521,-6047,2547,3092,-4,-1,0,1
21526,-6054,2548,3081,-4,-2,0,1
21531,-6052,2553,3076,-4,-2,0,1
21536,-6044,2557,3074,-4,-3,0,1
21541,-6051,2553,3076,-4,-3,0,1
21546,-6061,2549,3087,-4,-3,0,1
21551,-6069,2550,3101,-4,-3,0,1
21556,-6079,2550,3108,-4,-2,0,1
21561,-6077,2548,3108,-4,-2,0,1
21566,-6073,2542,3098,-4,-1,0,1
21571,-6068,2537,3086,-4,-1,0,1
21576,-6067,2535,3080,-4,-1,0,1
21581,-6068,2535,3080,-4,-1,0,1
21586,-6066,2536,3082,-4,-1,0,1
21591,-6062,2536,3081,-4,0,0,1
21596,-6061,2535,3078,-4,0,0,1
21601,-6058,2537,3071,-4,1,0,1
21606,-6055,2542,3068,-4,1,0,1
21611,-6052,2545,3064,-4,0,0,1
21616,-6052,2546,3064,-4,0,0,1
21621,-6061,2544,3072,-4,-1,0,1
21626,-6078,2541,3077,-4,-1,0,1
21631,-6087,2542,3090,-4,0,0,1
21636,-6087,2544,3097,-4,1,0,1
21641,-6084,2544,3088,-4,1,0,1
21646,-6078,2542,3079,-4,1,0,1
21651,-6074,2539,3070,-4,0,0,1
21656,-6069,2536,3063,-4,0,0,1
21661,-6067,2536,3046,-4,-1,0,1
21666,-6070,2536,3028,-4,-1,0,1
21671,-6069,2538,3017,-4,-2,0,1
21676,-6068,2543,3017,-4,-2,0,1
21681,-6068,2546,3021,-4,-4,0,1
21686,-6065,2545,3027,-4,-5,0,1
21691,-6062,2545,3039,-4,-6,0,1
21696,-6076,2540,3050,-4,-7,0,1
21701,-6107,2532,3059,-4,-7,0,1
21706,-6135,2531,3076,-4,-4,0,1
21711,-6144,2535,3092,-4,-1,0,1
21716,-6136,2542,3097,-4,2,1,1
21721,-6117,2543,3092,-4,4,0,1
21726,-6095,2543,3079,-4,4,0,1
21731,-6071,2540,3061,-4,3,0,1
21736,-6057,2541,3041,-4,2,0,1
21741,-6058,2543,3030,-4,2,0,1
21746,-6062,2546,3024,-4,1,0,1
21751,-6068,2548,3025,-4,1,0,1
21756,-6089,2546,3028,-4,1,0,1
21761,-6101,2545,3038,-4,1,0,1
21766,-6098,2543,3047,-4,2,0,1
21771,-6094,2543,3052,-4,2,0,1
21776,-6092,2546,3047,-4,1,0,1
21781,-6091,2545,3038,-4,0,0,1
21786,-6095,2542,3027,-4,-2,0,1
21791,-6104,2538,3019,-4,-3,0,1
21796,-6114,2535,3016,-4,-5,0,1
21801,-6123,2531,3021,-4,-5,0,1
21806,-6117,2528,3030,-4,-5,1,1
21811,-6104,2528,3031,-4,-4,1,1
21816,-6100,2529,3030,-4,-3,0,1
21821,-6087,2530,3032,-4,-2,0,1
21826,-6069,2534,3031,-4,-2,0,1
21831,-6069,2539,3026,-4,-1,0,1
21836,-6079,2543,3027,-4,0,0,1
21841,-6082,2549,3029,-4,0,0,1
21846,-6075,2548,3023,-4,0,0,1
21851,-6071,2550,3007,-4,-1,0,1
21856,-6069,2553,2998,-4,-2,0,1
21861,-6073,2551,2993,-4,-3,0,1
21866,-6087,2546,2996,-4,-3,0,1
21871,-6105,2545,3008,-4,-3,0,1
21876,-6111,2543,3020,-4,-2,0,1
21881,-6110,2539,3022,-4,-1,0,1
21886,-6106,2537,3020,-4,-1,0,1
21891,-6097,2538,3018,-4,-1,0,1
21896,-6084,2545,3013,-4,-2,0,1
21901,-6077,2544,3000,-4,-3,0,1
21906,-6078,2545,2992,-4,-4,0,1
21911,-6086,2544,2996,-4,-6,0,1
21916,-6108,2539,3011,-4,-6,0,1
21921,-6131,2537,3032,-4,-4,0,1
21926,-6137,2541,3053,-4,-3,0,1
21931,-6132,2544,3068,-4,-1,0,1
21936,-6121,2544,3069,-4,0,0,1
21941,-6121,2542,3066,-4,0,0,1
21946,-6119,2543,3063,-4,0,0,1
21951,-6114,2545,3052,-4,1,0,1
21956,-6107,2544,3030,-4,0,0,1
21961,-6100,2540,3014,-4,0,0,1
21966,-6093,2535,3005,-4,-1,0,1
21971,-6088,2532,2998,-4,-2,0,1
21976,-6092,2525,2987,-4,-4,0,1
21981,-6106,2520,2991,-4,-4,0,1
21986,-6115,2517,2999,-4,-3,0,1
21991,-6118,2520,3009,-4,-2,0,1
21996,-6120,2525,3010,-4,-1,0,1
22001,-6115,2531,3016,-4,-1,0,1
22006,-6106,2538,3012,-4,-1,0,1
22011,-6097,2543,3006,-4,-2,0,1
22017,-6091,2547,3001,-4,-2,0,1
22021,-6089,2550,3001,-4,-3,0,1
22026,-6093,2549,3003,-4,-3,0,1
22031,-6101,2546,3011,-4,-4,0,1
22036,-6115,2541,3018,-4,-4,0,1
22042,-6125,2535,3025,-4,-3,0,1
22046,-6126,2535,3028,-4,-3,0,1
22052,-6120,2537,3032,-4,-2,0,1
22057,-6113,2536,3027,-4,-2,0,1
22062,-6109,2536,3023,-4,-2,0,1
22067,-6106,2539,3022,-4,-2,0,1
22072,-6101,2540,3020,-4,-2,0,1
22077,-6099,2539,3015,-4,-3,0,1
22082,-6101,2541,3011,-4,-3,0,1
22087,-6101,2546,3016,-4,-3,0,1
22092,-6094,2550,3018,-4,-3,0,1
22097,-6090,2553,3010,-4,-3,0,1
22102,-6095,2553,3005,-4,-3,0,1
22107,-6100,2552,3003,-4,-2,0,1
22112,-6098,2551,3006,-4,-2,0,1
22117,-6101,2547,3006,-4,-2,0,1
22122,-6105,2544,3006,-4,-2,0,1
22127,-6112,2537,3006,-4,-2,0,1
22132,-6118,2530,3010,-4,-1,0,1
22137,-6119,2533,3018,-4,0,0,1
22142,-6119,2537,3022,-4,1,0,1
22147,-6115,2542,3024,-4,1,0,1
22152,-6112,2535,3023,-4,1,0,1
22157,-6111,2534,3018,-4,0,0,1
22162,-6108,2536,3010,-4,-1,0,1
22167,-6104,2536,2999,-4,-2,0,1
22172,-6098,2538,2986,-4,-4,0,1
22177,-6094,2538,2981,-4,-5,0,1
22182,-6098,2537,2984,-4,-7,0,1
22187,-6107,2533,2990,-4,-7,0,1
22192,-6117,2530,2996,-4,-7,0,1
22197,-6121,2529,3006,-4,-5,0,1
22202,-6120,2531,3016,-4,-4,0,1
22207,-6111,2535,3024,-4,-3,0,1
22212,-6097,2536,3023,-4,-3,0,1
22217,-6090,2539,3017,-4,-4,0,1
22222,-6094,2540,3013,-4,-4,0,1
22227,-6104,2537,3013,-4,-4,0,1
22232,-6114,2534,3026,-4,-3,0,1
22237,-6115,2532,3037,-4,-3,0,1
22242,-6112,2533,3047,-4,-2,0,1
22247,-6103,2534,3053,-4,-2,0,1
22252,-6098,2537,3056,-4,-1,0,1
22257,-6096,2536,3049,-4,-1,0,1
22262,-6091,2536,3036,-4,0,0,1
22267,-6089,2532,3023,-4,-1,0,1
22272,-6091,2528,3020,-4,-1,0,1
22277,-6091,2526,3016,-4,-2,0,1
22282,-6088,2528,3010,-4,-3,0,1
22287,-6091,2532,3006,-4,-3,0,1
22292,-6101,2534,3005,-4,-3,0,1
22297,-6115,2535,3016,-4,-3,0,1
22302,-6116,2539,3029,-4,-2,0,1
22307,-6114,2541,3040,-4,-1,0,1
22312,-6112,2543,3048,-4,0,0,1
22317,-6110,2541,3056,-4,0,0,1
22322,-6103,2543,3061,-4,1,0,1
22327,-6105,2537,3055,-4,0,0,1
22332,-6107,2540,3049,-4,0,0,1
22337,-6104,2542,3047,-4,0,0,1
22342,-6094,2545,3038,-4,-1,0,1
22347,-6090,2545,3025,-4,-2,0,1
22352,-6090,2545,3010,-4,-2,0,1
22357,-6089,2545,3002,-4,-3,0,1
22362,-6085,2540,2997,-4,-4,0,1
22367,-6085,2539,2996,-4,-5,0,1
22372,-6086,2539,2997,-4,-5,0,1
22377,-6091,2536,2997,-4,-5,0,1
22382,-6103,2531,3007,-4,-5,0,1
22387,-6117,2532,3022,-4,-3,0,1
22392,-6123,2535,3034,-4,-2,0,1
22397,-6117,2538,3038,-4,-1,0,1
22402,-6102,2540,3038,-4,-1,0,1
22407,-6088,2541,3029,-4,-2,0,1
22412,-6079,2542,3019,-4,-3,0,1
22417,-6075,2543,3015,-4,-4,0,1
22422,-6075,2542,3015,-4,-5,0,1
22427,-6083,2542,3015,-4,-5,0,1
22432,-6102,2537,3020,-4,-5,0,1
22437,-6115,2534,3030,-4,-5,0,1
22442,-6117,2533,3036,-4,-4,0,1
22447,-6119,2531,3039,-4,-4,0,1
22452,-6118,2534,3045,-4,-2,0,1
22457,-6110,2541,3049,-4,-1,0,1
22462,-6099,2544,3050,-4,0,0,1
22467,-6092,2547,3043,-4,0,0,1
22472,-6093,2549,3032,-4,-1,0,1
22477,-6095,2552,3025,-4,-2,0,1
22482,-6098,2546,3021,-4,-3,0,1
22487,-6100,2543,3025,-4,-3,0,1
22492,-6104,2538,3031,-4,-3,0,1
22497,-6113,2538,3040,-4,-2,0,1
22502,-6111,2539,3050,-4,-1,0,1
22507,-6100,2543,3059,-4,-1,0,1
22512,-6091,2544,3053,-4,-1,0,1
22517,-6083,2541,3039,-4,-1,0,1
22522,-6077,2542,3022,-4,-2,0,1
22527,-6072,2540,3012,-4,-3,0,1
22532,-6081,2539,3008,-4,-4,0,1
22537,-6090,2534,3015,-4,-4,0,1
22542,-6094,2531,3028,-4,-4,0,1
22547,-6096,2531,3026,-4,-3,0,1
22552,-6091,2532,3027,-4,-3,0,1
22557,-6086,2537,3021,-4,-3,0,1
22562,-6085,2535,3020,-4,-3,0,1
22567,-6084,2537,3020,-4,-2,0,1
22572,-6082,2539,3018,-4,-2,0,1
22577,-6082,2541,3015,-4,-3,0,1
22582,-6079,2541,3018,-4,-3,0,1
22587,-6074,2540,3024,-4,-4,0,1
22592,-6073,2538,3028,-4,-4,0,1
22597,-6069,2536,3029,-4,-4,0,1
22602,-6072,2535,3026,-4,-4,0,1
22607,-6081,2536,3032,-4,-4,0,1
22613,-6096,2536,3041,-4,-3,0,1
22617,-6109,2532,3049,-4,-3,0,1
22622,-6118,2532,3055,-4,-1,0,1
22628,-6114,2534,3065,-4,0,0,1
22632,-6104,2534,3066,-4,1,0,1
22637,-6097,2533,3062,-4,1,0,1
22642,-6093,2532,3057,-4,0,0,1
22647,-6093,2530,3053,-4,0,0,1
22653,-6094,2531,3049,-4,1,0,1
22657,-6094,2533,3045,-4,1,0,1
22663,-6092,2534,3040,-4,1,0,1
22668,-6084,2536,3035,-4,2,0,1
22673,-6076,2542,3030,-4,1,0,1
22678,-6068,2546,3027,-4,0,0,1
22683,-6062,2549,3023,-4,-1,0,1
22688,-6067,2545,3013,-4,-2,0,1
22693,-6077,2537,3013,-4,-3,0,1
22698,-6086,2533,3022,-4,-3,0,1
22703,-6092,2533,3030,-4,-4,0,1
22708,-6105,2533,3035,-4,-3,0,1
22713,-6119,2530,3040,-4,-2,0,1
22718,-6124,2532,3046,-4,-1,0,1
22723,-6114,2537,3044,-4,0,0,1
22728,-6105,2542,3032,-4,1,0,1
22733,-6093,2543,3026,-4,0,0,1
22738,-6084,2539,3022,-4,-2,0,1
22743,-6089,2535,3018,-4,-3,0,1
22748,-6100,2531,3013,-4,-3,0,1
22753,-6118,2527,3013,-4,-3,0,1
22758,-6128,2526,3018,-4,-2,0,1
22763,-6126,2525,3019,-4,-2,0,1
22768,-6117,2527,3014,-4,-2,0,1
22773,-6108,2530,3009,-4,-2,0,1
22778,-6096,2533,3005,-4,-2,0,1
22783,-6090,2531,3006,-4,-3,0,1
22788,-6093,2532,3009,-4,-3,0,1
22793,-6100,2534,3016,-4,-2,0,1
22798,-6105,2537,3021,-4,-2,0,1
22803,-6108,2536,3027,-4,-1,0,1
22808,-6109,2538,3029,-4,0,0,1
22813,-6105,2540,3028,-4,0,0,1
22818,-6100,2542,3020,-4,-1,0,1
22823,-6101,2543,3011,-4,-1,0,1
22828,-6104,2544,3009,-4,-2,0,1
22833,-6106,2545,3011,-4,-3,0,1
22838,-6110,2542,3013,-4,-4,0,1
22843,-6118,2537,3014,-4,-4,0,1
22848,-6119,2539,3018,-4,-4,0,1
22853,-6110,2540,3024,-4,-3,0,1
22858,-6099,2540,3024,-4,-3,0,1
22863,-6091,2541,3024,-4,-3,0,1
22868,-6083,2542,3027,-4,-3,0,1
22873,-6083,2541,3028,-4,-4,0,1
22878,-6104,2540,3028,-4,-4,0,1
22883,-6121,2541,3036,-4,-2,0,1
22888,-6119,2547,3042,-4,-1,0,1
22893,-6110,2548,3033,-4,0,0,1
22898,-6098,2549,3015,-4,-1,0,1
22903,-6085,2545,3000,-4,-1,0,1
22908,-6082,2539,2991,-4,-2,0,1
22913,-6093,2533,2984,-4,-3,0,1
22918,-6108,2534,2981,-4,-2,0,1
22923,-6119,2537,2982,-4,-1,0,1
22928,-6118,2538,2992,-4,-1,0,1
22933,-6115,2538,3002,-4,-1,0,1
22938,-6112,2536,3008,-4,-1,0,1
22943,-6108,2538,3012,-4,-1,0,1
22948,-6106,2541,3018,-4,-1,0,1
22953,-6107,2544,3021,-4,-2,0,1
22958,-6110,2542,3022,-4,-2,0,1
22963,-6111,2539,3028,-4,-3,0,1
22968,-6105,2536,3034,-4,-3,0,1
22973,-6095,2536,3030,-4,-4,0,1
22978,-6088,2533,3018,-4,-4,0,1
22983,-6094,2528,3006,-4,-5,0,1
22988,-6106,2525,3004,-4,-5,0,1
22993,-6118,2526,3013,-4,-4,0,1
22998,-6128,2526,3021,-4,-3,0,1
23003,-6130,2529,3031,-4,-1,0,1
23008,-6119,2534,3038,-4,0,0,1
23013,-6100,2536,3043,-4,1,0,1
23018,-6090,2537,3041,-4,0,0,1
23023,-6086,2539,3041,-4,0,0,1
23028,-6087,2543,3036,-4,0,0,1
23033,-6092,2542,3030,-4,0,0,1
23038,-6100,2541,3023,-4,0,0,1
23043,-6114,2537,3015,-4,-1,0,1
23048,-6126,2535,3018,-4,-1,0,1
23053,-6125,2537,3015,-4,-1,0,1
23058,-6116,2540,3011,-4,-1,0,1
23063,-6106,2541,3004,-4,-1,0,1
23068,-6095,2541,2998,-4,-2,0,1
23073,-6091,2539,2995,-4,-2,0,1
23078,-6098,2536,2992,-4,-3,0,1
23083,-6109,2531,2993,-4,-3,0,1
23088,-6110,2532,2992,-4,-3,0,1
23093,-6104,2536,3000,-4,-3,0,1
23098,-6097,2539,3002,-4,-4,0,1
23103,-6092,2541,2996,-4,-4,0,1
23108,-6093,2540,2987,-4,-6,0,1
23113,-6099,2538,2984,-4,-6,0,1
23118,-6103,2539,2986,-4,-7,0,1
23123,-6109,2541,2993,-4,-7,0,1
23128,-6119,2540,3006,-4,-7,0,1
23133,-6121,2539,3022,-4,-6,0,1
23138,-6115,2541,3035,-4,-5,0,1
23143,-6102,2544,3039,-4,-4,0,1
23148,-6090,2545,3039,-4,-3,0,1
23153,-6085,2545,3037,-4,-3,0,1
23158,-6085,2543,3031,-4,-2,0,1
23163,-6096,2540,3028,-4,-2,0,1
23168,-6107,2537,3025,-4,-2,0,1
23173,-6108,2537,3035,-4,-1,0,1
23178,-6103,2538,3044,-4,-1,0,1
23183,-6100,2538,3043,-4,0,0,1
23188,-6095,2544,3038,-4,0,0,1
23193,-6088,2550,3035,-4,-1,0,1
23198,-6084,2551,3030,-4,-1,0,1
23203,-6087,2550,3024,-4,-2,0,1
23208,-6096,2545,3024,-4,-3,0,1
23213,-6109,2542,3027,-4,-3,0,1
23218,-6114,2542,3037,-4,-3,0,1
23223,-6109,2544,3040,-4,-2,0,1
23228,-6101,2544,3041,-4,-1,0,1
23233,-6093,2546,3039,-4,-1,0,1
23239,-6083,2544,3032,-4,-1,0,1
23244,-6076,2546,3028,-4,-2,0,1
23249,-6076,2544,3022,-4,-3,0,1
23253,-6088,2540,3019,-4,-3,0,1
23258,-6100,2538,3031,-4,-3,0,1
23264,-6106,2539,3045,-4,-2,0,1
23268,-6105,2541,3051,-4,-1,0,1
23273,-6103,2537,3046,-4,-1,0,1
23279,-6105,2535,3047,-4,0,0,1
23284,-6108,2535,3042,-4,0,0,1
23289,-6108,2540,3028,-4,0,0,1
23294,-6110,2546,3014,-4,0,0,1
23299,-6104,2547,3004,-4,-1,0,1
23304,-6091,2548,2997,-4,-2,0,1
23309,-6083,2547,2993,-4,-3,0,1
23314,-6080,2547,2988,-4,-4,0,1
23319,-6079,2548,2988,-4,-4,0,1
23324,-6080,2544,2991,-4,-4,0,1
23329,-6089,2539,2992,-4,-4,0,1
23334,-6103,2536,2998,-4,-3,0,1
23339,-6108,2533,3001,-4,-2,0,1
23344,-6105,2536,3011,-4,-2,0,1
23349,-6097,2540,3022,-4,-2,0,1
23354,-6090,2542,3029,-4,-2,0,1
23359,-6084,2543,3034,-4,-2,0,1
23364,-6087,2545,3037,-4,-3,0,1
23369,-6096,2542,3040,-4,-3,0,1
23374,-6102,2541,3042,-4,-4,0,1
23379,-6109,2538,3040,-4,-5,0,1
23384,-6117,2535,3039,-4,-5,0,1
23389,-6121,2535,3033,-4,-5,0,1
23394,-6112,2537,3030,-4,-5,0,1
23399,-6100,2537,3023,-4,-5,0,1
23404,-6095,2540,3020,-4,-5,0,1
23409,-6097,2543,3027,-4,-5,0,1
23414,-6098,2544,3040,-4,-5,0,1
23419,-6100,2538,3041,-4,-4,0,1
23424,-6105,2535,3046,-4,-3,0,1
23429,-6105,2536,3054,-4,-1,0,1
23434,-6098,2537,3060,-4,0,0,1
23439,-6088,2538,3054,-4,0,0,1
23444,-6082,2540,3044,-4,-1,0,1
23449,-6074,2541,3037,-4,-1,0,1
23454,-6070,2540,3035,-4,-2,0,1
23459,-6072,2541,3030,-4,-2,0,1
23464,-6085,2542,3028,-4,-2,0,1
23469,-6092,2540,3029,-4,-2,0,1
23474,-6098,2538,3030,-4,-2,0,1
23479,-6100,2536,3027,-4,-2,0,1
23484,-6105,2540,3022,-4,-2,0,1
23489,-6105,2546,3022,-4,-2,0,1
23494,-6098,2551,3022,-4,-2,0,1
23499,-6088,2552,3020,-4,-3,0,1
23504,-6083,2552,3026,-4,-4,0,1
23509,-6082,2552,3026,-4,-4,0,1
23514,-6081,2551,3030,-4,-5,0,1
23519,-6083,2552,3034,-4,-5,0,1
23524,-6100,2546,3041,-4,-4,0,1
23529,-6117,2545,3057,-4,-2,0,1
23534,-6122,2547,3074,-4,0,0,1
23539,-6117,2551,3081,-4,1,0,1
23544,-6105,2556,3078,-4,2,0,1
23549,-6095,2557,3069,-4,2,0,1
23554,-6086,2556,3053,-4,1,0,1
23559,-6084,2553,3037,-4,0,0,1
23564,-6086,2547,3022,-4,-2,0,1
23569,-6083,2546,3014,-4,-2,0,1
23574,-6081,2545,3009,-4,-3,0,1
23579,-6079,2542,3013,-4,-4,0,1
23584,-6076,2538,3015,-4,-4,0,1
23589,-6077,2538,3018,-4,-4,0,1
23594,-6077,2537,3026,-4,-3,0,1
23599,-6084,2540,3036,-4,-3,0,1
23604,-6091,2538,3044,-4,-2,0,1
23609,-6103,2536,3052,-4,-1,0,1
23614,-6112,2536,3055,-4,0,0,1
23619,-6108,2539,3060,-4,1,0,1
23624,-6101,2544,3058,-4,1,0,1
23629,-6092,2545,3055,-4,0,0,1
23634,-6082,2545,3049,-4,-1,0,1
23639,-6073,2546,3043,-4,-2,0,1
23644,-6071,2546,3034,-4,-3,0,1
23649,-6072,2544,3028,-4,-4,0,1
23654,-6076,2541,3022,-4,-5,0,1
23659,-6084,2537,3024,-4,-5,0,1
23664,-6097,2536,3032,-4,-5,0,1
23669,-6105,2538,3044,-4,-4,0,1
23674,-6101,2540,3051,-4,-3,0,1
23679,-6091,2543,3049,-4,-2,0,1
23684,-6078,2547,3048,-4,-2,0,1
23689,-6071,2546,3045,-4,-2,0,1
23694,-6074,2543,3045,-4,-3,0,1
23699,-6081,2538,3038,-4,-3,0,1
23704,-6086,2531,3032,-4,-4,0,1
23709,-6091,2530,3029,-4,-4,0,1
23714,-6093,2530,3033,-4,-5,0,1
23719,-6094,2534,3042,-4,-5,0,1
23724,-6091,2536,3051,-4,-5,0,1
23729,-6082,2539,3055,-4,-5,0,1
23734,-6071,2541,3053,-4,-5,0,1
23739,-6081,2540,3047,-4,-5,0,1
23744,-6097,2535,3048,-4,-4,0,1
23749,-6096,2532,3053,-4,-3,0,1
23754,-6091,2534,3052,-4,-3,0,1
23759,-6083,2537,3050,-4,-3,0,1
23764,-6071,2536,3051,-4,-3,0,1
23769,-6061,2536,3055,-4,-3,0,1
23774,-6054,2540,3062,-4,-3,0,1
23779,-6056,2540,3066,-4,-3,0,1
23784,-6064,2538,3064,-4,-3,0,1
23789,-6069,2538,3068,-4,-3,0,1
23794,-6080,2535,3073,-4,-3,0,1
23799,-6087,2535,3067,-4,-3,0,1
23804,-6086,2535,3063,-4,-3,0,1
23809,-6079,2538,3061,-4,-3,0,1
23814,-6072,2538,3056,-4,-4,0,1
23819,-6072,2536,3055,-4,-5,0,1
23824,-6079,2535,3062,-4,-6,0,1
23829,-6083,2530,3071,-4,-5,0,1
23834,-6082,2530,3082,-4,-5,0,1
23839,-6080,2533,3087,-4,-3,0,1
23844,-6075,2536,3087,-4,-2,0,1
23849,-6069,2536,3086,-4,-2,0,1
23854,-6062,2535,3085,-4,-2,0,1
23859,-6057,2533,3081,-4,-2,0,1
23865,-6054,2534,3076,-4,-2,0,1
23870,-6048,2535,3076,-4,-3,0,1
23874,-6044,2538,3074,-4,-3,0,1
23879,-6048,2537,3075,-4,-4,0,1
23884,-6058,2533,3075,-4,-4,0,1
23889,-6064,2536,3083,-4,-3,0,1
23894,-6063,2542,3089,-4,-2,0,1
23900,-6062,2545,3092,-4,-1,0,1
23904,-6062,2541,3093,-4,-1,0,1
23910,-6068,2535,3095,-4,0,0,1
23915,-6068,2536,3101,-4,1,0,1
23920,-6070,2539,3099,-4,1,0,1
23924,-6074,2544,3097,-4,2,0,1
23930,-6074,2546,3093,-4,2,0,1
23935,-6070,2545,3086,-4,2,0,1
23940,-6067,2543,3079,-4,2,0,1
23945,-6067,2540,3069,-4,2,0,1
23950,-6062,2538,3060,-4,1,0,1
23955,-6058,2534,3053,-4,1,0,1
23960,-6062,2531,3045,-4,1,0,1
23965,-6068,2535,3045,-4,2,0,1
23970,-6066,2540,3051,-4,3,0,1
23975,-6062,2545,3056,-4,3,0,1
23980,-6065,2552,3053,-4,3,0,1
23985,-6074,2555,3039,-4,3,0,1
23990,-6082,2553,3024,-4,4,0,1
23995,-6083,2552,3020,-4,3,0,1
24000,-6081,2553,3016,-4,3,0,1
24005,-6075,2556,3011,-4,1,0,1
24010,-6066,2553,3005,-4,-1,0,1
24015,-6061,2547,3001,-4,-3,0,1
24020,-6058,2536,2998,-4,-5,0,1
24025,-6071,2528,2989,-4,-6,0,1
24030,-6086,2519,2989,-4,-6,0,1
24035,-6095,2517,2994,-4,-6,0,1
24040,-6094,2521,3004,-4,-5,0,1
24045,-6087,2526,3012,-4,-4,0,1
24050,-6079,2533,3020,-4,-4,0,1
24055,-6071,2536,3022,-4,-5,0,1
24060,-6079,2538,3029,-4,-5,0,1
24065,-6106,2539,3040,-4,-4,0,1
24070,-6127,2542,3046,-4,-3,0,1
24075,-6129,2547,3051,-4,-2,0,1
24080,-6124,2549,3053,-4,-1,0,1
24085,-6115,2546,3051,-4,-1,0,1
24090,-6103,2544,3043,-4,-2,0,1
24095,-6095,2540,3034,-4,-2,0,1
24100,-6092,2540,3028,-4,-3,0,1
24105,-6089,2542,3025,-4,-3,0,1
24110,-6082,2539,3022,-4,-4,0,1
24115,-6078,2536,3019,-4,-4,0,1
24120,-6072,2536,3020,-4,-5,0,1
24125,-6066,2533,3024,-4,-6,0,1
24130,-6065,2533,3027,-4,-6,0,1
24135,-6069,2533,3029,-4,-7,0,1
24140,-6079,2531,3034,-4,-6,0,1
24145,-6087,2531,3041,-4,-6,0,1
24150,-6091,2534,3050,-4,-6,0,1
24155,-6094,2533,3062,-4,-6,0,1
24160,-6095,2534,3066,-4,-6,0,1
24165,-6091,2532,3069,-4,-5,0,1
24170,-6083,2534,3072,-4,-5,0,1
24175,-6079,2536,3076,-4,-5,0,1
24180,-6078,2533,3071,-4,-5,0,1
24185,-6078,2529,3071,-4,-4,0,1
24190,-6078,2529,3071,-4,-4,0,1
24195,-6077,2525,3072,-4,-4,0,1
24200,-6077,2525,3068,-4,-3,0,1
24205,-6073,2530,3067,-4,-3,0,1
24210,-6064,2537,3066,-4,-4,0,1
24215,-6059,2537,3065,-4,-4,0,1
24220,-6061,2534,3064,-4,-5,0,1
24225,-6066,2532,3068,-4,-4,0,1
24230,-6069,2535,3076,-4,-4,0,1
24235,-6065,2537,3082,-4,-3,0,1
24240,-6062,2540,3087,-4,-3,0,1
24245,-6059,2537,3090,-4,-3,0,1
24250,-6060,2534,3094,-4,-3,0,1
24255,-6065,2534,3096,-4,-3,0,1
24260,-6072,2533,3094,-4,-3,0,1
24265,-6080,2534,3092,-4,-2,0,1
24270,-6083,2535,3096,-4,-1,0,1
24275,-6082,2535,3098,-4,-1,0,1
24280,-6080,2532,3094,-4,-1,0,1
24285,-6082,2532,3087,-4,-1,0,1
24290,-6080,2534,3084,-4,0,0,1
24295,-6070,2537,3082,-4,0,0,1
24300,-6059,2539,3080,-4,0,0,1
24305,-6050,2542,3078,-4,-1,0,1
24310,-6041,2544,3076,-4,-1,0,1
24315,-6039,2544,3078,-4,-2,0,1
24320,-6041,2543,3081,-4,-1,0,1
24325,-6039,2544,3088,-4,-1,0,1
24330,-6040,2545,3096,-4,-1,0,1
24335,-6042,2542,3106,-4,-1,0,1
24340,-6042,2543,3111,-4,-1,0,1
24345,-6037,2545,3106,-4,-2,0,1
24350,-6036,2545,3101,-4,-3,0,1
24355,-6038,2542,3094,-4,-5,0,1
24360,-6042,2535,3079,-4,-7,0,1
24365,-6043,2527,3067,-4,-9,0,1
24370,-6040,2525,3062,-4,-11,0,1
24375,-6039,2526,3064,-4,-12,0,1
24380,-6039,2529,3070,-4,-13,0,1
24385,-6039,2528,3078,-4,-13,0,1
24390,-6055,2526,3086,-4,-12,0,1
24395,-6069,2525,3104,-4,-10,0,1
24400,-6063,2527,3121,-4,-8,0,1
24405,-6050,2533,3133,-4,-5,0,1
24410,-6044,2540,3142,-4,-4,0,1
24415,-6036,2541,3155,-4,-4,0,1
24420,-6029,2539,3160,-4,-4,0,1
24425,-6029,2535,3157,-4,-5,0,1
24430,-6036,2532,3148,-4,-6,0,1
24435,-6050,2529,3144,-4,-6,0,1
24440,-6055,2531,3148,-4,-5,0,1
24445,-6042,2537,3151,-4,-4,0,1
24450,-6030,2543,3149,-4,-3,0,1
24455,-6013,2548,3149,-4,-3,0,1
24460,-5995,2550,3149,-4,-3,0,1
24465,-5985,2550,3145,-4,-4,0,1
24470,-5982,2547,3145,-4,-5,0,1
24475,-5985,2547,3145,-4,-7,0,1
24480,-5990,2546,3147,-4,-8,0,1
24485,-6003,2542,3157,-4,-9,0,1
24490,-6017,2535,3174,-4,-9,0,1
24496,-6021,2530,3195,-4,-8,0,1
24500,-6017,2532,3208,-4,-7,0,1
24505,-6016,2538,3215,-4,-7,0,1
24510,-6013,2539,3212,-4,-6,0,1
24515,-6000,2540,3206,-4,-7,0,1
24521,-5987,2544,3200,-4,-8,0,1
24526,-5979,2545,3193,-4,-9,0,1
24531,-5972,2542,3188,-4,-10,0,1
24536,-5963,2534,3184,-4,-11,0,1
24541,-5951,2533,3191,-4,-11,0,1
24545,-5939,2541,3199,-4,-11,0,1
24551,-5940,2545,3207,-4,-10,0,1
24556,-5957,2544,3217,-4,-8,0,1
24561,-5975,2543,3231,-4,-5,0,1
24566,-5974,2542,3251,-4,-2,0,1
24571,-5964,2542,3256,-4,-1,0,1
24576,-5952,2545,3250,-4,-1,0,1
24581,-5942,2550,3239,-4,-1,0,1
24586,-5935,2552,3232,-4,-2,0,1
24591,-5931,2552,3225,-4,-4,0,1
24596,-5935,2550,3217,-4,-5,0,1
24601,-5942,2546,3217,-4,-5,0,1
24606,-5946,2543,3224,-4,-6,0,1
24611,-5956,2541,3233,-4,-7,0,1
24616,-5962,2538,3240,-4,-7,0,1
24621,-5967,2539,3242,-4,-6,0,1
24626,-5963,2543,3244,-4,-5,0,1
24631,-5950,2548,3244,-4,-4,0,1
24636,-5939,2550,3245,-4,-4,0,1
24641,-5927,2551,3246,-4,-5,0,1
24646,-5919,2548,3252,-4,-6,0,1
24651,-5914,2544,3256,-4,-6,0,1
24656,-5914,2536,3263,-4,-7,0,1
24661,-5908,2525,3281,-4,-6,0,1
24666,-5891,2545,3299,-4,-3,0,1
24671,-5902,2576,3320,-4,-1,0,1
24676,-5946,2578,3322,-4,0,0,1
24681,-5984,2551,3311,-4,-2,0,1
24686,-5989,2521,3291,-4,-4,0,1
24691,-5973,2510,3269,-4,-6,1,1
24696,-5947,2517,3245,-4,-8,1,1
24701,-5925,2527,3235,-4,-8,1,1
24706,-5905,2533,3249,-4,-7,1,1
24711,-5905,2536,3268,-4,-6,0,1
24716,-5920,2535,3276,-4,-4,0,1
24721,-5935,2534,3281,-4,-3,0,1
24726,-5933,2533,3279,-4,-1,0,1
24731,-5917,2540,3274,-4,0,0,1
24736,-5897,2546,3265,-4,-1,0,1
24741,-5878,2549,3263,-4,-2,0,1
24746,-5869,2548,3271,-4,-3,0,1
24751,-5874,2543,3280,-4,-5,0,1
24756,-5888,2538,3289,-4,-6,0,1
24761,-5904,2537,3293,-4,-6,0,1
24766,-5911,2535,3299,-4,-6,0,1
24771,-5911,2537,3306,-4,-6,0,1
24776,-5913,2535,3312,-4,-6,0,1
24781,-5914,2532,3315,-4,-5,0,1
24786,-5910,2534,3325,-4,-4,0,1
24791,-5907,2541,3332,-4,-4,0,1
24796,-5912,2541,3329,-4,-4,0,1
24801,-5912,2538,3326,-4,-4,0,1
24806,-5901,2537,3328,-4,-4,0,1
24811,-5889,2540,3330,-4,-4,0,1
24816,-5885,2543,3325,-4,-4,0,1
24821,-5885,2543,3323,-4,-4,0,1
24826,-5886,2540,3322,-4,-4,0,1
24831,-5888,2540,3325,-4,-5,0,1
24836,-5897,2538,3321,-4,-5,0,1
24841,-5903,2536,3315,-4,-5,0,1
24846,-5904,2535,3319,-4,-5,0,1
24851,-5898,2535,3325,-4,-4,0,1
24856,-5889,2534,3332,-4,-4,0,1
24861,-5878,2535,3336,-4,-4,0,1
24866,-5868,2538,3339,-4,-4,0,1
24871,-5866,2540,3341,-4,-4,0,1
24876,-5877,2541,3340,-4,-4,0,1
24881,-5889,2537,3334,-4,-3,0,1
24886,-5893,2531,3329,-4,-3,0,1
24891,-5892,2533,3338,-4,-3,0,1
24896,-5880,2537,3347,-4,-3,0,1
24901,-5868,2541,3351,-4,-3,0,1
24906,-5866,2538,3355,-4,-3,0,1
24911,-5869,2539,3356,-4,-3,0,1
24916,-5875,2540,3359,-4,-3,0,1
24921,-5883,2543,3357,-4,-2,0,1
24926,-5890,2543,3351,-4,-2,0,1
24931,-5885,2540,3348,-4,-1,0,1
24936,-5877,2538,3348,-4,-2,0,1
24941,-5875,2540,3344,-4,-2,0,1
24946,-5877,2544,3338,-4,-2,0,1
24951,-5888,2548,3333,-4,-1,0,1
24956,-5897,2548,3337,-4,0,0,1
24961,-5904,2546,3340,-4,0,0,1
24966,-5902,2544,3341,-4,1,0,1
24971,-5893,2546,3343,-4,2,0,1
24976,-5882,2548,3350,-4,2,0,1
24981,-5872,2548,3356,-4,1,0,1
24986,-5866,2546,3361,-4,1,0,1
24991,-5864,2542,3367,-4,1,0,1
24996,-5868,2539,3371,-4,2,0,1
25001,-5881,2538,3371,-4,2,0,1
25006,-5892,2537,3365,-4,2,0,1
25011,-5895,2536,3357,-4,2,0,1
25016,-5890,2536,3352,-4,2,0,1
25021,-5886,2537,3340,-4,2,0,1
25026,-5883,2539,3326,-4,1,0,1
25031,-5885,2544,3317,-4,0,0,1
25036,-5879,2549,3310,-4,0,0,1
25041,-5871,2550,3306,-4,-1,0,1
25046,-5872,2546,3296,-4,-1,0,1
25051,-5871,2541,3291,-4,-1,0,1
25056,-5875,2535,3292,-4,-1,0,1
25061,-5887,2533,3292,-4,-1,0,1
25066,-5896,2537,3294,-4,0,0,1
25071,-5895,2542,3297,-4,0,0,1
25076,-5895,2548,3309,-4,0,0,1
25081,-5889,2548,3311,-4,0,0,1
25086,-5885,2547,3308,-4,-1,0,1
25091,-5880,2544,3299,-4,-3,0,1
25097,-5880,2543,3287,-4,-4,0,1
25101,-5886,2541,3278,-4,-5,0,1
25107,-5893,2538,3280,-4,-6,0,1
25111,-5905,2534,3281,-4,-5,0,1
25116,-5913,2533,3283,-4,-3,0,1
25121,-5911,2537,3288,-4,-1,0,1
25127,-5903,2545,3301,-4,1,0,1
25131,-5894,2551,3309,-4,2,0,1
25136,-5891,2553,3313,-4,2,0,1
25141,-5895,2550,3313,-4,2,0,1
25146,-5910,2547,3309,-4,1,0,1
25152,-5927,2543,3305,-4,0,0,1
25157,-5936,2542,3300,-4,0,0,1
25162,-5947,2544,3295,-4,1,0,1
25167,-5946,2544,3292,-4,1,0,1
25171,-5936,2545,3298,-4,2,1,1
25177,-5924,2551,3305,-4,2,1,1
25182,-5915,2554,3302,-4,2,0,1
25187,-5915,2560,3293,-4,2,0,1
25192,-5919,2561,3286,-4,2,0,1
25197,-5923,2561,3276,-4,1,0,1
25202,-5926,2559,3259,-4,1,0,1
25207,-5936,2554,3255,-4,0,0,1
25212,-5939,2550,3263,-4,0,1,1
25217,-5935,2544,3271,-4,1,0,1
25222,-5934,2536,3277,-4,1,0,1
25227,-5936,2537,3276,-4,3,0,1
25232,-5936,2540,3280,-4,4,0,1
25237,-5933,2543,3276,-4,5,0,1
25242,-5929,2547,3267,-4,6,0,1
25247,-5927,2547,3256,-4,6,0,1
25252,-5930,2547,3250,-4,6,0,1
25257,-5932,2543,3245,-4,5,0,1
25262,-5935,2543,3242,-4,5,0,1
25267,-5939,2543,3233,-4,4,0,1
25272,-5951,2541,3222,-4,4,0,1
25277,-5960,2541,3211,-4,4,0,1
25282,-5962,2543,3208,-4,4,0,1
25287,-5961,2543,3208,-4,4,0,1
25292,-5964,2543,3205,-4,4,0,1
25297,-5967,2545,3198,-4,4,0,1
25302,-5968,2545,3185,-4,4,0,1
25307,-5975,2549,3179,-4,3,0,1
25312,-5989,2550,3178,-4,3,0,1
25317,-6004,2544,3170,-4,3,0,1
25322,-6016,2538,3171,-4,2,1,1
25327,-6019,2536,3177,-4,3,1,1
25332,-6010,2538,3178,-4,3,1,1
25337,-6001,2537,3178,-4,4,1,1
25342,-5998,2539,3174,-4,5,0,1
25347,-6001,2538,3173,-4,7,0,1
25352,-6012,2536,3169,-4,8,0,1
25357,-6032,2533,3163,-4,10,0,1
25362,-6045,2532,3163,-4,12,0,1
25367,-6049,2531,3162,-4,13,0,1
25372,-6052,2536,3151,-4,14,0,1
25377,-6056,2540,3136,-5,15,0,1
25382,-6063,2541,3125,-5,16,0,1
25387,-6062,2539,3109,-5,16,0,1
25392,-6065,2535,3089,-5,15,0,1
25397,-6088,2530,3059,-5,14,0,1
25402,-6113,2529,3038,-5,14,0,1
25407,-6116,2531,3026,-5,14,0,1
25412,-6096,2538,3032,-5,15,0,1
25417,-6090,2539,3020,-5,14,0,1
25422,-6103,2540,2996,-5,13,0,1
25427,-6117,2544,2994,-5,15,0,1
25432,-6140,2546,3003,-5,16,0,1
25437,-6173,2543,2995,-5,18,0,1
25442,-6201,2544,2985,-5,20,0,1
25447,-6211,2547,2991,-5,22,0,1
25452,-6212,2549,2993,-5,23,0,1
25457,-6208,2546,2977,-5,24,0,1
25462,-6203,2545,2951,-5,23,0,1
25467,-6217,2568,2908,-5,22,0,1
25472,-6238,2587,2835,-4,22,0,1
25477,-6254,2592,2783,-4,21,0,1
25482,-6273,2590,2752,-4,21,0,1
25487,-6284,2590,2746,-4,20,0,1
25492,-6282,2590,2743,-4,20,0,1
25497,-6274,2589,2735,-4,19,0,1
25502,-6260,2586,2724,-4,17,0,1
25507,-6251,2582,2708,-4,15,0,1
25512,-6248,2578,2679,-4,13,0,1
25517,-6255,2567,2654,-4,12,0,1
25522,-6275,2557,2631,-4,11,0,1
25527,-6295,2549,2622,-4,10,0,1
25532,-6312,2549,2625,-4,10,0,1
25537,-6337,2546,2623,-4,10,0,1
25542,-6357,2543,2628,-4,12,0,1
25547,-6373,2543,2628,-4,14,0,1
25552,-6392,2543,2624,-4,17,0,1
25557,-6400,2540,2619,-4,19,0,1
25562,-6402,2535,2607,-4,20,0,1
25567,-6406,2531,2594,-4,20,0,1
25572,-6413,2518,2571,-4,19,0,1
25577,-6424,2505,2555,-4,19,0,1
25582,-6430,2500,2536,-4,19,0,1
25587,-6424,2497,2520,-4,18,0,1
25592,-6422,2498,2501,-4,17,0,1
25597,-6422,2500,2482,-4,15,0,1
25602,-6419,2502,2468,-4,14,0,1
25607,-6417,2507,2445,-4,12,0,1
25612,-6415,2512,2424,-4,11,0,1
25617,-6421,2514,2407,-4,10,0,1
25622,-6426,2512,2394,-4,8,0,1
25627,-6442,2509,2387,-4,8,0,1
25632,-6466,2508,2384,-4,8,0,1
25637,-6484,2514,2382,-4,9,0,1
25642,-6495,2524,2374,-4,10,0,1
25647,-6499,2528,2364,-4,11,0,1
25652,-6495,2525,2349,-4,11,0,1
25657,-6493,2519,2331,-4,10,0,1
25662,-6488,2516,2308,-4,9,0,1
25667,-6491,2512,2278,-4,7,0,1
25672,-6503,2509,2251,-4,5,0,1
25677,-6526,2505,2230,-4,3,0,1
25682,-6541,2509,2221,-4,2,0,1
25687,-6543,2514,2219,-4,2,0,1
25692,-6542,2518,2214,-4,1,0,1
25697,-6551,2522,2206,-4,1,0,1
25702,-6563,2527,2213,-4,2,0,1
25708,-6570,2532,2223,-4,4,0,1
25712,-6586,2534,2229,-4,6,0,1
25717,-6606,2536,2231,-4,8,0,1
25722,-6622,2543,2225,-4,10,0,1
25727,-6627,2546,2218,-4,11,0,1
25733,-6626,2540,2208,-4,12,0,1
25737,-6625,2538,2188,-4,11,0,1
25743,-6620,2539,2167,-4,11,0,1
25748,-6609,2541,2150,-4,11,0,1
25752,-6599,2539,2121,-4,9,0,1
25758,-6589,2535,2094,-4,8,0,1
25763,-6584,2527,2075,-4,6,0,1
25768,-6592,2523,2067,-4,3,0,1
25773,-6611,2517,2073,-4,2,0,1
25778,-6634,2513,2089,-4,3,0,1
25783,-6649,2510,2104,-4,4,0,1
25788,-6653,2512,2119,-4,6,0,1
25793,-6653,2514,2122,-4,8,0,1
25798,-6662,2513,2122,-4,10,0,1
25803,-6673,2516,2115,-4,12,0,1
25808,-6683,2522,2107,-4,14,0,1
25813,-6689,2527,2100,-4,16,0,1
25818,-6691,2532,2090,-4,17,0,1
25823,-6694,2530,2069,-4,18,0,1
25828,-6706,2526,2054,-4,18,0,1
25833,-6724,2524,2043,-5,19,0,1
25838,-6737,2524,2039,-5,20,0,1
25843,-6745,2527,2028,-5,21,0,1
25848,-6745,2528,2006,-4,21,0,1
25853,-6741,2529,1974,-4,20,0,1
25858,-6730,2529,1942,-4,19,0,1
25863,-6715,2530,1906,-4,16,0,1
25868,-6698,2533,1871,-4,13,0,1
25873,-6695,2547,1832,-4,10,0,1
25878,-6697,2553,1792,-4,8,0,1
25883,-6707,2551,1776,-4,7,0,1
25888,-6726,2552,1773,-4,8,0,1
25893,-6742,2552,1782,-4,9,0,1
25898,-6758,2548,1793,-4,10,0,1
25903,-6772,2538,1802,-4,12,0,1
25908,-6791,2532,1807,-4,13,0,1
25913,-6809,2526,1811,-4,15,0,1
25918,-6820,2525,1813,-4,17,0,1
25923,-6829,2522,1803,-4,17,0,1
25928,-6834,2517,1781,-4,17,0,1
25933,-6832,2508,1749,-4,16,0,1
25938,-6836,2501,1716,-4,15,0,1
25943,-6846,2497,1686,-4,13,0,1
25948,-6853,2496,1662,-4,13,0,1
25953,-6853,2499,1643,-4,12,0,1
25958,-6848,2505,1620,-4,11,0,1
25963,-6832,2511,1597,-4,11,0,1
25968,-6816,2520,1577,-4,9,0,1
25973,-6800,2522,1557,-4,7,0,1
25978,-6794,2520,1535,-4,5,0,1
25983,-6809,2516,1518,-4,4,0,1
25988,-6834,2512,1515,-4,4,0,1
25993,-6860,2509,1520,-4,5,0,1
25998,-6886,2509,1520,-4,5,0,1
26003,-6908,2511,1515,-4,6,0,1
26008,-6917,2510,1516,-4,6,0,1
26013,-6918,2510,1517,-4,6,0,1
26018,-6916,2510,1514,-4,6,0,1
26023,-6908,2509,1506,-4,5,0,1
26028,-6902,2507,1492,-4,3,0,1
26033,-6896,2512,1482,-4,2,0,1
26038,-6887,2514,1471,-4,1,0,1
26043,-6878,2516,1454,-4,0,0,1
26048,-6873,2515,1442,-4,-1,0,1
26053,-6878,2514,1448,-4,-1,0,1
26058,-6889,2509,1458,-4,-1,0,1
26063,-6911,2504,1463,-4,1,0,1
26068,-6937,2505,1475,-4,3,0,1
26073,-6951,2514,1496,-4,5,0,1
26078,-6956,2521,1506,-4,7,0,1
26083,-6956,2522,1501,-4,9,0,1
26088,-6945,2524,1486,-4,9,0,1
26093,-6927,2526,1460,-4,8,0,1
26098,-6912,2525,1424,-4,6,0,1
26103,-6910,2521,1386,-4,3,0,1
26108,-6914,2516,1367,-4,2,0,1
26113,-6918,2511,1362,-4,1,0,1
26118,-6929,2509,1367,-4,1,0,1
26123,-6944,2509,1383,-4,2,0,1
26128,-6955,2511,1394,-4,4,0,1
26133,-6962,2513,1408,-4,5,0,1
26138,-6969,2514,1407,-4,6,0,1
26143,-6972,2514,1397,-4,7,0,1
26148,-6970,2514,1383,-4,6,0,1
26153,-6969,2510,1367,-4,5,0,1
26158,-6969,2506,1353,-4,4,0,1
26163,-6969,2506,1344,-4,4,0,1
26168,-6964,2506,1336,-4,3,0,1
26173,-6959,2504,1327,-4,3,0,1
26178,-6956,2507,1326,-4,3,0,1
26183,-6954,2510,1324,-4,3,0,1
26188,-6952,2510,1315,-4,3,0,1
26193,-6953,2511,1303,-4,3,0,1
26198,-6959,2511,1294,-4,2,0,1
26203,-6964,2511,1292,-4,2,0,1
26208,-6969,2514,1289,-4,2,0,1
26213,-6973,2514,1290,-4,2,0,1
26218,-6982,2514,1294,-4,3,0,1
26223,-6988,2516,1301,-4,4,0,1
26228,-6992,2518,1307,-4,5,0,1
26233,-6992,2520,1301,-4,6,0,1
26238,-6992,2522,1295,-4,6,0,1
26243,-6993,2521,1282,-4,6,0,1
26248,-6987,2521,1267,-4,5,0,1
26253,-6986,2519,1243,-4,4,0,1
26258,-6989,2518,1224,-4,3,0,1
26263,-6988,2516,1207,-4,2,0,1
26268,-6984,2513,1197,-4,0,0,1
26273,-6991,2509,1185,-4,-1,0,1
26278,-7002,2504,1183,-4,-1,0,1
26283,-7010,2508,1188,-4,0,0,1
