millis,ax,ay,az,gx,gy,gz,label
3998,8169,265,592,-4,-2,0,0
4003,8175,265,594,-4,-2,0,1
4009,8178,263,596,-4,-2,0,1
4013,8177,265,602,-4,-2,0,1
4018,8176,264,608,-4,-2,0,1
4023,8174,264,611,-4,-2,0,1
4028,8173,264,608,-4,-2,0,1
4033,8171,264,605,-4,-2,0,1
4038,8167,263,604,-4,-2,0,1
4043,8167,266,608,-4,-2,0,1
4049,8168,268,610,-4,-2,0,1
4054,8170,267,609,-4,-2,0,1
4059,8172,266,607,-4,-2,0,1
4064,8175,264,603,-4,-2,0,1
4069,8179,263,599,-4,-2,0,1
4074,8179,266,599,-4,-2,0,1
4079,8175,266,602,-4,-2,0,1
4084,8175,268,609,-4,-2,0,1
4089,8175,268,608,-4,-2,0,1
4094,8174,268,607,-4,-2,0,1
4099,8171,267,605,-4,-2,0,1
4104,8172,264,607,-4,-2,0,1
4109,8176,263,610,-4,-2,0,1
4114,8181,265,610,-4,-2,0,1
4119,8182,264,616,-4,-2,0,1
4124,8182,262,617,-4,-2,0,1
4129,8183,259,618,-4,-2,0,1
4134,8186,259,618,-4,-2,0,1
4139,8185,260,622,-4,-2,0,1
4144,8181,262,622,-4,-2,0,1
4149,8178,264,621,-4,-2,0,1
4154,8176,264,618,-4,-2,0,1
4159,8176,264,615,-4,-2,0,1
4164,8177,263,609,-4,-2,0,1
4169,8179,260,606,-4,-2,0,1
4174,8181,258,607,-4,-2,0,1
4179,8182,259,607,-4,-2,0,1
4184,8184,261,608,-4,-2,0,1
4189,8183,260,608,-4,-2,0,1
4194,8182,261,610,-4,-2,0,1
4199,8178,262,609,-4,-2,0,1
4204,8178,259,610,-4,-2,0,1
4209,8178,259,612,-4,-2,0,1
4214,8177,256,611,-4,-2,0,1
4219,8176,255,607,-4,-2,0,1
4224,8178,254,608,-4,-2,0,1
4229,8180,253,608,-4,-2,0,1
4234,8180,253,608,-4,-2,0,1
4239,8181,253,608,-4,-2,0,1
4244,8186,253,605,-4,-2,0,1
4249,8184,255,599,-4,-2,0,1
4254,8183,256,598,-4,-2,0,1
4259,8181,257,599,-4,-2,0,1
4264,8180,258,600,-4,-2,0,1
4269,8178,257,605,-4,-2,0,1
4274,8177,258,611,-4,-2,0,1
4279,8179,259,610,-4,-2,0,1
4284,8183,261,610,-4,-2,0,1
4289,8185,260,612,-4,-2,0,1
4294,8188,260,612,-4,-2,0,1
4299,8189,261,614,-4,-2,0,1
4304,8188,264,613,-4,-2,0,1
4309,8183,265,608,-4,-2,0,1
4314,8181,265,608,-4,-2,0,1
4319,8180,265,603,-4,-2,0,1
4324,8179,264,600,-4,-2,0,1
4329,8180,263,601,-4,-2,0,1
4334,8179,263,605,-4,-2,0,1
4339,8177,264,605,-4,-2,0,1
4344,8176,265,608,-4,-2,0,1
4349,8177,267,610,-4,-2,0,1
4354,8177,269,607,-4,-2,0,1
4359,8178,269,603,-4,-2,0,1
4364,8176,269,603,-4,-2,0,1
4369,8175,266,601,-4,-2,0,1
4374,8175,263,600,-4,-2,0,1
4379,8175,264,607,-4,-2,0,1
4384,8174,262,606,-4,-2,0,1
4389,8174,261,605,-4,-2,0,1
4394,8174,260,605,-4,-2,0,1
4399,8175,263,608,-4,-2,0,1
4404,8174,265,611,-4,-2,0,1
4409,8177,265,613,-4,-2,0,1
4414,8176,265,613,-4,-2,0,1
4419,8173,263,613,-4,-2,0,1
4424,8175,264,608,-4,-2,0,1
4429,8179,265,604,-4,-2,0,1
4434,8180,264,604,-4,-2,0,1
4439,8181,263,603,-4,-2,0,1
4444,8182,261,604,-4,-2,0,1
4449,8182,260,604,-4,-2,0,1
4454,8181,261,604,-4,-2,0,1
4459,8182,260,605,-4,-2,0,1
4464,8185,259,603,-4,-2,0,1
4469,8184,261,599,-4,-2,0,1
4474,8185,262,597,-4,-2,0,1
4479,8184,262,595,-4,-2,0,1
4484,8182,261,600,-4,-2,0,1
4489,8180,261,600,-4,-2,0,1
4494,8183,261,600,-4,-2,0,1
4499,8185,261,601,-4,-2,0,1
4504,8186,261,604,-4,-2,0,1
4509,8187,261,604,-4,-2,0,1
4514,8189,263,607,-4,-2,0,1
4519,8189,262,611,-4,-2,0,1
4524,8186,262,610,-4,-2,0,1
4529,8187,264,613,-4,-2,0,1
4534,8189,264,612,-4,-2,0,1
4539,8186,265,614,-4,-2,0,1
4544,8185,263,611,-4,-2,0,1
4549,8185,266,609,-4,-2,0,1
4554,8183,267,608,-4,-2,0,1
4559,8178,267,604,-4,-2,0,1
4564,8178,269,604,-4,-2,0,1
4569,8180,271,606,-4,-2,0,1
4574,8181,270,604,-4,-2,0,1
4579,8181,269,600,-4,-2,0,1
4585,8180,269,600,-4,-2,0,1
4590,8177,270,600,-4,-2,0,1
4594,8177,270,604,-4,-2,0,1
4599,8178,270,604,-4,-2,0,1
4605,8175,270,603,-4,-2,0,1
4610,8175,269,603,-4,-2,0,1
4615,8177,267,603,-4,-2,0,1
4620,8179,270,607,-4,-2,0,1
4624,8178,269,610,-4,-2,0,1
4630,8177,265,616,-4,-2,0,1
4635,8174,263,612,-4,-2,0,1
4640,8174,266,611,-4,-2,0,1
4645,8176,268,611,-4,-2,0,1
4650,8178,269,614,-4,-2,0,1
4655,8177,265,615,-4,-2,0,1
4660,8173,263,618,-4,-2,0,1
4665,8174,261,614,-4,-2,0,1
4670,8174,261,611,-4,-2,0,1
4675,8177,259,610,-4,-2,0,1
4680,8178,256,611,-4,-2,0,1
4685,8179,255,611,-4,-2,0,1
4690,8179,254,611,-4,-2,0,1
4695,8178,254,607,-4,-2,0,1
4700,8175,255,604,-4,-2,0,1
4705,8171,255,604,-4,-2,0,1
4710,8171,254,601,-4,-2,0,1
4715,8172,254,603,-4,-2,0,1
4720,8172,255,604,-4,-2,0,1
4725,8173,258,607,-4,-2,0,1
4730,8176,259,604,-4,-2,0,1
4735,8178,260,609,-4,-2,0,1
4740,8181,259,611,-4,-2,0,1
4745,8180,260,612,-4,-2,0,1
4750,8180,258,614,-4,-2,0,1
4755,8181,257,614,-4,-2,0,1
4760,8176,257,617,-4,-2,0,1
4765,8173,258,617,-4,-2,0,1
4770,8174,260,615,-4,-2,0,1
4775,8174,263,615,-4,-2,0,1
4780,8175,265,615,-4,-2,0,1
4785,8177,265,613,-4,-2,0,1
4790,8177,264,610,-4,-2,0,1
4795,8176,263,609,-4,-2,0,1
4800,8178,264,607,-4,-2,0,1
4805,8177,266,609,-4,-2,0,1
4810,8174,265,612,-4,-2,0,1
4815,8168,266,609,-4,-2,0,1
4820,8168,269,608,-4,-2,0,1
4825,8171,268,604,-4,-2,0,1
4830,8174,266,605,-4,-2,0,1
4835,8176,264,603,-4,-2,0,1
4840,8176,262,603,-4,-2,0,1
4845,8178,262,603,-4,-2,0,1
4850,8178,261,603,-4,-2,0,1
4855,8180,263,606,-4,-2,0,1
4860,8180,262,607,-4,-2,0,1
4865,8183,261,606,-4,-2,0,1
4870,8180,257,605,-4,-2,0,1
4875,8179,256,604,-4,-2,0,1
4880,8179,258,608,-4,-2,0,1
4885,8179,259,607,-4,-2,0,1
4890,8180,259,606,-4,-2,0,1
4895,8181,260,610,-4,-2,0,1
4900,8181,262,617,-4,-2,0,1
4905,8181,266,619,-4,-2,0,1
4910,8183,269,621,-4,-2,0,1
4915,8185,270,622,-4,-2,0,1
4920,8186,270,621,-4,-2,0,1
4925,8186,270,618,-4,-2,0,1
4930,8185,269,609,-4,-2,0,1
4935,8183,267,607,-4,-2,0,1
4940,8181,268,607,-4,-2,0,1
4945,8179,270,606,-4,-2,0,1
4950,8178,271,605,-4,-2,0,1
4955,8177,271,605,-4,-2,0,1
4960,8176,273,606,-4,-2,0,1
4965,8178,274,607,-4,-2,0,1
4970,8177,272,610,-4,-2,0,1
4975,8179,272,608,-4,-2,0,1
4980,8178,272,607,-4,-2,0,1
4985,8180,272,611,-4,-2,0,1
4990,8178,270,610,-4,-2,0,1
4995,8177,267,608,-4,-2,0,1
5000,8174,264,609,-4,-2,0,1
5005,8174,263,612,-4,-2,0,1
5010,8173,262,614,-4,-2,0,1
5015,8171,265,614,-4,-2,0,1
5020,8171,265,613,-4,-2,0,1
5025,8172,266,609,-4,-2,0,1
5030,8173,268,611,-4,-2,0,1
5035,8177,267,612,-4,-2,0,1
5040,8179,269,618,-4,-2,0,1
5045,8181,267,621,-4,-2,0,1
5050,8181,266,622,-4,-2,0,1
5055,8179,265,621,-4,-2,0,1
5060,8179,269,621,-4,-2,0,1
5065,8180,272,622,-4,-2,0,1
5070,8178,270,622,-4,-2,0,1
5075,8181,266,618,-4,-2,0,1
5080,8180,263,618,-4,-2,0,1
5085,8181,262,620,-4,-2,0,1
5090,8183,261,620,-4,-2,0,1
5095,8181,261,618,-4,-2,0,1
5100,8181,262,617,-4,-2,0,1
5105,8182,261,615,-4,-2,0,1
5110,8183,258,614,-4,-2,0,1
5115,8178,255,615,-4,-2,0,1
5120,8175,255,616,-4,-2,0,1
5125,8174,257,618,-4,-2,0,1
5130,8175,257,620,-4,-2,0,1
5135,8178,260,619,-4,-2,0,1
5141,8179,259,621,-4,-2,0,1
5145,8177,259,624,-4,-2,0,1
5150,8175,258,623,-4,-2,0,1
5155,8176,257,622,-4,-2,0,1
5161,8179,256,618,-4,-2,0,1
5166,8179,257,612,-4,-2,0,1
5171,8180,258,612,-4,-2,0,1
5176,8179,256,615,-4,-2,0,1
5181,8178,255,618,-4,-2,0,1
5186,8177,255,618,-4,-2,0,1
5191,8181,253,619,-4,-2,0,1
5196,8180,256,616,-4,-2,0,1
5201,8180,259,617,-4,-2,0,1
5206,8182,261,618,-4,-2,0,1
5211,8182,263,618,-4,-2,0,1
5216,8186,261,615,-4,-2,0,1
5221,8185,260,614,-4,-2,0,1
5226,8183,259,614,-4,-2,0,1
5231,8180,257,610,-4,-2,0,1
5236,8177,257,612,-4,-2,0,1
5241,8174,258,611,-4,-2,0,1
5246,8175,261,610,-4,-2,0,1
5251,8175,263,610,-4,-2,0,1
5256,8175,266,612,-4,-2,0,1
5261,8171,268,613,-4,-2,0,1
5266,8170,270,616,-4,-2,0,1
5271,8172,268,614,-4,-2,0,1
5276,8173,266,611,-4,-2,0,1
5281,8173,265,610,-4,-2,0,1
5286,8176,263,609,-4,-2,0,1
5291,8178,260,611,-4,-2,0,1
5296,8176,260,610,-4,-2,0,1
5301,8176,260,609,-4,-2,0,1
5306,8177,264,609,-4,-2,0,1
5311,8176,266,607,-4,-2,0,1
5316,8175,265,606,-4,-2,0,1
5321,8174,264,600,-4,-2,0,1
5326,8178,263,595,-4,-2,0,1
5331,8177,263,596,-4,-2,0,1
5336,8177,261,596,-4,-2,0,1
5341,8179,261,602,-4,-2,0,1
5346,8177,259,607,-4,-2,0,1
5351,8175,260,611,-4,-2,0,1
5356,8171,258,611,-4,-2,0,1
5361,8170,256,612,-4,-2,0,1
5366,8169,258,612,-4,-2,0,1
5371,8168,258,613,-4,-2,0,1
5376,8167,256,616,-4,-2,0,1
5381,8169,257,614,-4,-2,0,1
5386,8169,259,611,-4,-2,0,1
5391,8175,263,610,-4,-2,0,1
5396,8177,262,610,-4,-2,0,1
5401,8181,261,611,-4,-2,0,1
5406,8179,259,610,-4,-2,0,1
5411,8180,258,609,-4,-2,0,1
5416,8181,258,609,-4,-2,0,1
5421,8179,260,606,-4,-2,0,1
5426,8180,263,607,-4,-2,0,1
5431,8181,264,601,-4,-2,0,1
5436,8180,262,600,-4,-2,0,1
5441,8180,261,600,-4,-2,0,1
5446,8182,259,606,-4,-2,0,1
5451,8180,261,606,-4,-2,0,1
5456,8177,260,608,-4,-2,0,1
5461,8173,261,608,-4,-2,0,1
5466,8171,261,607,-4,-2,0,1
5471,8172,263,604,-4,-2,0,1
5476,8173,264,604,-4,-2,0,1
5481,8177,264,605,-4,-2,0,1
5486,8176,261,605,-4,-2,0,1
5491,8175,259,607,-4,-2,0,1
5496,8174,260,607,-4,-2,0,1
5501,8174,263,604,-4,-2,0,1
5506,8174,262,603,-4,-2,0,1
5511,8174,261,606,-4,-2,0,1
5516,8175,262,609,-4,-2,0,1
5521,8174,265,607,-4,-2,0,1
5526,8177,262,609,-4,-2,0,1
5531,8180,262,612,-4,-2,0,1
5536,8184,264,610,-4,-2,0,1
5541,8187,266,610,-4,-2,0,1
5546,8189,265,609,-4,-2,0,1
5551,8188,266,605,-4,-2,0,1
5556,8186,267,603,-4,-2,0,1
5561,8184,268,602,-4,-2,0,1
5566,8182,268,606,-4,-2,0,1
5571,8179,267,606,-4,-2,0,1
5576,8178,263,605,-4,-2,0,1
5581,8179,261,601,-4,-2,0,1
5586,8182,261,602,-4,-2,0,1
5591,8180,260,605,-4,-2,0,1
5596,8180,261,608,-4,-2,0,1
5601,8178,261,612,-4,-2,0,1
5606,8177,262,611,-4,-2,0,1
5611,8180,262,607,-4,-2,0,1
5616,8183,262,607,-4,-2,0,1
5621,8185,264,604,-4,-2,0,1
5626,8182,261,605,-4,-2,0,1
5631,8180,262,608,-4,-2,0,1
5636,8179,265,607,-4,-2,0,1
5641,8182,267,605,-4,-2,0,1
5646,8181,266,606,-4,-2,0,1
5651,8180,265,608,-4,-2,0,1
5656,8180,265,606,-4,-2,0,1
5662,8180,269,607,-4,-2,0,1
5666,8181,269,610,-4,-2,0,1
5672,8180,270,612,-4,-2,0,1
5676,8179,268,614,-4,-2,0,1
5681,8179,267,617,-4,-2,0,1
5687,8180,269,619,-4,-2,0,1
5692,8176,269,618,-4,-2,0,1
5697,8178,267,618,-4,-2,0,1
5702,8180,265,615,-4,-2,0,1
5707,8180,265,618,-4,-2,0,1
5712,8183,265,619,-4,-2,0,1
5717,8185,263,619,-4,-2,0,1
5722,8185,261,618,-4,-2,0,1
5727,8187,260,614,-4,-2,0,1
5732,8185,262,616,-4,-2,0,1
5737,8182,263,618,-4,-2,0,1
5742,8178,263,616,-4,-2,0,1
5747,8177,264,613,-4,-2,0,1
5752,8177,261,610,-4,-2,0,1
5757,8179,258,608,-4,-2,0,1
5762,8176,258,611,-4,-2,0,1
5767,8178,262,615,-4,-2,0,1
5772,8178,263,612,-4,-2,0,1
5777,8178,262,614,-4,-2,0,1
5782,8180,262,615,-4,-2,0,1
5787,8182,264,613,-4,-2,0,1
5792,8185,266,608,-4,-2,0,1
5797,8184,265,607,-4,-2,0,1
5802,8181,264,605,-4,-2,0,1
5807,8180,261,608,-4,-2,0,1
5812,8178,259,608,-4,-2,0,1
5817,8179,262,610,-4,-2,0,1
5822,8184,262,612,-4,-2,0,1
5827,8185,263,612,-4,-2,0,1
5832,8183,263,611,-4,-2,0,1
5837,8184,264,612,-4,-2,0,1
5842,8181,265,612,-4,-2,0,1
5847,8179,262,612,-4,-2,0,1
5852,8179,257,609,-4,-2,0,1
5857,8179,256,608,-4,-2,0,1
5862,8181,259,608,-4,-2,0,1
5867,8182,260,608,-4,-2,0,1
5872,8185,261,605,-4,-2,0,1
5877,8184,261,607,-4,-2,0,1
5882,8181,262,604,-4,-2,0,1
5887,8180,261,606,-4,-2,0,1
5892,8182,262,607,-4,-2,0,1
5897,8185,264,608,-4,-2,0,1
5902,8186,266,607,-4,-2,0,1
5907,8185,266,604,-4,-2,0,1
5912,8186,265,605,-4,-2,0,1
5917,8188,265,609,-4,-2,0,1
5922,8187,263,607,-4,-2,0,1
5927,8188,261,605,-4,-2,0,1
5932,8186,265,602,-4,-2,0,1
5937,8185,267,609,-4,-2,0,1
5942,8183,266,615,-4,-2,0,1
5947,8183,264,617,-4,-2,0,1
5952,8186,262,617,-4,-2,0,1
5957,8187,260,617,-4,-2,0,1
5962,8184,260,610,-4,-2,0,1
5967,8184,259,608,-4,-2,0,1
5972,8183,259,610,-4,-2,0,1
5977,8182,261,612,-4,-2,0,1
5982,8185,264,611,-4,-2,0,1
5987,8185,265,613,-4,-2,0,1
5992,8183,264,613,-4,-2,0,1
5997,8181,267,614,-4,-2,0,1
6002,8183,271,615,-4,-2,0,1
6007,8183,270,617,-4,-2,0,1
6012,8184,269,618,-4,-2,0,1
6017,8183,268,623,-4,-2,0,1
6022,8183,267,621,-4,-2,0,1
6027,8180,268,618,-4,-2,0,1
6032,8180,268,616,-4,-2,0,1
6037,8183,269,618,-4,-2,0,1
6042,8185,267,617,-4,-2,0,1
6047,8184,269,616,-4,-2,0,1
6052,8181,267,613,-4,-2,0,1
6057,8180,264,612,-4,-2,0,1
6062,8179,261,609,-4,-2,0,1
6067,8175,261,608,-4,-2,0,1
6072,8177,264,606,-4,-2,0,1
6077,8179,264,607,-4,-2,0,1
6082,8180,264,605,-4,-2,0,1
6087,8181,260,605,-4,-2,0,1
6092,8181,259,601,-4,-2,0,1
6097,8182,261,597,-4,-2,0,1
6102,8183,261,602,-4,-2,0,1
6107,8181,263,602,-4,-2,0,1
6112,8180,264,602,-4,-2,0,1
6117,8180,261,603,-4,-2,0,1
6122,8181,261,608,-4,-2,0,1
6127,8181,262,611,-4,-2,0,1
6132,8180,260,614,-4,-2,0,1
6137,8178,256,613,-4,-2,0,1
6142,8178,255,615,-4,-2,0,1
6147,8180,256,617,-4,-2,0,1
6152,8180,255,617,-4,-2,0,1
6157,8182,255,617,-4,-2,0,1
6162,8180,255,614,-4,-2,0,1
6167,8181,255,617,-4,-2,0,1
6172,8183,259,618,-4,-2,0,1
6177,8181,259,614,-4,-2,0,1
6182,8180,258,615,-4,-2,0,1
6187,8176,259,613,-4,-2,0,1
6192,8177,259,613,-4,-2,0,1
6197,8178,261,612,-4,-2,0,1
6202,8178,262,610,-4,-2,0,1
6208,8178,261,604,-4,-2,0,1
6213,8181,260,603,-4,-2,0,1
6217,8182,260,599,-4,-2,0,1
6222,8181,261,600,-4,-2,0,1
6227,8184,261,603,-4,-2,0,1
6232,8184,263,598,-4,-2,0,1
6238,8184,266,597,-4,-2,0,1
6243,8182,267,597,-4,-2,0,1
6248,8179,265,600,-4,-2,0,1
6253,8178,261,598,-4,-2,0,1
6258,8181,259,594,-4,-2,0,1
6263,8183,257,597,-4,-2,0,1
6268,8184,258,597,-4,-2,0,1
6273,8181,257,597,-4,-2,0,1
6278,8181,256,597,-4,-2,0,1
6283,8182,258,601,-4,-2,0,1
6288,8183,258,603,-4,-2,0,1
6293,8182,256,606,-4,-2,0,1
6298,8178,257,606,-4,-2,0,1
6303,8177,258,609,-4,-2,0,1
6308,8175,262,610,-4,-2,0,1
6313,8174,261,610,-4,-2,0,1
6318,8172,259,608,-4,-2,0,1
6323,8175,260,608,-4,-2,0,1
6328,8177,262,610,-4,-2,0,1
6333,8177,261,612,-4,-2,0,1
6338,8178,259,612,-4,-2,0,1
6343,8181,259,611,-4,-2,0,1
6348,8181,260,609,-4,-2,0,1
6353,8183,260,608,-4,-2,0,1
6358,8184,260,611,-4,-2,0,1
6363,8185,257,611,-4,-2,0,1
6368,8184,257,611,-4,-2,0,1
6373,8183,258,615,-4,-2,0,1
6378,8184,261,616,-4,-2,0,1
6383,8182,261,617,-4,-2,0,1
6388,8182,263,615,-4,-2,0,1
6393,8179,264,614,-4,-2,0,1
6398,8180,266,614,-4,-2,0,1
6403,8181,266,609,-4,-2,0,1
6408,8184,263,609,-4,-2,0,1
6413,8184,263,615,-4,-2,0,1
6418,8183,263,615,-4,-2,0,1
6423,8183,262,612,-4,-2,0,1
6428,8181,264,611,-4,-2,0,1
6433,8181,263,611,-4,-2,0,1
6438,8175,266,613,-4,-2,0,1
6443,8170,264,617,-4,-2,0,1
6448,8173,261,619,-4,-2,0,1
6453,8173,261,622,-4,-2,0,1
6458,8175,263,617,-4,-2,0,1
6463,8178,263,613,-4,-2,0,1
6468,8179,261,613,-4,-2,0,1
6473,8180,260,613,-4,-2,0,1
6478,8180,264,614,-4,-2,0,1
6483,8180,265,610,-4,-2,0,1
6488,8176,267,611,-4,-2,0,1
6493,8174,266,610,-4,-2,0,1
6498,8176,267,612,-4,-2,0,1
6503,8176,266,615,-4,-2,0,1
6508,8175,263,615,-4,-2,0,1
6513,8174,262,610,-4,-2,0,1
6518,8173,263,604,-4,-2,0,1
6523,8171,261,604,-4,-2,0,1
6528,8170,261,605,-4,-2,0,1
6533,8174,264,605,-4,-2,0,1
6538,8174,264,603,-4,-2,0,1
6543,8173,264,604,-4,-2,0,1
6548,8172,263,603,-4,-2,0,1
6553,8171,263,606,-4,-2,0,1
6558,8172,262,603,-4,-2,0,1
6563,8174,261,602,-4,-2,0,1
6568,8177,262,602,-4,-2,0,1
6573,8176,265,606,-4,-2,0,1
6578,8176,268,601,-4,-2,0,1
6583,8177,267,604,-4,-2,0,1
6588,8177,264,604,-4,-2,0,1
6593,8180,264,603,-4,-2,0,1
6598,8178,265,603,-4,-2,0,1
6603,8179,265,601,-4,-2,0,1
6608,8180,265,602,-4,-2,0,1
6613,8180,265,603,-4,-2,0,1
6618,8180,264,609,-4,-2,0,1
6623,8181,262,613,-4,-2,0,1
6628,8182,263,609,-4,-2,0,1
6633,8185,266,606,-4,-2,0,1
6638,8184,264,605,-4,-2,0,1
6643,8188,263,607,-4,-2,0,1
6648,8190,264,612,-4,-2,0,1
6653,8192,265,615,-4,-2,0,1
6658,8190,263,615,-4,-2,0,1
6663,8186,261,618,-4,-2,0,1
6668,8182,261,617,-4,-2,0,1
6673,8181,260,617,-4,-2,0,1
6678,8181,258,616,-4,-2,0,1
6683,8179,258,614,-4,-2,0,1
6688,8179,259,606,-4,-2,0,1
6693,8179,258,598,-4,-2,0,1
6698,8178,260,599,-4,-2,0,1
6703,8176,262,606,-4,-2,0,1
6708,8179,263,609,-4,-2,0,1
6713,8178,264,608,-4,-2,0,1
6718,8180,264,602,-4,-2,0,1
6723,8180,263,603,-4,-2,0,1
6728,8179,264,602,-4,-2,0,1
6733,8181,264,599,-4,-2,0,1
6738,8184,262,598,-4,-2,0,1
6744,8185,260,599,-4,-2,0,1
6748,8186,259,600,-4,-2,0,1
6754,8184,261,601,-4,-2,0,1
6758,8182,263,603,-4,-2,0,1
6764,8182,264,602,-4,-2,0,1
6769,8179,262,607,-4,-2,0,1
6774,8182,261,609,-4,-2,0,1
6779,8182,263,613,-4,-2,0,1
6784,8179,263,613,-4,-2,0,1
6789,8177,264,614,-4,-2,0,1
6794,8177,263,617,-4,-2,0,1
6799,8176,263,621,-4,-2,0,1
6804,8172,262,619,-4,-2,0,1
6809,8171,261,620,-4,-2,0,1
6814,8171,262,623,-4,-2,0,1
6819,8168,261,622,-4,-2,0,1
6824,8170,261,618,-4,-2,0,1
6829,8172,261,617,-4,-2,0,1
6834,8173,260,618,-4,-2,0,1
6839,8174,258,618,-4,-2,0,1
6844,8176,259,620,-4,-2,0,1
6849,8178,260,619,-4,-2,0,1
6854,8181,260,616,-4,-2,0,1
6859,8183,261,612,-4,-2,0,1
6864,8182,261,610,-4,-2,0,1
6869,8183,261,609,-4,-2,0,1
6874,8182,261,605,-4,-2,0,1
6879,8179,260,609,-4,-2,0,1
6884,8176,262,608,-4,-2,0,1
6889,8175,262,608,-4,-2,0,1
6894,8174,259,607,-4,-2,0,1
6899,8175,258,605,-4,-2,0,1
6904,8174,256,601,-4,-2,0,1
6909,8171,255,601,-4,-2,0,1
6914,8170,255,603,-4,-2,0,1
6919,8168,254,603,-4,-2,0,1
6924,8167,254,603,-4,-2,0,1
6929,8165,258,604,-4,-2,0,1
6934,8164,257,606,-4,-2,0,1
6939,8165,258,609,-4,-2,0,1
6944,8165,257,607,-4,-2,0,1
6949,8167,261,606,-4,-2,0,1
6954,8170,265,607,-4,-2,0,1
6959,8171,266,610,-4,-2,0,1
6964,8172,268,610,-4,-2,0,1
6969,8172,270,611,-4,-2,0,1
6974,8170,270,610,-4,-2,0,1
6979,8171,268,609,-4,-2,0,1
6984,8170,266,612,-4,-2,0,1
6989,8169,263,619,-4,-2,0,1
6994,8172,261,624,-4,-2,0,1
6999,8176,260,622,-4,-2,0,1
7004,8181,260,620,-4,-2,0,1
7009,8180,263,619,-4,-2,0,1
7014,8181,263,621,-4,-2,0,1
7019,8182,262,621,-4,-2,0,1
7024,8181,261,616,-4,-2,0,1
7029,8180,261,616,-4,-2,0,1
7034,8181,266,615,-4,-2,0,1
7039,8180,268,616,-4,-2,0,1
7044,8179,268,617,-4,-2,0,1
7049,8178,265,614,-4,-2,0,1
7054,8175,265,612,-4,-2,0,1
7059,8172,264,612,-4,-2,0,1
7064,8170,263,618,-4,-2,0,1
7069,8171,264,620,-4,-2,0,1
7074,8174,263,625,-4,-2,0,1
7079,8178,264,623,-4,-2,0,1
7084,8180,260,622,-4,-2,0,1
7089,8180,259,626,-4,-2,0,1
7094,8178,259,624,-4,-2,0,1
7099,8177,259,625,-4,-2,0,1
7104,8177,258,621,-4,-2,0,1
7109,8180,261,619,-4,-2,0,1
7114,8180,262,616,-4,-2,0,1
7119,8179,261,618,-4,-2,0,1
7124,8177,263,616,-4,-2,0,1
7129,8176,262,617,-4,-2,0,1
7134,8174,261,617,-4,-2,0,1
7139,8175,263,622,-4,-2,0,1
7144,8176,264,622,-4,-2,0,1
7149,8175,263,621,-4,-2,0,1
7154,8176,260,622,-4,-2,0,1
7159,8178,259,618,-4,-2,0,1
7164,8178,259,612,-4,-2,0,1
7169,8176,262,615,-4,-2,0,1
7174,8178,263,618,-4,-2,0,1
7179,8179,262,619,-4,-2,0,1
7184,8175,264,618,-4,-2,0,1
7189,8174,263,615,-4,-2,0,1
7194,8174,263,613,-4,-2,0,1
7199,8178,262,609,-4,-2,0,1
7204,8180,262,612,-4,-2,0,1
7209,8181,262,613,-4,-2,0,1
7214,8183,263,610,-4,-2,0,1
7219,8183,263,608,-4,-2,0,1
7224,8182,262,607,-4,-2,0,1
7229,8181,263,608,-4,-2,0,1
7234,8179,262,611,-4,-2,0,1
7239,8179,262,613,-4,-2,0,1
7244,8181,263,613,-4,-2,0,1
7249,8181,264,612,-4,-2,0,1
7254,8184,266,613,-4,-2,0,1
7259,8186,268,617,-4,-2,0,1
7264,8186,267,616,-4,-2,0,1
7269,8183,267,618,-4,-2,0,1
7274,8180,267,614,-4,-2,0,1
7280,8180,271,612,-4,-2,0,1
7285,8181,271,610,-4,-2,0,1
7290,8181,270,610,-4,-2,0,1
7295,8182,269,609,-4,-2,0,1
7299,8183,270,611,-4,-2,0,1
7305,8182,268,610,-4,-2,0,1
7309,8183,266,615,-4,-2,0,1
7315,8180,266,613,-4,-2,0,1
7320,8180,267,613,-4,-2,0,1
7325,8183,267,618,-4,-2,0,1
7330,8186,266,624,-4,-2,0,1
7335,8184,264,629,-4,-2,0,1
7340,8182,264,630,-4,-2,0,1
7345,8183,265,628,-4,-2,0,1
7350,8186,265,624,-4,-2,0,1
7355,8190,264,623,-4,-2,0,1
7360,8192,264,622,-4,-2,0,1
7365,8190,262,622,-4,-2,0,1
7370,8188,263,619,-4,-2,0,1
7375,8184,266,620,-4,-2,0,1
7380,8181,268,617,-4,-2,0,1
7385,8177,266,615,-4,-2,0,1
7390,8175,266,620,-4,-2,0,1
7395,8176,267,622,-4,-2,0,1
7400,8179,268,623,-4,-2,0,1
7405,8183,267,621,-4,-2,0,1
7410,8182,269,618,-4,-2,0,1
7415,8182,266,615,-4,-2,0,1
7420,8181,268,615,-4,-2,0,1
7425,8180,270,613,-4,-2,0,1
7430,8182,272,610,-4,-2,0,1
7435,8183,268,612,-4,-2,0,1
7440,8184,263,612,-4,-2,0,1
7445,8181,260,612,-4,-2,0,1
7450,8181,260,613,-4,-2,0,1
7455,8181,260,610,-4,-2,0,1
7460,8181,261,604,-4,-2,0,1
7465,8182,262,603,-4,-2,0,1
7470,8179,262,601,-4,-2,0,1
7475,8180,262,604,-4,-2,0,1
7480,8180,264,604,-4,-2,0,1
7485,8178,262,604,-4,-2,0,1
7490,8176,262,601,-4,-2,0,1
7495,8176,265,602,-4,-2,0,1
7500,8176,265,603,-4,-2,0,1
7505,8175,263,605,-4,-2,0,1
7510,8175,265,606,-4,-2,0,1
7515,8176,263,608,-4,-2,0,1
7520,8176,262,606,-4,-2,0,1
7525,8176,263,607,-4,-2,0,1
7530,8177,264,607,-4,-2,0,1
7535,8179,266,606,-4,-2,0,1
7540,8178,266,603,-4,-2,0,1
7545,8179,265,601,-4,-2,0,1
7550,8177,264,603,-4,-2,0,1
7555,8177,264,603,-4,-2,0,1
7560,8175,264,607,-4,-2,0,1
7565,8177,268,603,-4,-2,0,1
7570,8177,269,605,-4,-2,0,1
7575,8177,269,603,-4,-2,0,1
7580,8178,268,603,-4,-2,0,1
7585,8179,264,605,-4,-2,0,1
7590,8179,265,607,-4,-2,0,1
7595,8178,264,605,-4,-2,0,1
7600,8177,262,606,-4,-2,0,1
7605,8175,262,604,-4,-2,0,1
7610,8175,264,605,-4,-2,0,1
7615,8174,265,604,-4,-2,0,1
7620,8177,266,605,-4,-2,0,1
7625,8178,265,609,-4,-2,0,1
7630,8178,266,606,-4,-2,0,1
7635,8179,268,608,-4,-2,0,1
7640,8182,270,609,-4,-2,0,1
7645,8181,269,614,-4,-2,0,1
7650,8182,266,613,-4,-2,0,1
7655,8183,265,611,-4,-2,0,1
7660,8179,264,614,-4,-2,0,1
7665,8179,264,612,-4,-2,0,1
7670,8180,262,613,-4,-2,0,1
7675,8179,261,614,-4,-2,0,1
7680,8178,259,612,-4,-2,0,1
7685,8180,258,607,-4,-2,0,1
7690,8181,258,605,-4,-2,0,1
7695,8178,257,604,-4,-2,0,1
7700,8178,255,603,-4,-2,0,1
7705,8177,256,606,-4,-2,0,1
7710,8174,258,604,-4,-2,0,1
7715,8175,258,602,-4,-2,0,1
7720,8176,255,599,-4,-2,0,1
7725,8179,253,597,-4,-2,0,1
7730,8179,254,600,-4,-2,0,1
7735,8179,253,600,-4,-2,0,1
7740,8178,254,599,-4,-2,0,1
7745,8176,256,600,-4,-2,0,1
7750,8178,255,601,-4,-2,0,1
7755,8181,258,599,-4,-2,0,1
7760,8181,260,597,-4,-2,0,1
7765,8179,260,599,-4,-2,0,1
7770,8176,260,603,-4,-2,0,1
7775,8177,260,602,-4,-2,0,1
7780,8176,263,605,-4,-2,0,1
7785,8174,265,610,-4,-2,0,1
7790,8173,263,609,-4,-2,0,1
7795,8174,261,612,-4,-2,0,1
7801,8174,261,610,-4,-2,0,1
7805,8175,261,607,-4,-2,0,1
7811,8173,261,605,-4,-2,0,1
7816,8172,260,607,-4,-2,0,1
7821,8172,257,610,-4,-2,0,1
7826,8171,258,608,-4,-2,0,1
7831,8171,259,606,-4,-2,0,1
7836,8171,260,605,-4,-2,0,1
7840,8171,259,604,-4,-2,0,1
7846,8172,260,603,-4,-2,0,1
7851,8177,262,603,-4,-2,0,1
7856,8181,262,607,-4,-2,0,1
7861,8181,263,610,-4,-2,0,1
7866,8181,263,611,-4,-2,0,1
7871,8180,263,611,-4,-2,0,1
7876,8178,263,611,-4,-2,0,1
7881,8179,262,611,-4,-2,0,1
7886,8180,265,612,-4,-2,0,1
7891,8179,267,613,-4,-2,0,1
7896,8181,267,610,-4,-2,0,1
7901,8182,268,609,-4,-2,0,1
7906,8179,268,608,-4,-2,0,1
7911,8178,269,612,-4,-2,0,1
7916,8181,267,612,-4,-2,0,1
7921,8182,269,613,-4,-2,0,1
7926,8181,268,611,-4,-2,0,1
7931,8181,265,615,-4,-2,0,1
7936,8178,263,618,-4,-2,0,1
7941,8178,260,616,-4,-2,0,1
7946,8180,262,613,-4,-2,0,1
7951,8182,263,612,-4,-2,0,1
7956,8180,261,610,-4,-2,0,1
7961,8178,260,607,-4,-2,0,1
7966,8179,259,608,-4,-2,0,1
7971,8182,260,609,-4,-2,0,1
7976,8184,262,611,-4,-2,0,1
7981,8183,263,612,-4,-2,0,1
7986,8183,264,609,-4,-2,0,1
7991,8183,264,607,-4,-2,0,1
7996,8183,267,612,-4,-2,0,1
8001,8184,269,615,-4,-2,0,1
8006,8183,269,617,-4,-2,0,1
8011,8183,271,616,-4,-2,0,1
8016,8182,267,616,-4,-2,0,1
8021,8182,267,615,-4,-2,0,1
8026,8183,267,613,-4,-2,0,1
8031,8183,266,613,-4,-2,0,1
8036,8186,265,612,-4,-2,0,1
8041,8185,261,611,-4,-2,0,1
8046,8182,259,610,-4,-2,0,1
8051,8183,258,608,-4,-2,0,1
8056,8183,259,603,-4,-2,0,1
8061,8184,257,601,-4,-2,0,1
8066,8184,256,604,-4,-2,0,1
8071,8185,258,611,-4,-2,0,1
8076,8185,258,613,-4,-2,0,1
8081,8183,260,612,-4,-2,0,1
8086,8183,263,616,-4,-2,0,1
8091,8182,267,613,-4,-2,0,1
8096,8178,269,610,-4,-2,0,1
8101,8177,271,609,-4,-2,0,1
8106,8179,271,608,-4,-2,0,1
8111,8179,270,607,-4,-2,0,1
8116,8180,270,603,-4,-2,0,1
8121,8180,269,603,-4,-2,0,1
8126,8184,271,600,-4,-2,0,1
8131,8184,269,601,-4,-2,0,1
8136,8182,270,604,-4,-2,0,1
8141,8179,267,606,-4,-2,0,1
8146,8181,267,607,-4,-2,0,1
8151,8179,265,606,-4,-2,0,1
8156,8179,265,603,-4,-2,0,1
8161,8184,265,604,-4,-2,0,1
8166,8184,264,604,-4,-2,0,1
8171,8186,263,607,-4,-2,0,1
8176,8184,263,609,-4,-2,0,1
8181,8179,263,611,-4,-2,0,1
8186,8174,261,608,-4,-2,0,1
8191,8172,263,611,-4,-2,0,1
8196,8170,265,610,-4,-2,0,1
8201,8170,264,606,-4,-2,0,1
8206,8169,261,603,-4,-2,0,1
8211,8170,260,598,-4,-2,0,1
8216,8170,259,599,-4,-2,0,1
8221,8169,261,602,-4,-2,0,1
8226,8170,259,604,-4,-2,0,1
8231,8172,257,604,-4,-2,0,1
8236,8174,257,604,-4,-2,0,1
8241,8175,256,605,-4,-2,0,1
8246,8178,254,603,-4,-2,0,1
8251,8174,254,600,-4,-2,0,1
8256,8171,254,598,-4,-2,0,1
8261,8169,256,599,-4,-2,0,1
8266,8169,255,599,-4,-2,0,1
8271,8170,257,605,-4,-2,0,1
8276,8175,259,604,-4,-2,0,1
8281,8176,260,608,-4,-2,0,1
8286,8177,258,608,-4,-2,0,1
8291,8178,257,610,-4,-2,0,1
8296,8175,257,610,-4,-2,0,1
8301,8175,258,608,-4,-2,0,1
8306,8176,257,607,-4,-2,0,1
8311,8177,256,612,-4,-2,0,1
8316,8176,257,616,-4,-2,0,1
8322,8175,258,614,-4,-2,0,1
8326,8179,258,614,-4,-2,0,1
8331,8182,259,615,-4,-2,0,1
8336,8183,262,613,-4,-2,0,1
8342,8182,263,615,-4,-2,0,1
8347,8179,265,613,-4,-2,0,1
8351,8181,266,615,-4,-2,0,1
8357,8181,269,612,-4,-2,0,1
8362,8181,267,609,-4,-2,0,1
8367,8179,268,609,-4,-2,0,1
8372,8175,271,610,-4,-2,0,1
8377,8173,269,611,-4,-2,0,1
8382,8171,267,612,-4,-2,0,1
8387,8175,266,610,-4,-2,0,1
8392,8178,262,604,-4,-2,0,1
8397,8181,262,605,-4,-2,0,1
8402,8184,262,605,-4,-2,0,1
8407,8182,260,606,-4,-2,0,1
8412,8185,258,602,-4,-2,0,1
8417,8187,259,599,-4,-2,0,1
8422,8185,257,599,-4,-2,0,1
8427,8185,259,601,-4,-2,0,1
8432,8188,258,604,-4,-2,0,1
8437,8188,255,611,-4,-2,0,1
8442,8183,254,613,-4,-2,0,1
8447,8182,255,612,-4,-2,0,1
8452,8184,255,612,-4,-2,0,1
8457,8185,256,614,-4,-2,0,1
8462,8186,257,613,-4,-2,0,1
8467,8189,256,613,-4,-2,0,1
8472,8190,255,611,-4,-2,0,1
8477,8187,257,609,-4,-2,0,1
8482,8185,256,609,-4,-2,0,1
8487,8180,258,608,-4,-2,0,1
8492,8179,261,610,-4,-2,0,1
8497,8180,262,614,-4,-2,0,1
8502,8181,264,612,-4,-2,0,1
8507,8180,264,608,-4,-2,0,1
8512,8179,265,604,-4,-2,0,1
8517,8175,267,604,-4,-2,0,1
8522,8174,264,604,-4,-2,0,1
8527,8172,267,604,-4,-2,0,1
8532,8170,264,603,-4,-2,0,1
8537,8173,267,606,-4,-2,0,1
8542,8176,267,605,-4,-2,0,1
8547,8178,266,604,-4,-2,0,1
8552,8180,267,605,-4,-2,0,1
8557,8181,268,606,-4,-2,0,1
8562,8183,266,606,-4,-2,0,1
8567,8182,268,607,-4,-2,0,1
8572,8182,268,607,-4,-2,0,1
8577,8181,267,609,-4,-2,0,1
8582,8180,264,611,-4,-2,0,1
8587,8179,263,612,-4,-2,0,1
8592,8178,266,614,-4,-2,0,1
8597,8180,266,614,-4,-2,0,1
8602,8179,267,617,-4,-2,0,1
8607,8177,267,619,-4,-2,0,1
8612,8177,267,626,-4,-2,0,1
8617,8176,269,626,-4,-2,0,1
8622,8173,265,623,-4,-2,0,1
8627,8170,265,624,-4,-2,0,1
8632,8172,265,621,-4,-2,0,1
8637,8171,264,621,-4,-2,0,1
8642,8169,264,617,-4,-2,0,1
8647,8169,266,619,-4,-2,0,1
8652,8170,267,620,-4,-2,0,1
8657,8172,263,620,-4,-2,0,1
8662,8173,262,614,-4,-2,0,1
8667,8175,262,613,-4,-2,0,1
8672,8177,264,610,-4,-2,0,1
8677,8179,265,611,-4,-2,0,1
8682,8179,267,616,-4,-2,0,1
8687,8178,269,614,-4,-2,0,1
8692,8181,271,610,-4,-2,0,1
8697,8184,270,604,-4,-2,0,1
8702,8183,269,603,-4,-2,0,1
8707,8184,270,604,-4,-2,0,1
8712,8185,268,601,-4,-2,0,1
8717,8182,267,605,-4,-2,0,1
8722,8178,267,605,-4,-2,0,1
8727,8180,265,604,-4,-2,0,1
8732,8183,264,608,-4,-2,0,1
8737,8183,262,611,-4,-2,0,1
8742,8181,263,612,-4,-2,0,1
8747,8182,263,610,-4,-2,0,1
8752,8185,264,615,-4,-2,0,1
8757,8187,265,616,-4,-2,0,1
8762,8182,270,613,-4,-2,0,1
8767,8182,268,614,-4,-2,0,1
8772,8182,264,612,-4,-2,0,1
8777,8183,263,614,-4,-2,0,1
8782,8181,262,613,-4,-2,0,1
8787,8181,260,616,-4,-2,0,1
8792,8180,259,619,-4,-2,0,1
8797,8180,261,622,-4,-2,0,1
8802,8181,263,627,-4,-2,0,1
8807,8179,266,624,-4,-2,0,1
8812,8180,267,622,-4,-2,0,1
8817,8182,265,620,-4,-2,0,1
8822,8184,265,618,-4,-2,0,1
8828,8180,263,618,-4,-2,0,1
8832,8183,264,616,-4,-2,0,1
8837,8181,262,616,-4,-2,0,1
8843,8181,263,617,-4,-2,0,1
8848,8181,264,618,-4,-2,0,1
8853,8182,263,618,-4,-2,0,1
8858,8180,265,619,-4,-2,0,1
8863,8175,264,617,-4,-2,0,1
8868,8174,264,615,-4,-2,0,1
8873,8175,263,613,-4,-2,0,1
8878,8174,262,612,-4,-2,0,1
8883,8173,259,613,-4,-2,0,1
8888,8176,261,615,-4,-2,0,1
8893,8181,263,610,-4,-2,0,1
8898,8186,264,608,-4,-2,0,1
8903,8184,263,611,-4,-2,0,1
8908,8181,264,605,-4,-2,0,1
8913,8177,266,606,-4,-2,0,1
8918,8175,266,610,-4,-2,0,1
8923,8176,267,607,-4,-2,0,1
8928,8177,269,606,-4,-2,0,1
8933,8177,271,609,-4,-2,0,1
8938,8177,273,611,-4,-2,0,1
8943,8182,272,612,-4,-2,0,1
8948,8186,271,615,-4,-2,0,1
8953,8186,269,616,-4,-2,0,1
8958,8187,269,619,-4,-2,0,1
8963,8185,268,618,-4,-2,0,1
8968,8185,265,619,-4,-2,0,1
8973,8180,265,623,-4,-2,0,1
8978,8178,263,621,-4,-2,0,1
8983,8178,263,616,-4,-2,0,1
8988,8178,260,614,-4,-2,0,1
8993,8180,260,611,-4,-2,0,1
8998,8180,259,611,-4,-2,0,1
9003,8178,259,609,-4,-2,0,1
9008,8175,258,603,-4,-2,0,1
9013,8177,259,600,-4,-2,0,1
9018,8178,260,597,-4,-2,0,1
9023,8180,262,597,-4,-2,0,1
9028,8183,261,594,-4,-2,0,1
9033,8184,261,592,-4,-2,0,1
9038,8184,260,595,-4,-2,0,1
9043,8185,260,596,-4,-2,0,1
9048,8184,261,595,-4,-2,0,1
9053,8181,260,592,-4,-2,0,1
9058,8178,261,593,-4,-2,0,1
9063,8178,259,597,-4,-2,0,1
9068,8182,261,599,-4,-2,0,1
9073,8180,261,600,-4,-2,0,1
9078,8180,260,604,-4,-2,0,1
9083,8181,261,606,-4,-2,0,1
9088,8181,262,604,-4,-2,0,1
9093,8181,263,606,-4,-2,0,1
9098,8183,265,605,-4,-2,0,1
9103,8183,263,603,-4,-2,0,1
9108,8182,263,602,-4,-2,0,1
9113,8180,260,603,-4,-2,0,1
9118,8177,258,606,-4,-2,0,1
9123,8177,257,610,-4,-2,0,1
9128,8176,257,615,-4,-2,0,1
9133,8178,259,615,-4,-2,0,1
9138,8182,258,615,-4,-2,0,1
9143,8185,258,615,-4,-2,0,1
9148,8183,257,613,-4,-2,0,1
9153,8183,257,610,-4,-2,0,1
9158,8182,258,607,-4,-2,0,1
9163,8179,258,610,-4,-2,0,1
9168,8177,263,612,-4,-2,0,1
9173,8180,263,613,-4,-2,0,1
9178,8181,264,615,-4,-2,0,1
9183,8184,262,612,-4,-2,0,1
9188,8178,261,605,-4,-2,0,1
9193,8175,262,601,-4,-2,0,1
9198,8171,263,600,-4,-2,0,1
9203,8170,262,595,-4,-2,0,1
9208,8173,262,591,-4,-2,0,1
9213,8172,262,594,-4,-2,0,1
9218,8174,262,596,-4,-2,0,1
9223,8178,265,598,-4,-2,0,1
9228,8182,267,599,-4,-2,0,1
9233,8182,266,602,-4,-2,0,1
9238,8183,265,601,-4,-2,0,1
9243,8181,262,599,-4,-2,0,1
9248,8179,259,598,-4,-2,0,1
9253,8179,257,596,-4,-2,0,1
9258,8177,257,602,-4,-2,0,1
9263,8175,257,604,-4,-2,0,1
9268,8179,260,602,-4,-2,0,1
9273,8180,262,601,-4,-2,0,1
9278,8181,260,597,-4,-2,0,1
9283,8180,261,593,-4,-2,0,1
9288,8179,261,597,-4,-2,0,1
9293,8179,260,599,-4,-2,0,1
9298,8180,260,600,-4,-2,0,1
9303,8181,262,603,-4,-2,0,1
9308,8182,263,601,-4,-2,0,1
9313,8181,264,601,-4,-2,0,1
9318,8178,266,600,-4,-2,0,1
9323,8173,266,601,-4,-2,0,1
9328,8172,264,597,-4,-2,0,1
9333,8174,262,596,-4,-2,0,1
9338,8176,263,596,-4,-2,0,1
9343,8178,261,596,-4,-2,0,1
9348,8177,261,598,-4,-2,0,1
9354,8177,261,597,-4,-2,0,1
9359,8176,260,595,-4,-2,0,1
9363,8175,260,598,-4,-2,0,1
9368,8175,261,599,-4,-2,0,1
9373,8173,261,599,-4,-2,0,1
9378,8175,263,599,-4,-2,0,1
9384,8175,263,600,-4,-2,0,1
9388,8174,265,601,-4,-2,0,1
9394,8177,263,601,-4,-2,0,1
9399,8177,264,601,-4,-2,0,1
9404,8177,262,598,-4,-2,0,1
9409,8176,263,599,-4,-2,0,1
9414,8176,263,601,-4,-2,0,1
9419,8178,262,601,-4,-2,0,1
9424,8180,262,597,-4,-2,0,1
9429,8182,259,600,-4,-2,0,1
9434,8185,259,603,-4,-2,0,1
9439,8189,257,606,-4,-2,0,1
9444,8189,256,607,-4,-2,0,1
9449,8186,257,608,-4,-2,0,1
9454,8182,258,609,-4,-2,0,1
9459,8180,260,607,-4,-2,0,1
9464,8178,261,607,-4,-2,0,1
9469,8180,258,604,-4,-2,0,1
9474,8178,261,611,-4,-2,0,1
9479,8177,260,616,-4,-2,0,1
9484,8178,260,618,-4,-2,0,1
9489,8179,262,613,-4,-2,0,1
9494,8178,265,610,-4,-2,0,1
9499,8179,266,608,-4,-2,0,1
9504,8180,266,611,-4,-2,0,1
9509,8179,265,612,-4,-2,0,1
9514,8178,266,610,-4,-2,0,1
9519,8177,265,610,-4,-2,0,1
9524,8175,262,609,-4,-2,0,1
9529,8175,259,607,-4,-2,0,1
9534,8178,257,605,-4,-2,0,1
9539,8179,257,600,-4,-2,0,1
9544,8177,256,599,-4,-2,0,1
9549,8174,259,598,-4,-2,0,1
9554,8176,261,601,-4,-2,0,1
9559,8176,261,605,-4,-2,0,1
9564,8179,263,604,-4,-2,0,1
9569,8180,261,604,-4,-2,0,1
9574,8179,261,604,-4,-2,0,1
9579,8179,260,608,-4,-2,0,1
9584,8179,258,609,-4,-2,0,1
9589,8179,258,608,-4,-2,0,1
9594,8180,259,611,-4,-2,0,1
9599,8181,259,613,-4,-2,0,1
9604,8181,260,613,-4,-2,0,1
9609,8179,261,614,-4,-2,0,1
9614,8179,262,616,-4,-2,0,1
9619,8180,258,618,-4,-2,0,1
9624,8178,258,618,-4,-2,0,1
9629,8178,260,618,-4,-2,0,1
9634,8176,261,618,-4,-2,0,1
9639,8176,262,619,-4,-2,0,1
9644,8177,264,624,-4,-2,0,1
9649,8177,265,624,-4,-2,0,1
9654,8177,266,624,-4,-2,0,1
9659,8177,268,624,-4,-2,0,1
9664,8176,267,619,-4,-2,0,1
9669,8177,269,615,-4,-2,0,1
9674,8179,270,612,-4,-2,0,1
9679,8179,268,612,-4,-2,0,1
9684,8176,266,611,-4,-2,0,1
9689,8175,266,615,-4,-2,0,1
9694,8175,267,617,-4,-2,0,1
9699,8174,264,618,-4,-2,0,1
9704,8177,263,619,-4,-2,0,1
9709,8180,262,614,-4,-2,0,1
9714,8182,260,613,-4,-2,0,1
9719,8182,259,613,-4,-2,0,1
9724,8183,257,610,-4,-2,0,1
9729,8181,256,612,-4,-2,0,1
9734,8177,258,614,-4,-2,0,1
9739,8177,257,613,-4,-2,0,1
9744,8180,257,612,-4,-2,0,1
9749,8180,256,609,-4,-2,0,1
9754,8182,258,611,-4,-2,0,1
9759,8182,257,612,-4,-2,0,1
9764,8181,255,612,-4,-2,0,1
9769,8183,254,617,-4,-2,0,1
9774,8181,256,616,-4,-2,0,1
9779,8178,259,616,-4,-2,0,1
9784,8178,260,613,-4,-2,0,1
9789,8180,261,615,-4,-2,0,1
9794,8178,262,615,-4,-2,0,1
9799,8180,262,614,-4,-2,0,1
9804,8179,264,612,-4,-2,0,1
9809,8176,266,611,-4,-2,0,1
9814,8174,269,611,-4,-2,0,1
9819,8178,269,611,-4,-2,0,1
9824,8179,270,610,-4,-2,0,1
9829,8180,269,610,-4,-2,0,1
9834,8179,269,611,-4,-2,0,1
9839,8179,269,611,-4,-2,0,1
9844,8181,269,609,-4,-2,0,1
9849,8182,270,607,-4,-2,0,1
9854,8184,268,604,-4,-2,0,1
9859,8184,269,602,-4,-2,0,1
9864,8185,266,600,-4,-2,0,1
9869,8184,265,603,-4,-2,0,1
9874,8181,264,607,-4,-2,0,1
9879,8180,264,610,-4,-2,0,1
9884,8179,263,610,-4,-2,0,1
9890,8180,262,608,-4,-2,0,1
9894,8173,261,609,-4,-2,0,1
9899,8173,263,605,-4,-2,0,1
9905,8174,260,602,-4,-2,0,1
9909,8174,257,600,-4,-2,0,1
9915,8174,259,599,-4,-2,0,1
9920,8174,261,602,-4,-2,0,1
9925,8177,261,609,-4,-2,0,1
9930,8177,262,610,-4,-2,0,1
9935,8174,263,615,-4,-2,0,1
9940,8173,264,615,-4,-2,0,1
9945,8172,265,613,-4,-2,0,1
9950,8170,263,612,-4,-2,0,1
9955,8169,262,609,-4,-2,0,1
9960,8172,262,603,-4,-2,0,1
9965,8176,262,605,-4,-2,0,1
9970,8178,263,608,-4,-2,0,1
9975,8177,261,611,-4,-2,0,1
9980,8175,261,614,-4,-2,0,1
9985,8174,261,616,-4,-2,0,1
9990,8176,262,621,-4,-2,0,1
9995,8176,262,614,-4,-2,0,1
10000,8174,259,615,-4,-2,0,1
10005,8174,258,616,-4,-2,0,1
10010,8173,257,617,-4,-2,0,1
10015,8176,255,615,-4,-2,0,1
10020,8174,258,615,-4,-2,0,1
10025,8171,257,611,-4,-2,0,1
10030,8175,256,610,-4,-2,0,1
10035,8176,257,614,-4,-2,0,1
10040,8175,260,614,-4,-2,0,1
10045,8176,263,612,-4,-2,0,1
10050,8177,265,612,-4,-2,0,1
10055,8176,266,614,-4,-2,0,1
10060,8178,267,617,-4,-2,0,1
10065,8178,265,619,-4,-2,0,1
10070,8177,263,623,-4,-2,0,1
10075,8175,264,625,-4,-2,0,1
10080,8178,264,621,-4,-2,0,1
10085,8180,264,619,-4,-2,0,1
10090,8181,261,619,-4,-2,0,1
10095,8180,261,617,-4,-2,0,1
10100,8180,259,612,-4,-2,0,1
10105,8181,260,611,-4,-2,0,1
10110,8182,261,611,-4,-2,0,1
10115,8181,259,613,-4,-2,0,1
10120,8180,257,618,-4,-2,0,1
10125,8178,258,619,-4,-2,0,1
10130,8178,260,612,-4,-2,0,1
10135,8177,263,613,-4,-2,0,1
10140,8176,262,613,-4,-2,0,1
10145,8174,263,614,-4,-2,0,1
10150,8175,263,615,-4,-2,0,1
10155,8172,260,616,-4,-2,0,1
10160,8171,261,619,-4,-2,0,1
10165,8173,264,617,-4,-2,0,1
10170,8175,264,622,-4,-2,0,1
10175,8177,264,620,-4,-2,0,1
10180,8177,264,618,-4,-2,0,1
10185,8176,262,615,-4,-2,0,1
10190,8176,261,611,-4,-2,0,1
10195,8175,262,613,-4,-2,0,1
10200,8174,263,610,-4,-2,0,1
10205,8174,263,604,-4,-2,0,1
10210,8176,261,604,-4,-2,0,1
10215,8178,261,608,-4,-2,0,1
10220,8178,262,610,-4,-2,0,1
10225,8176,265,617,-4,-2,0,1
10230,8172,267,617,-4,-2,0,1
10235,8175,262,614,-4,-2,0,1
10240,8176,263,609,-4,-2,0,1
10245,8182,261,606,-4,-2,0,1
10250,8182,262,608,-4,-2,0,1
10255,8181,260,609,-4,-2,0,1
10260,8180,262,606,-4,-2,0,1
10265,8180,265,607,-4,-2,0,1
10270,8179,266,604,-4,-2,0,1
10275,8180,266,604,-4,-2,0,1
10280,8179,269,607,-4,-2,0,1
10285,8179,266,607,-4,-2,0,1
10290,8177,265,610,-4,-2,0,1
10295,8179,267,610,-4,-2,0,1
10300,8182,264,607,-4,-2,0,1
10305,8181,263,611,-4,-2,0,1
10310,8180,262,612,-4,-2,0,1
10315,8180,263,611,-4,-2,0,1
10320,8180,261,610,-4,-2,0,1
10325,8178,260,608,-4,-2,0,1
10330,8176,257,602,-4,-2,0,1
10335,8174,259,603,-4,-2,0,1
10340,8174,260,608,-4,-2,0,1
10345,8179,259,608,-4,-2,0,1
10350,8180,259,606,-4,-2,0,1
10355,8182,260,606,-4,-2,0,1
10360,8181,260,606,-4,-2,0,1
10365,8180,260,601,-4,-2,0,1
10370,8180,260,603,-4,-2,0,1
10375,8177,259,605,-4,-2,0,1
10380,8177,259,608,-4,-2,0,1
10385,8178,262,613,-4,-2,0,1
10390,8177,263,618,-4,-2,0,1
10395,8179,266,619,-4,-2,0,1
10400,8177,270,615,-4,-2,0,1
10405,8176,273,609,-4,-2,0,1
10410,8177,273,609,-4,-2,0,1
10416,8176,273,610,-4,-2,0,1
10420,8177,269,609,-4,-2,0,1
10425,8177,270,607,-4,-2,0,1
10430,8176,267,604,-4,-2,0,1
10435,8177,268,607,-4,-2,0,1
10441,8177,269,604,-4,-2,0,1
10446,8174,269,605,-4,-2,0,1
10451,8173,269,609,-4,-2,0,1
10455,8176,270,610,-4,-2,0,1
10461,8179,266,607,-4,-2,0,1
10465,8181,263,607,-4,-2,0,1
10471,8182,264,606,-4,-2,0,1
10476,8183,265,608,-4,-2,0,1
10481,8183,261,610,-4,-2,0,1
10486,8185,259,609,-4,-2,0,1
10491,8185,258,609,-4,-2,0,1
10496,8185,258,605,-4,-2,0,1
10501,8181,257,605,-4,-2,0,1
10506,8177,258,606,-4,-2,0,1
10511,8174,259,607,-4,-2,0,1
10516,8174,261,610,-4,-2,0,1
10521,8177,261,611,-4,-2,0,1
10526,8179,261,611,-4,-2,0,1
10531,8180,261,611,-4,-2,0,1
10536,8181,260,612,-4,-2,0,1
10541,8181,260,612,-4,-2,0,1
10546,8183,262,611,-4,-2,0,1
10551,8184,261,614,-4,-2,0,1
10556,8182,262,615,-4,-2,0,1
10561,8179,264,618,-4,-2,0,1
10566,8181,267,619,-4,-2,0,1
10571,8181,266,618,-4,-2,0,1
10576,8182,266,618,-4,-2,0,1
10581,8179,268,612,-4,-2,0,1
10586,8176,266,609,-4,-2,0,1
10591,8177,265,605,-4,-2,0,1
10596,8178,264,601,-4,-2,0,1
10601,8179,263,605,-4,-2,0,1
10606,8179,263,605,-4,-2,0,1
10611,8182,260,605,-4,-2,0,1
10616,8184,257,608,-4,-2,0,1
10621,8182,257,612,-4,-2,0,1
10626,8180,257,613,-4,-2,0,1
10631,8176,259,608,-4,-2,0,1
10636,8177,264,610,-4,-2,0,1
10641,8179,267,609,-4,-2,0,1
10646,8180,269,613,-4,-2,0,1
10651,8182,268,613,-4,-2,0,1
10656,8184,266,613,-4,-2,0,1
10661,8184,265,611,-4,-2,0,1
10666,8185,265,611,-4,-2,0,1
10671,8186,263,608,-4,-2,0,1
10676,8189,266,607,-4,-2,0,1
10681,8192,267,608,-4,-2,0,1
10686,8189,266,614,-4,-2,0,1
10691,8186,265,613,-4,-2,0,1
10696,8186,267,611,-4,-2,0,1
10701,8186,269,612,-4,-2,0,1
10706,8187,269,612,-4,-2,0,1
10711,8186,269,610,-4,-2,0,1
10716,8185,269,609,-4,-2,0,1
10721,8183,271,604,-4,-2,0,1
10726,8182,271,604,-4,-2,0,1
10731,8181,272,604,-4,-2,0,1
10736,8181,272,609,-4,-2,0,1
10741,8180,272,611,-4,-2,0,1
10746,8177,272,614,-4,-2,0,1
10751,8180,274,613,-4,-2,0,1
10756,8181,273,611,-4,-2,0,1
10761,8179,272,613,-4,-2,0,1
10766,8181,270,617,-4,-2,0,1
10771,8181,272,618,-4,-2,0,1
10776,8180,273,616,-4,-2,0,1
10781,8181,274,615,-4,-2,0,1
10786,8183,272,609,-4,-2,0,1
10791,8183,269,609,-4,-2,0,1
10796,8182,268,607,-4,-2,0,1
10801,8181,270,606,-4,-2,0,1
10806,8181,269,607,-4,-2,0,1
10811,8187,267,612,-4,-2,0,1
10816,8187,267,610,-4,-2,0,1
10821,8186,266,611,-4,-2,0,1
10826,8181,267,610,-4,-2,0,1
10831,8177,267,610,-4,-2,0,1
10836,8177,268,605,-4,-2,0,1
10841,8180,269,599,-4,-2,0,1
10846,8181,271,599,-4,-2,0,1
10851,8182,269,599,-4,-2,0,1
10856,8185,266,599,-4,-2,0,1
10861,8184,265,599,-4,-2,0,1
10866,8182,263,598,-4,-2,0,1
10871,8181,261,601,-4,-2,0,1
10876,8180,261,598,-4,-2,0,1
10881,8181,260,598,-4,-2,0,1
10886,8181,260,599,-4,-2,0,1
10891,8181,262,602,-4,-2,0,1
10896,8178,260,602,-4,-2,0,1
10901,8174,261,602,-4,-2,0,1
10906,8174,263,608,-4,-2,0,1
10911,8177,263,612,-4,-2,0,1
10916,8179,261,612,-4,-2,0,1
10921,8181,261,613,-4,-2,0,1
10926,8181,258,612,-4,-2,0,1
10931,8184,257,612,-4,-2,0,1
10936,8182,261,612,-4,-2,0,1
10941,8181,265,607,-4,-2,0,1
10946,8180,267,605,-4,-2,0,1
10951,8178,265,609,-4,-2,0,1
10956,8177,262,608,-4,-2,0,1
10962,8178,263,603,-4,-2,0,1
10966,8176,263,600,-4,-2,0,1
10971,8176,262,605,-4,-2,0,1
10976,8176,261,609,-4,-2,0,1
10981,8175,258,609,-4,-2,0,1
10987,8176,259,611,-4,-2,0,1
10991,8177,260,611,-4,-2,0,1
10997,8177,259,612,-4,-2,0,1
11001,8177,257,609,-4,-2,0,1
11007,8178,257,610,-4,-2,0,1
11012,8177,258,607,-4,-2,0,1
11017,8178,262,606,-4,-2,0,1
11022,8177,266,602,-4,-2,0,1
11027,8176,266,601,-4,-2,0,1
11032,8176,266,602,-4,-2,0,1
11037,8174,266,603,-4,-2,0,1
11042,8174,265,604,-4,-2,0,1
11047,8175,267,607,-4,-2,0,1
11052,8176,266,610,-4,-2,0,1
11057,8177,265,609,-4,-2,0,1
11062,8180,266,613,-4,-2,0,1
11067,8184,268,614,-4,-2,0,1
11072,8184,270,618,-4,-2,0,1
11077,8183,268,619,-4,-2,0,1
11082,8184,269,620,-4,-2,0,1
11087,8182,269,616,-4,-2,0,1
11092,8178,267,614,-4,-2,0,1
11097,8176,266,615,-4,-2,0,1
11102,8178,263,619,-4,-2,0,1
11107,8178,261,624,-4,-2,0,1
11112,8176,264,621,-4,-2,0,1
11117,8179,268,621,-4,-2,0,1
11122,8180,267,622,-4,-2,0,1
11127,8183,266,622,-4,-2,0,1
11132,8182,263,625,-4,-2,0,1
11137,8179,259,623,-4,-2,0,1
11142,8177,256,615,-4,-2,0,1
11147,8173,254,611,-4,-2,0,1
11152,8174,252,614,-4,-2,0,1
11157,8175,255,615,-4,-2,0,1
11162,8178,257,616,-4,-2,0,1
11167,8178,257,610,-4,-2,0,1
11172,8181,258,608,-4,-2,0,1
11177,8183,259,611,-4,-2,0,1
11182,8185,260,609,-4,-2,0,1
11187,8185,261,610,-4,-2,0,1
11192,8188,263,607,-4,-2,0,1
11197,8187,265,606,-4,-2,0,1
11202,8186,267,606,-4,-2,0,1
11207,8184,267,604,-4,-2,0,1
11212,8183,269,599,-4,-2,0,1
11217,8180,271,598,-4,-2,0,1
11222,8177,272,595,-4,-2,0,1
11227,8175,272,594,-4,-2,0,1
11232,8175,272,592,-4,-2,0,1
11237,8178,275,591,-4,-2,0,1
11242,8181,277,590,-4,-2,0,1
11247,8183,277,593,-4,-2,0,1
11252,8184,278,596,-4,-2,0,1
11257,8182,274,601,-4,-2,0,1
11262,8180,271,600,-4,-2,0,1
11267,8180,269,601,-4,-2,0,1
11272,8182,268,605,-4,-2,0,1
11277,8186,268,605,-4,-2,0,1
11282,8186,266,608,-4,-2,0,1
11287,8186,264,611,-4,-2,0,1
11292,8185,263,611,-4,-2,0,1
11297,8183,260,612,-4,-2,0,1
11302,8183,260,611,-4,-2,0,1
11307,8186,256,609,-4,-2,0,1
11312,8185,253,606,-4,-2,0,1
11317,8184,255,605,-4,-2,0,1
11322,8184,256,602,-4,-2,0,1
11327,8182,256,601,-4,-2,0,1
11332,8179,257,604,-4,-2,0,1
11337,8177,260,607,-4,-2,0,1
11342,8180,261,609,-4,-2,0,1
11347,8180,260,611,-4,-2,0,1
11352,8180,261,610,-4,-2,0,1
11357,8180,264,610,-4,-2,0,1
11362,8182,267,609,-4,-2,0,1
11367,8182,267,612,-4,-2,0,1
11372,8182,266,610,-4,-2,0,1
11377,8182,268,610,-4,-2,0,1
11382,8178,271,608,-4,-2,0,1
11387,8177,272,608,-4,-2,0,1
11392,8177,273,606,-4,-2,0,1
11397,8181,273,602,-4,-2,0,1
11402,8178,272,604,-4,-2,0,1
11407,8177,276,608,-4,-2,0,1
11412,8181,277,606,-4,-2,0,1
11417,8183,279,606,-4,-2,0,1
11422,8183,276,601,-4,-2,0,1
11427,8179,276,600,-4,-2,0,1
11432,8177,274,605,-4,-2,0,1
11437,8174,270,610,-4,-2,0,1
11442,8173,269,617,-4,-2,0,1
11447,8171,266,618,-4,-2,0,1
11452,8172,266,624,-4,-2,0,1
11457,8173,267,624,-4,-2,0,1
11462,8174,270,621,-4,-2,0,1
11467,8178,265,625,-4,-2,0,1
11472,8180,260,624,-4,-2,0,1
11477,8179,260,622,-4,-2,0,1
11482,8180,259,621,-4,-2,0,1
11487,8181,256,613,-4,-2,0,1
11492,8178,255,611,-4,-2,0,1
11497,8176,255,612,-4,-2,0,1
11502,8173,255,611,-4,-2,0,1
11507,8174,252,611,-4,-2,0,1
11512,8173,250,613,-4,-2,0,1
11517,8175,251,613,-4,-2,0,1
11523,8178,252,609,-4,-2,0,1
11528,8178,251,606,-4,-2,0,1
11533,8176,251,603,-4,-2,0,1
11538,8177,254,603,-4,-2,0,1
11543,8178,258,605,-4,-2,0,1
11548,8177,262,605,-4,-2,0,1
11553,8174,265,606,-4,-2,0,1
11558,8172,267,606,-4,-2,0,1
11563,8173,266,604,-4,-2,0,1
11568,8175,267,606,-4,-2,0,1
11573,8173,270,609,-4,-2,0,1
11578,8176,270,614,-4,-2,0,1
11583,8177,269,615,-4,-2,0,1
11588,8180,270,618,-4,-2,0,1
11593,8179,269,615,-4,-2,0,1
11598,8180,271,615,-4,-2,0,1
11603,8179,273,616,-4,-2,0,1
11608,8177,273,613,-4,-2,0,1
11613,8177,275,612,-4,-2,0,1
11618,8176,272,610,-4,-2,0,1
11623,8173,272,612,-4,-2,0,1
11628,8174,272,611,-4,-2,0,1
11633,8176,268,612,-4,-2,0,1
11638,8174,266,611,-4,-2,0,1
11643,8178,264,608,-4,-2,0,1
11648,8178,259,613,-4,-2,0,1
11653,8176,255,615,-4,-2,0,1
11658,8173,253,616,-4,-2,0,1
11663,8174,252,617,-4,-2,0,1
11668,8173,253,616,-4,-2,0,1
11673,8170,253,621,-4,-2,0,1
11678,8173,254,624,-4,-2,0,1
11683,8173,254,625,-4,-2,0,1
11688,8176,254,626,-4,-2,0,1
11693,8179,254,626,-4,-2,0,1
11698,8177,256,628,-4,-2,0,1
11703,8181,258,627,-4,-2,0,1
11708,8183,259,627,-4,-2,0,1
11713,8182,260,625,-4,-2,0,1
11718,8177,259,617,-4,-2,0,1
11723,8176,261,613,-4,-2,0,1
11728,8174,260,610,-4,-2,0,1
11733,8171,260,611,-4,-2,0,1
11738,8171,263,614,-4,-2,0,1
11743,8173,266,613,-4,-2,0,1
11748,8177,266,613,-4,-2,0,1
11753,8176,264,610,-4,-2,0,1
11758,8177,260,609,-4,-2,0,1
11763,8177,263,609,-4,-2,0,1
11768,8178,265,606,-4,-2,0,1
11773,8180,268,609,-4,-2,0,1
11778,8181,271,611,-4,-2,0,1
11783,8180,273,614,-4,-2,0,1
11788,8175,273,613,-4,-2,0,1
11793,8177,274,612,-4,-2,0,1
11798,8175,274,612,-4,-2,0,1
11803,8177,270,611,-4,-2,0,1
11808,8179,270,615,-4,-2,0,1
11813,8183,270,614,-4,-2,0,1
11818,8184,266,609,-4,-2,0,1
11823,8184,266,605,-4,-2,0,1
11828,8184,265,602,-4,-2,0,1
11833,8182,263,606,-4,-2,0,1
11838,8182,260,608,-4,-2,0,1
11843,8180,260,611,-4,-2,0,1
11848,8178,262,616,-4,-2,0,1
11853,8177,264,612,-4,-2,0,1
11858,8175,264,606,-4,-2,0,1
11863,8179,264,601,-4,-2,0,1
11868,8181,265,599,-4,-2,0,1
11873,8180,268,599,-4,-2,0,1
11878,8182,270,600,-4,-2,0,1
11883,8182,268,602,-4,-2,0,1
11888,8182,266,606,-4,-2,0,1
11893,8182,268,607,-4,-2,0,1
11898,8179,269,608,-4,-2,0,1
11903,8177,267,607,-4,-2,0,1
11908,8177,267,611,-4,-2,0,1
11913,8175,267,613,-4,-2,0,1
11918,8176,265,616,-4,-2,0,1
11923,8178,266,616,-4,-2,0,1
11928,8178,264,615,-4,-2,0,1
11933,8179,264,615,-4,-2,0,1
11938,8178,262,610,-4,-2,0,1
11943,8177,261,609,-4,-2,0,1
11948,8177,261,610,-4,-2,0,1
11953,8175,261,610,-4,-2,0,1
11958,8176,261,611,-4,-2,0,1
11963,8174,262,610,-4,-2,0,1
11968,8170,262,606,-4,-2,0,1
11973,8173,261,603,-4,-2,0,1
11978,8173,261,598,-4,-2,0,1
11983,8174,265,597,-4,-2,0,1
11988,8176,264,600,-4,-2,0,1
11993,8181,263,603,-4,-2,0,1
11998,8183,264,606,-4,-2,0,1
12003,8182,262,609,-4,-2,0,1
12008,8180,262,615,-4,-2,0,1
12013,8179,261,615,-4,-2,0,1
12018,8178,263,612,-4,-2,0,1
12023,8178,264,608,-4,-2,0,1
12028,8177,264,606,-4,-2,0,1
12034,8178,264,604,-4,-2,0,1
12039,8177,265,605,-4,-2,0,1
12044,8174,264,606,-4,-2,0,1
12048,8175,267,608,-4,-2,0,1
12054,8175,267,612,-4,-2,0,1
12058,8175,266,612,-4,-2,0,1
12064,8176,267,615,-4,-2,0,1
12069,8179,266,612,-4,-2,0,1
12074,8181,263,611,-4,-2,0,1
12079,8179,263,610,-4,-2,0,1
12084,8178,260,611,-4,-2,0,1
12089,8181,261,609,-4,-2,0,1
12094,8179,258,607,-4,-2,0,1
12099,8174,255,606,-4,-2,0,1
12104,8173,252,604,-4,-2,0,1
12109,8171,251,605,-4,-2,0,1
12114,8169,249,608,-4,-2,0,1
12119,8168,249,609,-4,-2,0,1
12124,8173,250,607,-4,-2,0,1
12129,8177,250,607,-4,-2,0,1
12134,8181,252,606,-4,-2,0,1
12139,8181,253,605,-4,-2,0,1
12144,8179,256,600,-4,-2,0,1
12149,8175,254,593,-4,-2,0,1
12154,8173,252,594,-4,-2,0,1
12159,8174,251,597,-4,-2,0,1
12164,8175,252,599,-4,-2,0,1
12169,8177,255,600,-4,-2,0,1
12174,8182,257,601,-4,-2,0,1
12179,8184,256,606,-4,-2,0,1
12184,8184,258,607,-4,-2,0,1
12189,8180,264,606,-4,-2,0,1
12194,8179,267,605,-4,-2,0,1
12199,8180,269,601,-4,-2,0,1
12204,8182,271,599,-4,-2,0,1
12209,8182,271,601,-4,-2,0,1
12214,8182,272,603,-4,-2,0,1
12219,8182,273,608,-4,-2,0,1
12224,8182,273,611,-4,-2,0,1
12229,8184,273,610,-4,-2,0,1
12234,8183,271,610,-4,-2,0,1
12239,8185,269,611,-4,-2,0,1
12244,8184,265,611,-4,-2,0,1
12249,8182,266,611,-4,-2,0,1
12254,8181,264,609,-4,-2,0,1
12259,8181,262,607,-4,-2,0,1
12264,8180,258,609,-4,-2,0,1
12269,8177,255,612,-4,-2,0,1
12274,8174,256,609,-4,-2,0,1
12279,8174,256,611,-4,-2,0,1
12284,8176,253,611,-4,-2,0,1
12289,8177,251,610,-4,-2,0,1
12294,8179,250,613,-4,-2,0,1
12299,8178,249,615,-4,-2,0,1
12304,8180,250,614,-4,-2,0,1
12309,8177,251,610,-4,-2,0,1
12314,8173,253,608,-4,-2,0,1
12319,8169,255,609,-4,-2,0,1
12324,8169,258,609,-4,-2,0,1
12329,8171,256,610,-4,-2,0,1
12334,8174,255,610,-4,-2,0,1
12339,8176,254,610,-4,-2,0,1
12344,8178,255,612,-4,-2,0,1
12349,8180,256,614,-4,-2,0,1
12354,8180,256,614,-4,-2,0,1
12359,8181,258,613,-4,-2,0,1
12364,8181,265,612,-4,-2,0,1
12369,8179,268,610,-4,-2,0,1
12374,8176,270,607,-4,-2,0,1
12379,8176,273,605,-4,-2,0,1
12384,8176,272,602,-4,-2,0,1
12389,8179,274,598,-4,-2,0,1
12394,8181,277,596,-4,-2,0,1
12399,8184,277,600,-4,-2,0,1
12404,8186,277,597,-4,-2,0,1
12409,8187,275,599,-4,-2,0,1
12414,8188,272,603,-4,-2,0,1
12419,8188,271,599,-4,-2,0,1
12424,8187,271,600,-4,-2,0,1
12429,8188,271,601,-4,-2,0,1
12434,8186,270,604,-4,-2,0,1
12439,8187,269,605,-4,-2,0,1
12444,8186,265,609,-4,-2,0,1
12449,8187,262,607,-4,-2,0,1
12454,8186,258,608,-4,-2,0,1
12459,8190,255,608,-4,-2,0,1
12464,8192,250,607,-4,-2,0,1
12469,8192,249,604,-4,-2,0,1
12474,8191,249,602,-4,-2,0,1
12479,8189,251,605,-4,-2,0,1
12484,8187,254,606,-4,-2,0,1
12489,8187,255,603,-4,-2,0,1
12494,8186,256,602,-4,-2,0,1
12499,8181,258,607,-4,-2,0,1
12504,8178,261,605,-4,-2,0,1
12509,8176,264,607,-4,-2,0,1
12514,8176,266,609,-4,-2,0,1
12519,8177,266,610,-4,-2,0,1
12524,8175,267,610,-4,-2,0,1
12529,8177,268,607,-4,-2,0,1
12534,8177,271,604,-4,-2,0,1
12539,8180,272,603,-4,-2,0,1
12544,8182,273,605,-4,-2,0,1
12549,8179,277,606,-4,-2,0,1
12554,8178,278,607,-4,-2,0,1
12559,8178,280,606,-4,-2,0,1
12564,8176,280,605,-4,-2,0,1
12569,8175,279,605,-4,-2,0,1
12574,8176,277,605,-4,-2,0,1
12579,8178,276,606,-4,-2,0,1
12585,8177,276,605,-4,-2,0,1
12590,8180,276,603,-4,-2,0,1
12595,8181,275,606,-4,-2,0,1
12599,8182,272,609,-4,-2,0,1
12604,8183,270,604,-4,-2,0,1
12610,8183,269,602,-4,-2,0,1
12615,8182,268,601,-4,-2,0,1
12620,8178,269,598,-4,-2,0,1
12625,8176,267,603,-4,-2,0,1
12630,8180,266,607,-4,-2,0,1
12635,8182,263,606,-4,-2,0,1
12640,8181,262,607,-4,-2,0,1
12645,8178,262,604,-4,-2,0,1
12650,8176,261,606,-4,-2,0,1
12655,8175,261,607,-4,-2,0,1
12660,8176,256,607,-4,-2,0,1
12665,8174,253,606,-4,-2,0,1
12670,8171,250,601,-4,-2,0,1
12675,8172,251,602,-4,-2,0,1
12680,8173,254,604,-4,-2,0,1
12685,8178,256,608,-4,-2,0,1
12690,8185,255,608,-4,-2,0,1
12695,8186,256,613,-4,-2,0,1
12700,8183,258,615,-4,-2,0,1
12705,8182,258,612,-4,-2,0,1
12710,8181,257,610,-4,-2,0,1
12715,8178,259,610,-4,-2,0,1
12720,8176,262,607,-4,-2,0,1
12725,8175,262,612,-4,-2,0,1
12730,8174,262,616,-4,-2,0,1
12735,8174,261,613,-4,-2,0,1
12740,8175,266,609,-4,-2,0,1
12745,8173,268,606,-4,-2,0,1
12750,8179,266,608,-4,-2,0,1
12755,8182,266,611,-4,-2,0,1
12760,8183,267,614,-4,-2,0,1
12765,8183,269,612,-4,-2,0,1
12770,8183,269,612,-4,-2,0,1
12775,8180,271,607,-4,-2,0,1
12780,8176,269,602,-4,-2,0,1
12785,8175,269,602,-4,-2,0,1
12790,8177,265,605,-4,-2,0,1
12795,8176,262,608,-4,-2,0,1
12800,8175,258,611,-4,-2,0,1
12805,8178,256,613,-4,-2,0,1
12810,8182,256,614,-4,-2,0,1
12815,8185,257,615,-4,-2,0,1
12820,8184,259,615,-4,-2,0,1
12825,8184,259,615,-4,-2,0,1
12830,8181,259,616,-4,-2,0,1
12835,8177,257,618,-4,-2,0,1
12840,8174,256,616,-4,-2,0,1
12845,8175,257,613,-4,-2,0,1
12850,8175,257,614,-4,-2,0,1
12855,8178,254,616,-4,-2,0,1
12860,8180,253,620,-4,-2,0,1
12865,8180,250,621,-4,-2,0,1
12870,8181,252,613,-4,-2,0,1
12875,8183,254,612,-4,-2,0,1
12880,8184,258,613,-4,-2,0,1
12885,8183,259,613,-4,-2,0,1
12890,8183,258,610,-4,-2,0,1
12895,8181,260,610,-4,-2,0,1
12900,8177,263,614,-4,-2,0,1
12905,8175,265,608,-4,-2,0,1
12910,8174,266,605,-4,-2,0,1
12915,8176,262,605,-4,-2,0,1
12920,8176,262,606,-4,-2,0,1
12925,8174,264,606,-4,-2,0,1
12930,8173,263,605,-4,-2,0,1
12935,8175,265,607,-4,-2,0,1
12940,8175,266,610,-4,-2,0,1
12945,8176,268,610,-4,-2,0,1
12950,8179,269,609,-4,-2,0,1
12955,8180,269,608,-4,-2,0,1
12960,8179,269,607,-4,-2,0,1
12965,8177,266,607,-4,-2,0,1
12970,8177,266,607,-4,-2,0,1
12975,8177,267,610,-4,-2,0,1
12980,8178,268,613,-4,-2,0,1
12985,8180,267,614,-4,-2,0,1
12990,8183,267,612,-4,-2,0,1
12995,8182,265,610,-4,-2,0,1
13000,8183,263,606,-4,-2,0,1
13005,8185,264,604,-4,-2,0,1
13010,8185,263,600,-4,-2,0,1
13015,8183,261,605,-4,-2,0,1
13020,8181,260,607,-4,-2,0,1
13025,8183,260,609,-4,-2,0,1
13030,8184,262,609,-4,-2,0,1
13035,8181,264,615,-4,-2,0,1
13040,8179,264,616,-4,-2,0,1
13045,8180,265,615,-4,-2,0,1
13050,8182,262,616,-4,-2,0,1
13055,8184,261,616,-4,-2,0,1
13060,8184,262,615,-4,-2,0,1
13065,8184,263,612,-4,-2,0,1
13070,8178,260,612,-4,-2,0,1
13075,8176,256,614,-4,-2,0,1
13080,8175,256,617,-4,-2,0,1
13085,8176,254,613,-4,-2,0,1
13090,8179,256,612,-4,-2,0,1
13095,8180,257,611,-4,-2,0,1
13100,8179,259,616,-4,-2,0,1
13105,8179,262,616,-4,-2,0,1
13111,8176,265,615,-4,-2,0,1
13116,8177,268,612,-4,-2,0,1
13120,8177,268,610,-4,-2,0,1
13126,8178,265,609,-4,-2,0,1
13131,8179,264,612,-4,-2,0,1
13136,8179,267,615,-4,-2,0,1
13141,8179,270,611,-4,-2,0,1
13146,8179,269,609,-4,-2,0,1
13151,8180,264,609,-4,-2,0,1
13156,8176,263,607,-4,-2,0,1
13161,8174,263,607,-4,-2,0,1
13166,8175,262,606,-4,-2,0,1
13171,8174,264,603,-4,-2,0,1
13176,8175,264,605,-4,-2,0,1
13181,8177,263,605,-4,-2,0,1
13186,8180,264,606,-4,-2,0,1
13191,8181,264,611,-4,-2,0,1
13196,8180,265,612,-4,-2,0,1
13201,8182,265,613,-4,-2,0,1
13206,8183,265,612,-4,-2,0,1
13211,8183,263,609,-4,-2,0,1
13216,8179,264,608,-4,-2,0,1
13221,8178,267,606,-4,-2,0,1
13226,8176,266,605,-4,-2,0,1
13231,8173,268,603,-4,-2,0,1
13236,8175,269,603,-4,-2,0,1
13241,8179,268,597,-4,-2,0,1
13246,8181,267,593,-4,-2,0,1
13251,8181,266,598,-4,-2,0,1
13256,8183,266,604,-4,-2,0,1
13261,8182,267,606,-4,-2,0,1
13266,8181,267,607,-4,-2,0,1
13271,8183,266,610,-4,-2,0,1
13276,8181,267,608,-4,-2,0,1
13281,8177,266,609,-4,-2,0,1
13286,8175,266,612,-4,-2,0,1
13291,8173,264,615,-4,-2,0,1
13296,8174,264,615,-4,-2,0,1
13301,8176,264,618,-4,-2,0,1
13306,8178,263,615,-4,-2,0,1
13311,8178,261,615,-4,-2,0,1
13316,8180,260,613,-4,-2,0,1
13321,8181,261,611,-4,-2,0,1
13326,8183,264,613,-4,-2,0,1
13331,8183,264,614,-4,-2,0,1
13336,8183,263,616,-4,-2,0,1
13341,8183,264,619,-4,-2,0,1
13346,8184,261,619,-4,-2,0,1
13351,8183,260,619,-4,-2,0,1
13356,8181,257,618,-4,-2,0,1
13361,8181,256,611,-4,-2,0,1
13366,8181,255,608,-4,-2,0,1
13371,8180,257,607,-4,-2,0,1
13376,8180,259,608,-4,-2,0,1
13381,8183,263,603,-4,-2,0,1
13386,8185,262,603,-4,-2,0,1
13391,8184,264,602,-4,-2,0,1
13396,8184,263,605,-4,-2,0,1
13401,8184,260,606,-4,-2,0,1
13406,8182,257,604,-4,-2,0,1
13411,8181,259,604,-4,-2,0,1
13416,8181,258,604,-4,-2,0,1
13421,8184,258,603,-4,-2,0,1
13426,8186,261,602,-4,-2,0,1
13431,8186,263,600,-4,-2,0,1
13436,8186,260,600,-4,-2,0,1
13441,8185,261,602,-4,-2,0,1
13446,8183,261,602,-4,-2,0,1
13451,8185,260,611,-4,-2,0,1
13456,8185,260,614,-4,-2,0,1
13461,8184,262,615,-4,-2,0,1
13466,8181,264,620,-4,-2,0,1
13471,8181,263,623,-4,-2,0,1
13476,8182,263,622,-4,-2,0,1
13481,8183,264,620,-4,-2,0,1
13486,8183,265,619,-4,-2,0,1
13491,8183,267,615,-4,-2,0,1
13496,8181,267,612,-4,-2,0,1
13501,8177,268,611,-4,-2,0,1
13506,8177,268,611,-4,-2,0,1
13511,8175,269,613,-4,-2,0,1
13516,8174,268,611,-4,-2,0,1
13521,8174,265,612,-4,-2,0,1
13526,8176,262,613,-4,-2,0,1
13531,8175,260,610,-4,-2,0,1
13536,8175,258,609,-4,-2,0,1
13541,8176,260,610,-4,-2,0,1
13546,8178,261,613,-4,-2,0,1
13551,8179,261,612,-4,-2,0,1
13556,8178,261,611,-4,-2,0,1
13561,8176,261,615,-4,-2,0,1
13566,8175,261,614,-4,-2,0,1
13571,8175,262,612,-4,-2,0,1
13576,8177,261,612,-4,-2,0,1
13581,8174,260,612,-4,-2,0,1
13586,8173,259,614,-4,-2,0,1
13591,8174,259,615,-4,-2,0,1
13596,8174,263,616,-4,-2,0,1
13601,8176,264,613,-4,-2,0,1
13606,8176,264,611,-4,-2,0,1
13611,8178,265,612,-4,-2,0,1
13616,8180,267,614,-4,-2,0,1
13621,8178,268,610,-4,-2,0,1
13626,8179,266,609,-4,-2,0,1
13632,8180,265,611,-4,-2,0,1
13637,8178,265,611,-4,-2,0,1
13641,8173,266,610,-4,-2,0,1
13646,8172,267,608,-4,-2,0,1
13652,8173,268,608,-4,-2,0,1
13657,8175,265,612,-4,-2,0,1
13661,8175,266,612,-4,-2,0,1
13667,8180,264,608,-4,-2,0,1
13672,8181,265,609,-4,-2,0,1
13677,8179,263,609,-4,-2,0,1
13682,8177,262,610,-4,-2,0,1
13687,8173,259,610,-4,-2,0,1
13692,8169,259,612,-4,-2,0,1
13697,8171,259,612,-4,-2,0,1
13702,8172,259,614,-4,-2,0,1
13707,8172,258,611,-4,-2,0,1
13712,8173,260,607,-4,-2,0,1
13717,8175,263,606,-4,-2,0,1
13722,8175,266,602,-4,-2,0,1
13727,8174,267,599,-4,-2,0,1
13732,8174,268,603,-4,-2,0,1
13737,8178,269,601,-4,-2,0,1
13742,8182,269,603,-4,-2,0,1
13747,8182,267,606,-4,-2,0,1
13752,8181,269,606,-4,-2,0,1
13757,8180,269,605,-4,-2,0,1
13762,8179,268,602,-4,-2,0,1
13767,8180,267,602,-4,-2,0,1
13772,8179,267,602,-4,-2,0,1
13777,8178,267,600,-4,-2,0,1
13782,8176,266,600,-4,-2,0,1
13787,8175,264,606,-4,-2,0,1
13792,8174,264,610,-4,-2,0,1
13797,8174,263,608,-4,-2,0,1
13802,8177,263,609,-4,-2,0,1
13807,8180,262,609,-4,-2,0,1
13812,8181,261,612,-4,-2,0,1
13817,8184,261,614,-4,-2,0,1
13822,8184,261,613,-4,-2,0,1
13827,8183,259,613,-4,-2,0,1
13832,8184,258,609,-4,-2,0,1
13837,8181,259,608,-4,-2,0,1
13842,8179,263,604,-4,-2,0,1
13847,8177,266,603,-4,-2,0,1
13852,8179,266,601,-4,-2,0,1
13857,8179,265,601,-4,-2,0,1
13862,8177,266,602,-4,-2,0,1
13867,8177,267,601,-4,-2,0,1
13872,8180,264,604,-4,-2,0,1
13877,8182,264,607,-4,-2,0,1
13882,8181,268,608,-4,-2,0,1
13887,8183,265,604,-4,-2,0,1
13892,8181,264,608,-4,-2,0,1
13897,8182,262,613,-4,-2,0,1
13902,8181,262,612,-4,-2,0,1
13907,8183,259,612,-4,-2,0,1
13912,8184,260,612,-4,-2,0,1
13917,8183,260,610,-4,-2,0,1
13922,8182,259,605,-4,-2,0,1
13927,8182,257,602,-4,-2,0,1
13932,8184,257,599,-4,-2,0,1
13937,8183,257,598,-4,-2,0,1
13942,8181,259,599,-4,-2,0,1
13947,8183,260,600,-4,-2,0,1
13952,8182,263,600,-4,-2,0,1
13957,8181,265,601,-4,-2,0,1
13962,8181,265,601,-4,-2,0,1
13967,8182,265,601,-4,-2,0,1
13972,8179,265,603,-4,-2,0,1
13977,8178,265,606,-4,-2,0,1
13982,8182,265,608,-4,-2,0,1
13987,8183,263,608,-4,-2,0,1
13992,8183,261,609,-4,-2,0,1
13997,8182,261,605,-4,-2,0,1
14002,8184,261,604,-4,-2,0,1
14007,8180,262,601,-4,-2,0,1
14012,8179,263,605,-4,-2,0,1
14017,8177,264,605,-4,-2,0,1
14022,8176,267,602,-4,-2,0,1
14027,8179,267,600,-4,-2,0,1
14032,8180,267,601,-4,-2,0,1
14037,8181,267,600,-4,-2,0,1
14042,8180,267,597,-4,-2,0,1
14047,8177,265,600,-4,-2,0,1
14052,8174,263,606,-4,-2,0,1
14057,8174,265,606,-4,-2,0,1
14062,8174,263,607,-4,-2,0,1
14067,8175,263,605,-4,-2,0,1
14072,8176,263,598,-4,-2,0,1
14077,8175,261,598,-4,-2,0,1
14082,8174,261,601,-4,-2,0,1
14087,8172,262,600,-4,-2,0,1
14092,8175,263,600,-4,-2,0,1
14097,8177,261,603,-4,-2,0,1
14102,8174,259,604,-4,-2,0,1
14107,8174,259,602,-4,-2,0,1
14112,8173,262,600,-4,-2,0,1
14117,8173,263,606,-4,-2,0,1
14122,8176,262,606,-4,-2,0,1
14127,8180,260,603,-4,-2,0,1
14132,8182,261,599,-4,-2,0,1
14137,8182,263,600,-4,-2,0,1
14142,8183,265,599,-4,-2,0,1
14147,8183,264,598,-4,-2,0,1
14152,8184,265,598,-4,-2,0,1
14157,8187,265,600,-4,-2,0,1
14163,8188,263,601,-4,-2,0,1
14167,8187,263,601,-4,-2,0,1
14173,8187,264,602,-4,-2,0,1
14178,8184,264,600,-4,-2,0,1
14182,8181,261,600,-4,-2,0,1
14188,8177,258,601,-4,-2,0,1
14193,8178,259,602,-4,-2,0,1
14198,8176,257,603,-4,-2,0,1
14202,8172,258,604,-4,-2,0,1
14208,8172,260,606,-4,-2,0,1
14213,8174,262,606,-4,-2,0,1
14218,8173,261,606,-4,-2,0,1
14223,8174,259,602,-4,-2,0,1
14228,8175,256,604,-4,-2,0,1
14233,8172,255,604,-4,-2,0,1
14238,8172,255,611,-4,-2,0,1
14243,8175,256,617,-4,-2,0,1
14248,8178,257,616,-4,-2,0,1
14253,8175,258,609,-4,-2,0,1
14258,8175,258,604,-4,-2,0,1
14263,8173,260,606,-4,-2,0,1
14268,8174,259,612,-4,-2,0,1
14273,8176,262,614,-4,-2,0,1
14278,8175,263,612,-4,-2,0,1
14283,8174,262,614,-4,-2,0,1
14288,8174,265,608,-4,-2,0,1
14293,8175,264,608,-4,-2,0,1
14298,8178,264,603,-4,-2,0,1
14303,8181,266,605,-4,-2,0,1
14308,8183,266,605,-4,-2,0,1
14313,8186,265,607,-4,-2,0,1
14318,8185,266,607,-4,-2,0,1
14323,8183,263,603,-4,-2,0,1
14328,8181,262,599,-4,-2,0,1
14333,8181,263,605,-4,-2,0,1
14338,8181,263,606,-4,-2,0,1
14343,8178,266,611,-4,-2,0,1
14348,8178,269,611,-4,-2,0,1
14353,8178,269,613,-4,-2,0,1
14358,8177,269,608,-4,-2,0,1
14363,8174,266,609,-4,-2,0,1
14368,8174,263,610,-4,-2,0,1
14373,8177,264,606,-4,-2,0,1
14378,8179,264,605,-4,-2,0,1
14383,8178,263,608,-4,-2,0,1
14388,8179,264,614,-4,-2,0,1
14393,8178,263,614,-4,-2,0,1
14398,8174,263,613,-4,-2,0,1
14403,8174,261,610,-4,-2,0,1
14408,8173,261,612,-4,-2,0,1
14413,8173,261,611,-4,-2,0,1
14418,8174,261,609,-4,-2,0,1
14423,8176,261,612,-4,-2,0,1
14428,8177,264,616,-4,-2,0,1
14433,8179,267,622,-4,-2,0,1
14438,8179,266,620,-4,-2,0,1
14443,8177,267,616,-4,-2,0,1
14448,8175,267,618,-4,-2,0,1
14453,8174,266,613,-4,-2,0,1
14458,8173,267,610,-4,-2,0,1
14463,8175,269,610,-4,-2,0,1
14468,8178,270,610,-4,-2,0,1
14473,8180,269,611,-4,-2,0,1
14478,8183,268,610,-4,-2,0,1
14483,8183,267,616,-4,-2,0,1
14488,8183,269,614,-4,-2,0,1
14493,8182,269,614,-4,-2,0,1
14498,8181,268,619,-4,-2,0,1
14503,8180,265,623,-4,-2,0,1
14508,8180,263,619,-4,-2,0,1
14513,8181,265,619,-4,-2,0,1
14518,8183,267,621,-4,-2,0,1
14523,8182,265,622,-4,-2,0,1
14528,8181,265,621,-4,-2,0,1
14533,8181,266,615,-4,-2,0,1
14538,8180,265,616,-4,-2,0,1
14543,8177,267,613,-4,-2,0,1
14548,8174,267,610,-4,-2,0,1
14553,8174,267,611,-4,-2,0,1
14558,8176,268,609,-4,-2,0,1
14563,8176,267,610,-4,-2,0,1
14568,8176,266,612,-4,-2,0,1
14573,8180,267,615,-4,-2,0,1
14578,8182,265,613,-4,-2,0,1
14583,8184,264,612,-4,-2,0,1
14588,8185,266,613,-4,-2,0,1
14593,8184,266,613,-4,-2,0,1
14598,8182,266,612,-4,-2,0,1
14603,8184,265,611,-4,-2,0,1
14608,8184,266,609,-4,-2,0,1
14613,8182,265,607,-4,-2,0,1
14618,8180,263,606,-4,-2,0,1
14623,8181,265,605,-4,-2,0,1
14628,8181,265,606,-4,-2,0,1
14633,8181,264,605,-4,-2,0,1
14638,8181,264,607,-4,-2,0,1
14643,8179,260,607,-4,-2,0,1
14648,8174,265,603,-4,-2,0,1
14653,8176,260,601,-4,-2,0,1
14658,8174,259,599,-4,-2,0,1
14664,8174,260,598,-4,-2,0,1
14668,8177,256,600,-4,-2,0,1
14673,8180,255,606,-4,-2,0,1
14678,8183,254,608,-4,-2,0,1
14684,8182,252,607,-4,-2,0,1
14689,8178,255,606,-4,-2,0,1
14693,8178,258,607,-4,-2,0,1
14698,8178,257,607,-4,-2,0,1
14704,8176,258,609,-4,-2,0,1
14708,8175,259,609,-4,-2,0,1
14713,8171,258,607,-4,-2,0,1
14719,8170,258,605,-4,-2,0,1
14724,8173,259,608,-4,-2,0,1
14729,8177,258,609,-4,-2,0,1
14734,8177,261,608,-4,-2,0,1
14739,8178,262,609,-4,-2,0,1
14744,8178,262,608,-4,-2,0,1
14749,8178,263,612,-4,-2,0,1
14754,8179,265,614,-4,-2,0,1
14759,8179,264,615,-4,-2,0,1
14764,8180,264,617,-4,-2,0,1
14769,8183,266,617,-4,-2,0,1
14774,8182,268,617,-4,-2,0,1
14779,8183,267,618,-4,-2,0,1
14784,8183,265,617,-4,-2,0,1
14789,8180,263,616,-4,-2,0,1
14794,8177,264,612,-4,-2,0,1
14799,8175,265,613,-4,-2,0,1
14804,8172,264,612,-4,-2,0,1
14809,8175,265,616,-4,-2,0,1
14814,8177,267,614,-4,-2,0,1
14819,8177,270,614,-4,-2,0,1
14824,8176,265,615,-4,-2,0,1
14829,8174,262,609,-4,-2,0,1
14834,8173,263,609,-4,-2,0,1
14839,8172,265,607,-4,-2,0,1
14844,8175,266,609,-4,-2,0,1
14849,8179,263,608,-4,-2,0,1
14854,8185,264,607,-4,-2,0,1
14859,8183,261,606,-4,-2,0,1
14864,8185,261,609,-4,-2,0,1
14869,8184,264,611,-4,-2,0,1
14874,8184,263,615,-4,-2,0,1
14879,8185,263,615,-4,-2,0,1
14884,8184,263,613,-4,-2,0,1
14889,8184,261,611,-4,-2,0,1
14894,8183,260,611,-4,-2,0,1
14899,8178,260,605,-4,-2,0,1
14904,8174,258,603,-4,-2,0,1
14909,8175,255,601,-4,-2,0,1
14914,8177,256,599,-4,-2,0,1
14919,8177,254,599,-4,-2,0,1
14924,8177,255,604,-4,-2,0,1
14929,8182,257,607,-4,-2,0,1
14934,8184,260,608,-4,-2,0,1
14939,8185,260,608,-4,-2,0,1
14944,8183,260,609,-4,-2,0,1
14949,8182,259,610,-4,-2,0,1
14954,8181,259,611,-4,-2,0,1
14959,8179,260,615,-4,-2,0,1
14964,8178,263,615,-4,-2,0,1
14969,8173,262,616,-4,-2,0,1
14974,8172,260,619,-4,-2,0,1
14979,8171,259,618,-4,-2,0,1
14984,8171,262,616,-4,-2,0,1
14989,8172,264,614,-4,-2,0,1
14994,8176,267,610,-4,-2,0,1
14999,8178,267,612,-4,-2,0,1
15004,8179,267,615,-4,-2,0,1
15009,8177,267,614,-4,-2,0,1
15014,8176,267,613,-4,-2,0,1
15019,8176,266,612,-4,-2,0,1
15024,8176,264,607,-4,-2,0,1
15029,8177,259,608,-4,-2,0,1
15034,8179,257,607,-4,-2,0,1
15039,8182,256,611,-4,-2,0,1
15044,8182,259,609,-4,-2,0,1
15049,8183,258,612,-4,-2,0,1
15054,8186,257,609,-4,-2,0,1
15059,8188,258,611,-4,-2,0,1
15064,8188,257,606,-4,-2,0,1
15069,8189,252,606,-4,-2,0,1
15074,8184,253,605,-4,-2,0,1
15079,8181,248,609,-4,-2,0,1
15084,8178,246,610,-4,-2,0,1
15089,8179,248,610,-4,-2,0,1
15094,8179,250,606,-4,-2,0,1
15099,8178,252,603,-4,-2,0,1
15104,8177,252,604,-4,-2,0,1
15109,8179,252,606,-4,-2,0,1
15114,8180,253,610,-4,-2,0,1
15119,8182,253,607,-4,-2,0,1
15124,8184,254,607,-4,-2,0,1
15129,8185,252,605,-4,-2,0,1
15134,8185,256,605,-4,-2,0,1
15139,8185,259,606,-4,-2,0,1
15144,8185,257,602,-4,-2,0,1
15149,8182,260,604,-4,-2,0,1
15154,8178,259,607,-4,-2,0,1
15159,8179,259,612,-4,-2,0,1
15164,8178,259,615,-4,-2,0,1
15169,8175,260,614,-4,-2,0,1
15174,8174,261,617,-4,-2,0,1
15179,8174,258,616,-4,-2,0,1
15184,8173,258,615,-4,-2,0,1
15189,8173,258,609,-4,-2,0,1
15195,8174,259,608,-4,-2,0,1
15199,8176,259,606,-4,-2,0,1
15205,8177,259,604,-4,-2,0,1
15209,8176,258,601,-4,-2,0,1
15215,8175,259,604,-4,-2,0,1
15220,8175,262,606,-4,-2,0,1
15224,8173,263,604,-4,-2,0,1
15230,8174,268,607,-4,-2,0,1
15235,8175,268,606,-4,-2,0,1
15240,8177,267,607,-4,-2,0,1
15244,8178,264,603,-4,-2,0,1
15250,8179,263,603,-4,-2,0,1
15254,8178,264,608,-4,-2,0,1
15260,8177,264,610,-4,-2,0,1
15265,8178,264,606,-4,-2,0,1
15270,8177,264,604,-4,-2,0,1
15275,8178,262,601,-4,-2,0,1
15280,8177,261,601,-4,-2,0,1
15285,8177,259,604,-4,-2,0,1
15290,8177,259,609,-4,-2,0,1
15295,8178,258,608,-4,-2,0,1
15300,8180,257,607,-4,-2,0,1
15305,8182,256,605,-4,-2,0,1
15310,8181,256,605,-4,-2,0,1
15315,8182,257,603,-4,-2,0,1
15320,8183,256,597,-4,-2,0,1
15325,8184,257,597,-4,-2,0,1
15330,8186,258,597,-4,-2,0,1
15335,8186,257,600,-4,-2,0,1
15340,8188,256,602,-4,-2,0,1
15345,8191,253,599,-4,-2,0,1
15350,8191,255,599,-4,-2,0,1
15355,8191,257,602,-4,-2,0,1
15360,8186,260,602,-4,-2,0,1
15365,8182,261,604,-4,-2,0,1
15370,8183,263,608,-4,-2,0,1
15375,8182,265,612,-4,-2,0,1
15380,8179,264,617,-4,-2,0,1
15385,8180,263,621,-4,-2,0,1
15390,8180,262,621,-4,-2,0,1
15395,8180,260,623,-4,-2,0,1
15400,8179,261,624,-4,-2,0,1
15405,8175,258,624,-4,-2,0,1
15410,8176,256,622,-4,-2,0,1
15415,8179,254,622,-4,-2,0,1
15420,8182,255,620,-4,-2,0,1
15425,8184,257,618,-4,-2,0,1
15430,8184,256,618,-4,-2,0,1
15435,8184,256,619,-4,-2,0,1
15440,8183,256,615,-4,-2,0,1
15445,8184,258,618,-4,-2,0,1
15450,8181,261,619,-4,-2,0,1
15455,8181,263,617,-4,-2,0,1
15460,8179,263,616,-4,-2,0,1
15465,8177,266,617,-4,-2,0,1
15470,8176,266,616,-4,-2,0,1
15475,8175,267,618,-4,-2,0,1
15480,8174,267,619,-4,-2,0,1
15485,8179,266,616,-4,-2,0,1
15490,8180,264,617,-4,-2,0,1
15495,8184,264,617,-4,-2,0,1
15500,8186,262,613,-4,-2,0,1
15505,8186,260,607,-4,-2,0,1
15510,8185,259,604,-4,-2,0,1
15515,8184,257,604,-4,-2,0,1
15520,8183,258,603,-4,-2,0,1
15525,8185,262,605,-4,-2,0,1
15530,8185,263,608,-4,-2,0,1
15535,8182,265,609,-4,-2,0,1
15540,8180,269,609,-4,-2,0,1
15545,8178,266,606,-4,-2,0,1
15550,8176,264,602,-4,-2,0,1
15555,8177,262,603,-4,-2,0,1
15560,8178,261,604,-4,-2,0,1
15565,8179,258,602,-4,-2,0,1
15570,8179,256,605,-4,-2,0,1
15575,8175,253,606,-4,-2,0,1
15580,8175,248,605,-4,-2,0,1
15585,8176,248,605,-4,-2,0,1
15590,8172,250,607,-4,-2,0,1
15595,8170,257,605,-4,-2,0,1
15600,8171,261,605,-4,-2,0,1
15605,8173,260,604,-4,-2,0,1
15610,8177,261,601,-4,-2,0,1
15615,8180,261,601,-4,-2,0,1
15620,8182,263,604,-4,-2,0,1
15625,8182,265,606,-4,-2,0,1
15630,8184,265,606,-4,-2,0,1
15635,8187,265,606,-4,-2,0,1
15640,8185,263,607,-4,-2,0,1
15645,8186,262,606,-4,-2,0,1
15650,8186,262,609,-4,-2,0,1
15655,8186,261,609,-4,-2,0,1
15660,8183,260,614,-4,-2,0,1
15665,8179,260,613,-4,-2,0,1
15670,8175,262,613,-4,-2,0,1
15675,8175,264,610,-4,-2,0,1
15680,8173,267,608,-4,-2,0,1
15685,8171,268,608,-4,-2,0,1
15690,8171,267,608,-4,-2,0,1
15695,8175,267,608,-4,-2,0,1
15700,8179,266,607,-4,-2,0,1
15705,8182,265,609,-4,-2,0,1
15710,8185,267,609,-4,-2,0,1
15715,8183,268,606,-4,-2,0,1
15720,8182,261,606,-4,-2,0,1
15725,8182,262,606,-4,-2,0,1
15730,8182,265,604,-4,-2,0,1
15736,8184,265,604,-4,-2,0,1
15741,8185,265,608,-4,-2,0,1
15746,8185,262,609,-4,-2,0,1
15751,8183,259,610,-4,-2,0,1
15756,8181,256,607,-4,-2,0,1
15761,8179,254,611,-4,-2,0,1
15765,8179,255,611,-4,-2,0,1
15771,8178,254,615,-4,-2,0,1
15776,8176,257,616,-4,-2,0,1
15781,8175,259,614,-4,-2,0,1
15786,8172,258,614,-4,-2,0,1
15791,8169,255,615,-4,-2,0,1
15796,8167,253,611,-4,-2,0,1
15801,8164,256,611,-4,-2,0,1
15806,8167,259,613,-4,-2,0,1
15811,8172,259,612,-4,-2,0,1
15816,8172,258,610,-4,-2,0,1
15821,8170,256,610,-4,-2,0,1
15826,8167,255,608,-4,-2,0,1
15831,8171,259,611,-4,-2,0,1
15836,8179,257,629,-4,-2,0,1
15841,8177,266,626,-4,-2,0,1
15846,8180,264,624,-4,-2,1,1
15851,8179,269,612,-4,-2,1,1
15856,8177,266,617,-4,-2,1,1
15861,8184,265,627,-5,-2,1,1
15866,8177,267,631,-5,-2,0,1
15871,8174,260,622,-4,-2,0,1
15876,8174,249,623,-4,-2,0,1
15881,8171,250,613,-4,-2,0,1
15886,8173,250,612,-4,-2,0,1
15891,8177,251,614,-4,-2,0,1
15896,8174,253,610,-4,-2,0,1
15901,8175,251,605,-4,-2,0,1
15906,8178,251,604,-4,-2,0,1
15911,8179,251,602,-4,-2,0,1
15916,8177,251,603,-4,-2,0,1
15921,8177,252,608,-4,-2,0,1
15926,8176,254,608,-4,-2,0,1
15931,8176,253,611,-4,-2,0,1
15936,8176,251,610,-4,-2,0,1
15941,8174,253,614,-4,-2,0,1
15946,8176,254,616,-4,-2,0,1
15951,8178,253,615,-4,-2,0,1
15956,8181,253,613,-4,-2,0,1
15961,8179,252,615,-4,-2,0,1
15966,8176,251,611,-4,-2,0,1
15971,8176,247,611,-4,-2,0,1
15976,8175,248,609,-4,-2,0,1
15981,8179,251,606,-4,-2,0,1
15986,8179,253,604,-4,-2,0,1
15991,8178,255,606,-4,-2,0,1
15996,8176,253,605,-4,-2,0,1
16001,8178,252,600,-4,-2,0,1
16006,8180,253,602,-4,-2,0,1
16011,8178,256,601,-4,-2,0,1
16016,8181,261,597,-4,-2,0,1
16021,8183,264,596,-4,-2,0,1
16026,8186,263,598,-4,-2,0,1
16031,8189,261,604,-4,-2,0,1
16036,8192,260,606,-4,-2,0,1
16041,8188,260,610,-4,-2,0,1
16046,8186,262,609,-4,-2,0,1
16051,8184,262,613,-4,-2,0,1
16056,8184,264,614,-4,-2,0,1
16061,8181,261,610,-4,-2,0,1
16066,8181,260,609,-4,-2,0,1
16071,8179,260,608,-4,-2,0,1
16076,8180,258,606,-4,-2,0,1
16081,8181,260,603,-4,-2,0,1
16086,8180,259,599,-4,-2,0,1
16091,8181,260,601,-4,-2,0,1
16096,8181,259,598,-4,-2,0,1
16101,8180,258,598,-4,-2,0,1
16106,8178,256,597,-4,-2,0,1
16111,8178,257,597,-4,-2,0,1
16116,8177,257,604,-4,-2,0,1
16121,8178,255,604,-4,-2,0,1
16126,8178,252,602,-4,-2,0,1
16131,8178,249,602,-4,-2,0,1
16136,8178,251,608,-4,-2,0,1
16141,8178,252,612,-4,-2,0,1
16146,8179,256,610,-4,-2,0,1
16151,8182,258,611,-4,-2,0,1
16156,8182,259,612,-4,-2,0,1
16161,8183,260,607,-4,-2,0,1
16166,8184,260,606,-4,-2,0,1
16171,8182,260,607,-4,-2,0,1
16176,8182,261,612,-4,-2,0,1
16181,8183,264,618,-4,-2,0,1
16186,8182,262,617,-4,-2,0,1
16191,8182,259,617,-4,-2,0,1
16196,8178,260,621,-4,-2,0,1
16201,8179,259,617,-4,-2,0,1
16206,8181,257,614,-4,-2,0,1
16211,8183,257,615,-4,-2,0,1
16216,8183,256,609,-4,-2,0,1
16221,8182,252,612,-4,-2,0,1
16226,8182,252,617,-4,-2,0,1
16231,8183,256,616,-4,-2,0,1
16236,8183,256,612,-4,-2,0,1
16241,8181,255,609,-4,-2,0,1
16246,8182,257,607,-4,-2,0,1
16251,8180,257,611,-4,-2,0,1
16256,8180,257,608,-4,-2,0,1
16262,8181,254,607,-4,-2,0,1
16266,8181,252,605,-4,-2,0,1
16271,8183,252,598,-4,-2,0,1
16277,8181,254,591,-4,-2,0,1
16281,8180,254,595,-4,-2,0,1
16286,8183,253,599,-4,-2,0,1
16292,8180,250,603,-4,-2,0,1
16296,8178,250,606,-4,-2,0,1
16302,8178,249,607,-4,-2,0,1
16307,8178,249,609,-4,-2,0,1
16312,8176,251,612,-4,-2,0,1
16317,8172,251,612,-4,-2,0,1
16322,8172,250,613,-4,-2,0,1
16327,8174,250,612,-4,-2,0,1
16332,8170,249,612,-4,-2,0,1
16337,8166,249,610,-4,-2,0,1
16342,8167,251,609,-4,-2,0,1
16347,8166,254,609,-4,-2,0,1
16352,8168,253,610,-4,-2,0,1
16357,8165,254,609,-4,-2,0,1
16362,8162,255,603,-4,-2,0,1
16367,8162,255,601,-4,-2,0,1
16372,8167,258,604,-4,-2,0,1
16377,8170,258,603,-4,-2,0,1
16382,8171,259,598,-4,-2,0,1
16387,8174,259,598,-4,-2,0,1
16392,8173,258,597,-4,-2,0,1
16397,8170,257,599,-4,-2,0,1
16402,8173,259,601,-4,-2,0,1
16407,8175,260,600,-4,-2,0,1
16412,8176,264,602,-4,-2,0,1
16417,8181,263,604,-4,-2,1,1
16422,8176,262,598,-4,-2,0,1
16427,8175,259,596,-4,-2,0,1
16432,8176,264,595,-4,-2,0,1
16437,8175,264,600,-5,-2,1,1
16442,8176,268,600,-5,-2,1,1
16447,8173,274,593,-5,-2,1,1
16452,8180,276,590,-5,-2,2,1
16457,8175,278,592,-5,-2,2,1
16462,8175,278,594,-6,-2,2,1
16467,8172,280,596,-6,-2,2,1
16472,8130,285,571,-6,-2,3,1
16477,8070,218,569,-7,-1,3,1
16482,8092,214,581,-6,-2,2,1
16487,8129,188,593,-5,-3,0,1
16492,8124,180,588,-4,-2,-2,1
16497,8132,219,569,-4,-3,-2,1
16502,8162,239,597,-4,-2,-1,1
16507,8159,265,582,-4,-2,1,1
16512,8157,257,576,-5,-2,2,1
16517,8171,221,605,-4,-2,2,1
16522,8160,208,569,-4,-2,0,1
16527,8167,212,589,-3,-2,-1,1
16532,8170,238,603,-3,-2,-1,1
16537,8167,263,590,-4,-2,0,1
16542,8171,258,604,-4,-2,2,1
16547,8162,242,597,-4,-2,2,1
16552,8162,219,588,-4,-2,1,1
16557,8161,212,605,-4,-2,-1,1
16562,8163,227,607,-4,-2,-1,1
16567,8169,245,599,-4,-2,-1,1
16572,8174,258,601,-4,-2,1,1
16577,8173,250,598,-4,-2,2,1
16582,8176,230,597,-4,-2,1,1
16587,8177,215,609,-4,-2,0,1
16592,8178,219,606,-4,-2,-1,1
16597,8182,234,596,-4,-2,-1,1
16602,8187,250,597,-4,-2,0,1
16607,8183,259,597,-4,-2,1,1
16612,8177,245,593,-4,-2,2,1
16617,8172,229,596,-4,-2,1,1
16622,8169,219,590,-4,-2,0,1
16627,8169,227,585,-4,-2,-1,1
16632,8173,243,590,-4,-2,0,1
16637,8174,256,593,-4,-2,1,1
16642,8175,252,602,-4,-2,1,1
16647,8174,240,603,-4,-2,1,1
16652,8170,225,598,-4,-2,0,1
16657,8172,223,602,-4,-2,0,1
16662,8175,236,606,-4,-2,-1,1
16667,8174,247,606,-4,-2,0,1
16672,8176,251,609,-4,-2,1,1
16677,8176,244,607,-4,-2,1,1
16682,8173,231,598,-4,-2,1,1
16687,8173,223,596,-4,-2,0,1
16692,8176,232,600,-4,-2,0,1
16697,8179,243,601,-4,-2,0,1
16702,8182,250,604,-4,-2,0,1
16707,8181,245,602,-4,-2,1,1
16712,8178,235,600,-4,-2,1,1
16717,8177,231,596,-4,-2,0,1
16722,8179,229,597,-4,-2,0,1
16727,8178,235,596,-4,-2,0,1
16732,8182,244,602,-4,-2,0,1
16737,8186,247,602,-4,-2,1,1
16742,8184,242,599,-4,-2,1,1
16747,8182,235,601,-4,-2,1,1
16752,8179,229,600,-4,-2,0,1
16757,8181,229,600,-4,-2,0,1
16762,8184,236,598,-4,-2,0,1
16767,8187,241,598,-4,-2,0,1
16772,8189,241,602,-4,-2,1,1
16777,8191,234,603,-4,-2,1,1
16782,8190,229,605,-4,-2,0,1
16787,8189,226,605,-4,-2,0,1
16793,8191,232,605,-4,-2,0,1
16798,8193,238,605,-4,-2,0,1
16803,8191,240,606,-4,-2,1,1
16807,8186,236,611,-4,-2,1,1
16813,8183,233,610,-4,-2,1,1
16818,8177,232,611,-4,-2,0,1
16823,8176,234,613,-4,-2,0,1
16827,8177,238,616,-4,-2,0,1
16833,8176,243,616,-4,-2,0,1
16838,8179,241,619,-4,-2,1,1
16843,8179,237,618,-4,-2,1,1
16848,8178,233,619,-4,-2,0,1
16853,8182,231,618,-4,-2,0,1
16858,8183,238,615,-4,-2,0,1
16863,8183,241,612,-4,-2,0,1
16868,8180,242,615,-4,-2,1,1
16873,8179,238,617,-4,-2,1,1
16878,8180,234,617,-4,-2,0,1
16883,8183,232,617,-4,-2,0,1
16888,8184,236,612,-4,-2,0,1
16893,8185,240,609,-4,-2,0,1
16898,8186,241,611,-4,-2,0,1
16903,8186,239,607,-4,-2,1,1
16908,8184,234,604,-4,-2,0,1
16913,8185,232,602,-4,-2,0,1
16918,8188,235,599,-4,-2,0,1
16923,8190,240,600,-4,-2,0,1
16928,8189,243,599,-4,-2,0,1
16933,8188,245,601,-4,-2,1,1
16938,8187,238,606,-4,-2,1,1
16943,8188,235,611,-4,-2,0,1
16948,8190,234,608,-4,-2,0,1
16953,8188,235,606,-4,-2,0,1
16958,8188,240,605,-4,-2,0,1
16963,8186,243,606,-4,-2,0,1
16968,8184,240,609,-4,-2,0,1
16973,8184,238,607,-4,-2,0,1
16978,8184,234,602,-4,-2,0,1
16983,8184,239,599,-4,-2,0,1
16988,8186,244,599,-4,-2,0,1
16993,8186,246,600,-4,-2,0,1
16998,8186,247,603,-4,-2,0,1
17003,8184,247,606,-4,-2,0,1
17008,8182,247,610,-4,-2,0,1
17013,8183,248,608,-4,-2,0,1
17018,8185,250,611,-4,-2,0,1
17023,8183,252,611,-4,-2,0,1
17028,8179,250,613,-4,-2,0,1
17033,8177,248,614,-4,-2,0,1
17038,8175,242,615,-4,-2,0,1
17043,8176,239,615,-4,-2,0,1
17048,8179,240,618,-4,-2,0,1
17053,8183,243,616,-4,-2,0,1
17058,8186,246,611,-4,-2,0,1
17063,8184,246,609,-4,-2,0,1
17068,8182,241,607,-4,-2,0,1
17073,8182,238,612,-4,-2,0,1
17078,8182,238,612,-4,-2,0,1
17083,8182,239,609,-4,-2,0,1
17088,8183,242,609,-4,-2,0,1
17093,8186,242,606,-4,-2,0,1
17098,8186,242,608,-4,-2,0,1
17103,8185,237,612,-4,-2,0,1
17108,8184,235,612,-4,-2,0,1
17113,8182,233,608,-4,-2,0,1
17118,8184,235,608,-4,-2,0,1
17123,8183,236,611,-4,-2,0,1
17128,8182,236,610,-4,-2,0,1
17133,8185,236,609,-4,-2,0,1
17138,8184,238,610,-4,-2,0,1
17143,8182,240,608,-4,-2,0,1
17148,8183,242,608,-4,-2,0,1
17153,8182,241,609,-4,-2,0,1
17158,8183,240,615,-4,-2,0,1
17163,8184,238,618,-4,-2,0,1
17168,8185,238,616,-4,-2,0,1
17173,8184,238,612,-4,-2,0,1
17178,8184,237,609,-4,-2,0,1
17183,8183,235,608,-4,-2,0,1
17188,8179,233,611,-4,-2,0,1
17193,8178,233,617,-4,-2,0,1
17198,8178,232,612,-4,-2,0,1
17203,8177,227,611,-4,-2,0,1
17208,8179,228,612,-4,-2,0,1
17213,8183,229,611,-4,-2,0,1
17218,8183,232,615,-4,-2,0,1
17223,8183,232,613,-4,-2,0,1
17228,8181,234,614,-4,-2,0,1
17233,8183,235,615,-4,-2,0,1
17238,8181,234,615,-4,-2,0,1
17243,8179,235,615,-4,-2,0,1
17248,8177,235,610,-4,-2,0,1
17253,8175,236,611,-4,-2,0,1
17258,8173,237,615,-4,-2,0,1
17263,8172,234,616,-4,-2,0,1
17268,8176,233,618,-4,-2,0,1
17273,8182,234,618,-4,-2,0,1
17278,8184,236,616,-4,-2,0,1
17283,8184,236,618,-4,-2,0,1
17288,8181,239,619,-4,-2,0,1
17293,8182,239,621,-4,-2,0,1
17298,8181,240,622,-4,-2,0,1
17303,8181,236,622,-4,-2,0,1
17308,8180,234,623,-4,-2,0,1
17313,8179,234,620,-4,-2,0,1
17318,8179,232,621,-4,-2,0,1
17324,8179,231,623,-4,-2,0,1
17329,8176,232,625,-4,-2,0,1
17333,8176,234,625,-4,-2,0,1
17338,8177,235,623,-4,-2,0,1
17343,8180,237,624,-4,-2,0,1
17348,8182,234,624,-4,-2,0,1
17354,8181,233,627,-4,-2,0,1
17359,8178,235,630,-4,-2,0,1
17363,8179,234,630,-4,-2,0,1
17369,8177,234,629,-4,-2,0,1
17373,8177,233,627,-4,-2,0,1
17379,8177,235,627,-4,-2,0,1
17384,8178,235,626,-4,-2,0,1
17389,8179,235,622,-4,-2,0,1
17394,8176,235,619,-4,-2,0,1
17399,8177,236,618,-4,-2,0,1
17404,8181,235,621,-4,-2,0,1
17409,8182,234,622,-4,-2,0,1
17414,8180,234,623,-4,-2,0,1
17419,8177,233,627,-4,-2,0,1
17424,8179,233,627,-4,-2,0,1
17429,8182,234,630,-4,-2,0,1
17434,8182,233,627,-4,-2,0,1
17439,8180,232,622,-4,-2,0,1
17444,8179,235,620,-4,-2,0,1
17449,8176,236,620,-4,-2,0,1
17454,8177,234,623,-4,-2,0,1
17459,8180,233,618,-4,-2,0,1
17464,8179,234,621,-4,-2,0,1
17469,8181,235,622,-4,-2,0,1
17474,8184,235,618,-4,-2,0,1
17479,8185,238,616,-4,-2,0,1
17484,8186,237,610,-4,-2,0,1
17489,8187,235,610,-4,-2,0,1
17494,8186,234,609,-4,-2,0,1
17499,8183,234,606,-4,-2,0,1
17504,8184,237,606,-4,-2,0,1
17509,8184,237,607,-4,-2,0,1
17514,8183,238,609,-4,-2,0,1
17519,8181,238,612,-4,-2,0,1
17524,8182,237,614,-4,-2,0,1
17529,8181,238,612,-4,-2,0,1
17534,8181,238,615,-4,-2,0,1
17539,8182,237,612,-4,-2,0,1
17544,8179,242,608,-4,-2,0,1
17549,8176,240,607,-4,-2,0,1
17554,8174,239,613,-4,-2,0,1
17559,8175,238,613,-4,-2,0,1
17564,8172,239,614,-4,-2,0,1
17569,8170,237,616,-4,-2,0,1
17574,8168,238,614,-4,-2,0,1
17579,8167,241,613,-4,-2,0,1
17584,8165,243,610,-4,-2,0,1
17589,8166,243,610,-4,-2,0,1
17594,8166,245,615,-4,-2,0,1
17599,8169,246,622,-4,-2,0,1
17604,8170,249,624,-4,-2,0,1
17609,8171,247,620,-4,-2,0,1
17614,8171,244,618,-4,-2,0,1
17619,8172,242,615,-4,-2,0,1
17624,8174,239,623,-4,-2,0,1
17629,8174,240,621,-4,-2,0,1
17634,8174,240,622,-4,-2,0,1
17639,8175,241,626,-4,-2,0,1
17644,8175,244,629,-4,-2,0,1
17649,8175,244,631,-4,-2,0,1
17654,8177,242,633,-4,-2,0,1
17659,8177,243,630,-4,-2,0,1
17664,8179,244,629,-4,-2,0,1
17669,8180,240,632,-4,-2,0,1
17674,8178,241,627,-4,-2,0,1
17679,8178,238,628,-4,-2,0,1
17684,8175,239,626,-4,-2,0,1
17689,8174,237,620,-4,-2,0,1
17694,8175,237,619,-4,-2,0,1
17699,8175,239,620,-4,-2,0,1
17704,8177,239,616,-4,-2,0,1
17709,8174,239,614,-4,-2,0,1
17714,8175,241,612,-4,-2,0,1
17719,8178,240,612,-4,-2,0,1
17724,8177,238,610,-4,-2,0,1
17729,8179,240,609,-4,-2,0,1
17734,8181,242,608,-4,-2,0,1
17739,8181,246,607,-4,-2,1,1
17744,8182,247,607,-4,-2,1,1
17749,8179,251,604,-4,-2,1,1
17754,8180,242,602,-4,-2,1,1
17759,8173,242,594,-4,-2,1,1
17764,8177,232,602,-4,-2,1,1
17769,8172,230,602,-4,-2,0,1
17774,8173,230,604,-4,-2,0,1
17779,8176,238,604,-4,-2,0,1
17784,8179,243,604,-4,-2,0,1
17789,8182,245,606,-4,-2,1,1
17794,8184,245,614,-4,-2,1,1
17799,8186,247,617,-4,-2,1,1
17804,8182,236,639,-4,-2,1,1
17809,8169,243,635,-4,-2,1,1
17814,8179,239,623,-5,-2,2,1
17819,8171,250,615,-5,-2,2,1
17824,8168,245,619,-5,-2,2,1
17829,8164,251,620,-6,-2,2,1
17834,8165,250,620,-6,-2,3,1
17839,8171,249,624,-6,-2,4,1
17844,8173,242,620,-7,-2,4,1
17849,8176,237,619,-7,-2,5,1
17854,8180,230,619,-7,-2,5,1
17859,8180,223,618,-8,-2,5,1
17864,8184,224,617,-9,-2,5,1
17869,8185,228,627,-9,-2,5,1
17874,8329,216,760,-10,-2,4,1
17879,8319,168,686,-8,-1,2,1
17885,8326,134,666,-7,-3,0,1
17890,8338,116,668,-6,-3,-2,1
17895,8292,144,605,-4,-2,-2,1
17900,8304,162,620,-4,-2,-1,1
17905,8262,176,587,-4,-2,0,1
17910,8262,192,580,-4,-2,1,1
17915,8269,165,608,-5,-2,1,1
17920,8225,181,603,-4,-2,0,1
17925,8262,142,631,-4,-3,0,1
17930,8255,174,665,-4,-2,0,1
17935,8242,177,643,-4,-2,1,1
17940,8230,176,616,-4,-2,1,1
17945,8222,169,622,-4,-2,1,1
17950,8215,161,601,-4,-2,0,1
17955,8211,165,618,-4,-2,-1,1
17960,8208,177,621,-4,-2,-1,1
17965,8211,193,620,-4,-2,0,1
17970,8206,193,625,-4,-2,1,1
17975,8200,183,625,-4,-2,1,1
17980,8195,170,615,-4,-2,1,1
17985,8191,167,615,-4,-2,0,1
17990,8194,178,619,-4,-2,-1,1
17995,8191,192,613,-4,-2,0,1
18000,8196,196,623,-4,-2,1,1
18005,8191,189,619,-4,-2,1,1
18010,8187,179,612,-4,-2,1,1
18015,8189,171,611,-4,-2,0,1
18020,8190,176,611,-4,-2,0,1
18025,8193,183,612,-4,-2,0,1
18030,8189,191,617,-4,-2,1,1
18035,8187,188,614,-4,-2,1,1
18040,8178,180,610,-4,-2,1,1
18045,8177,173,610,-4,-2,0,1
18050,8176,175,614,-4,-2,0,1
18055,8177,181,614,-4,-2,0,1
18060,8184,188,617,-4,-2,0,1
18065,8184,191,616,-4,-2,1,1
18070,8181,187,614,-4,-2,1,1
18075,8182,179,610,-4,-2,0,1
18080,8182,178,608,-4,-2,0,1
18085,8187,181,611,-4,-2,0,1
18090,8190,182,618,-4,-2,0,1
18095,8189,183,620,-4,-2,1,1
18100,8183,180,616,-4,-2,1,1
18105,8182,177,616,-4,-2,0,1
18110,8179,177,611,-4,-2,0,1
18115,8177,182,606,-4,-2,0,1
18120,8176,186,610,-4,-2,0,1
18125,8174,187,613,-4,-2,0,1
18130,8174,184,611,-4,-2,1,1
18135,8174,180,611,-4,-2,0,1
18140,8174,178,611,-4,-2,0,1
18145,8179,181,611,-4,-2,0,1
18150,8179,184,618,-4,-2,0,1
18155,8177,184,618,-4,-2,0,1
18160,8177,184,618,-4,-2,0,1
18165,8180,185,619,-4,-2,0,1
18170,8179,184,616,-4,-2,0,1
18175,8177,187,616,-4,-2,0,1
18180,8176,189,619,-4,-2,0,1
18185,8173,188,615,-4,-2,0,1
18190,8174,187,619,-4,-2,0,1
18195,8177,185,617,-4,-2,0,1
18200,8176,185,620,-4,-2,0,1
18205,8177,186,622,-4,-2,0,1
18210,8182,185,622,-4,-2,0,1
18215,8181,187,620,-4,-2,0,1
18220,8179,185,617,-4,-2,0,1
18225,8178,182,615,-4,-2,0,1
18230,8175,179,612,-4,-2,0,1
18235,8172,178,613,-4,-2,0,1
18240,8174,178,618,-4,-2,0,1
18245,8174,177,615,-4,-2,0,1
18250,8171,174,613,-4,-2,0,1
18255,8172,174,612,-4,-2,0,1
18260,8178,177,609,-4,-2,0,1
18265,8181,181,611,-4,-2,0,1
18270,8184,180,608,-4,-2,0,1
18275,8184,180,605,-4,-2,0,1
18280,8185,179,604,-4,-2,0,1
18285,8184,177,604,-4,-2,0,1
18290,8185,179,606,-4,-2,0,1
18295,8185,181,609,-4,-2,0,1
18300,8186,183,610,-4,-2,0,1
18305,8189,185,612,-4,-2,0,1
18310,8190,186,613,-4,-2,0,1
18315,8191,187,612,-4,-2,0,1
18320,8191,182,609,-4,-2,0,1
18325,8191,183,609,-4,-2,0,1
18330,8191,184,612,-4,-2,0,1
18335,8189,186,612,-4,-2,0,1
18340,8188,184,613,-4,-2,0,1
18345,8185,184,618,-4,-2,0,1
18350,8184,181,619,-4,-2,0,1
18355,8182,181,618,-4,-2,0,1
18360,8178,181,617,-4,-2,0,1
18365,8177,183,621,-4,-2,0,1
18370,8175,183,628,-4,-2,0,1
18375,8179,179,630,-4,-2,0,1
18380,8178,181,625,-4,-2,0,1
18386,8178,179,620,-4,-2,0,1
18391,8177,182,622,-4,-2,0,1
18395,8176,179,620,-4,-2,0,1
18400,8174,181,616,-4,-2,0,1
18405,8175,178,615,-4,-2,0,1
18411,8177,182,612,-4,-2,0,1
18415,8176,183,613,-4,-2,0,1
18421,8173,183,614,-4,-2,0,1
18426,8172,186,613,-4,-2,0,1
18431,8169,187,616,-4,-2,0,1
18436,8169,184,621,-4,-2,0,1
18441,8167,183,624,-4,-2,0,1
18446,8167,181,623,-4,-2,0,1
18451,8169,181,615,-4,-2,0,1
18456,8170,182,614,-4,-2,0,1
18461,8174,180,617,-4,-2,0,1
18466,8175,179,617,-4,-2,0,1
18471,8176,177,617,-4,-2,0,1
18476,8176,177,622,-4,-2,0,1
18481,8176,178,623,-4,-2,0,1
18486,8178,179,622,-4,-2,0,1
18491,8177,182,621,-4,-2,0,1
18496,8176,183,619,-4,-2,0,1
18501,8176,187,622,-4,-2,0,1
18506,8177,189,623,-4,-2,0,1
18511,8176,187,621,-4,-2,0,1
18516,8176,185,617,-4,-2,0,1
18521,8176,182,611,-4,-2,0,1
18526,8176,175,608,-4,-2,0,1
18531,8176,173,608,-4,-2,0,1
18536,8178,172,611,-4,-2,0,1
18541,8181,176,612,-4,-2,0,1
18546,8178,178,609,-4,-2,0,1
18551,8178,180,613,-4,-2,0,1
18556,8179,183,620,-4,-2,0,1
18561,8184,186,624,-4,-2,0,1
18566,8184,186,626,-4,-2,0,1
18571,8182,186,627,-4,-2,0,1
18576,8179,186,630,-4,-2,0,1
18581,8177,186,634,-4,-2,0,1
18586,8180,182,636,-4,-2,0,1
18591,8182,182,634,-4,-2,0,1
18596,8178,181,633,-4,-2,0,1
18601,8177,181,630,-4,-2,0,1
18606,8177,176,625,-4,-2,0,1
18611,8175,172,624,-4,-2,0,1
18616,8173,174,617,-4,-2,0,1
18621,8174,177,614,-4,-2,0,1
18626,8177,181,613,-4,-2,0,1
18631,8179,180,610,-4,-2,0,1
18636,8182,177,617,-4,-2,0,1
18641,8183,177,611,-4,-2,0,1
18646,8185,173,615,-4,-2,0,1
18651,8183,171,610,-4,-2,0,1
18656,8181,172,612,-4,-2,0,1
18661,8179,173,611,-4,-2,0,1
18666,8178,172,612,-4,-2,0,1
18671,8177,170,614,-4,-2,0,1
18676,8179,169,613,-4,-2,0,1
18681,8183,171,613,-4,-2,0,1
18686,8184,174,615,-4,-2,0,1
18691,8183,175,617,-4,-2,0,1
18696,8183,176,613,-4,-2,0,1
18701,8183,177,613,-4,-2,0,1
18706,8181,179,614,-4,-2,0,1
18711,8179,176,615,-4,-2,0,1
18716,8179,177,613,-4,-2,0,1
18721,8179,180,615,-4,-2,0,1
18726,8180,179,616,-4,-2,0,1
18731,8179,183,619,-4,-2,0,1
18736,8176,187,620,-4,-2,0,1
18741,8176,186,622,-4,-2,0,1
18746,8180,187,622,-4,-2,0,1
18751,8177,187,625,-4,-2,0,1
18756,8179,186,624,-4,-2,0,1
18761,8177,182,625,-4,-2,0,1
18766,8177,179,625,-4,-2,0,1
18771,8175,178,624,-4,-2,0,1
18776,8174,179,621,-4,-2,0,1
18781,8171,178,620,-4,-2,0,1
18786,8170,178,620,-4,-2,0,1
18791,8171,177,617,-4,-2,0,1
18796,8170,176,614,-4,-2,0,1
18801,8172,179,618,-4,-2,0,1
18806,8172,179,619,-4,-2,0,1
18811,8172,179,621,-4,-2,0,1
18816,8173,179,622,-4,-2,0,1
18821,8173,181,619,-4,-2,0,1
18826,8174,182,616,-4,-2,0,1
18831,8175,179,619,-4,-2,0,1
18836,8176,176,616,-4,-2,0,1
18841,8177,179,612,-4,-2,0,1
18846,8179,179,610,-4,-2,0,1
18851,8176,181,609,-4,-2,0,1
18856,8177,182,609,-4,-2,0,1
18861,8174,181,611,-4,-2,0,1
18866,8175,180,610,-4,-2,0,1
18871,8173,178,612,-4,-2,0,1
18876,8173,178,617,-4,-2,0,1
18881,8172,179,613,-4,-2,0,1
18886,8173,179,610,-4,-2,0,1
18891,8176,180,608,-4,-2,0,1
18897,8179,183,607,-4,-2,0,1
18901,8183,184,605,-4,-2,0,1
18906,8186,183,608,-4,-2,0,1
18912,8185,183,608,-4,-2,0,1
18917,8183,185,609,-4,-2,0,1
18922,8180,183,611,-4,-2,0,1
18927,8182,184,612,-4,-2,0,1
18932,8183,184,609,-4,-2,0,1
18937,8183,186,610,-4,-2,0,1
18942,8186,186,604,-4,-2,0,1
18947,8185,184,603,-4,-2,0,1
18952,8183,183,604,-4,-2,0,1
18957,8181,183,601,-4,-2,0,1
18962,8181,182,602,-4,-2,0,1
18967,8180,181,605,-4,-2,0,1
18972,8178,181,608,-4,-2,0,1
18977,8177,180,610,-4,-2,0,1
18982,8177,178,607,-4,-2,0,1
18987,8176,177,606,-4,-2,0,1
18992,8176,179,609,-4,-2,0,1
18997,8175,177,610,-4,-2,0,1
19002,8171,178,608,-4,-2,0,1
19007,8173,176,608,-4,-2,0,1
19012,8176,176,607,-4,-2,0,1
19017,8179,175,610,-4,-2,0,1
19022,8183,174,613,-4,-2,0,1
19027,8183,172,614,-4,-2,0,1
19032,8182,171,611,-4,-2,0,1
19037,8181,172,610,-4,-2,0,1
19042,8180,174,609,-4,-2,0,1
19047,8180,175,608,-4,-2,0,1
19052,8176,175,610,-4,-2,0,1
19057,8173,175,608,-4,-2,0,1
19062,8175,176,612,-4,-2,0,1
19067,8174,177,613,-4,-2,0,1
19072,8172,178,614,-4,-2,0,1
19077,8173,180,616,-4,-2,0,1
19082,8175,178,620,-4,-2,0,1
19087,8180,176,621,-4,-2,0,1
19092,8182,177,621,-4,-2,0,1
19097,8184,182,624,-4,-2,0,1
19102,8183,182,626,-4,-2,0,1
19107,8185,181,628,-4,-2,0,1
19112,8186,183,625,-4,-2,0,1
19117,8184,183,622,-4,-2,0,1
19122,8180,186,623,-4,-2,0,1
19127,8182,184,624,-4,-2,0,1
19132,8183,184,627,-4,-2,0,1
19137,8185,186,628,-4,-2,0,1
19142,8180,187,627,-4,-2,0,1
19147,8178,188,625,-4,-2,0,1
19152,8178,187,625,-4,-2,0,1
19157,8181,186,624,-4,-2,0,1
19162,8180,185,619,-4,-2,0,1
19167,8180,188,616,-4,-2,0,1
19172,8180,188,616,-4,-2,0,1
19177,8179,186,617,-4,-2,0,1
19182,8182,183,617,-4,-2,0,1
19187,8181,177,615,-4,-2,0,1
19192,8181,175,613,-4,-2,0,1
19197,8182,175,613,-4,-2,0,1
19202,8180,176,610,-4,-2,0,1
19207,8182,176,608,-4,-2,0,1
19212,8178,174,604,-4,-2,0,1
19217,8175,176,603,-4,-2,0,1
19222,8175,177,609,-4,-2,0,1
19227,8177,176,609,-4,-2,0,1
19232,8179,178,613,-4,-2,0,1
19237,8179,179,619,-4,-2,0,1
19242,8178,180,619,-4,-2,0,1
19247,8178,180,619,-4,-2,0,1
19252,8177,179,617,-4,-2,0,1
19257,8174,179,613,-4,-2,0,1
19262,8174,179,608,-4,-2,0,1
19267,8172,177,610,-4,-2,0,1
19272,8169,174,610,-4,-2,0,1
19277,8170,172,610,-4,-2,0,1
19282,8169,172,606,-4,-2,0,1
19287,8173,174,607,-4,-2,0,1
19292,8178,176,612,-4,-2,0,1
19297,8181,177,613,-4,-2,0,1
19302,8183,174,610,-4,-2,0,1
19307,8185,176,605,-4,-2,0,1
19312,8185,176,602,-4,-2,0,1
19317,8182,175,606,-4,-2,0,1
19322,8180,175,604,-4,-2,0,1
19327,8181,175,605,-4,-2,0,1
19332,8182,176,606,-4,-2,0,1
19337,8185,176,608,-4,-2,0,1
19342,8182,177,606,-4,-2,0,1
19347,8182,178,609,-4,-2,0,1
19352,8180,178,608,-4,-2,1,1
19357,8180,174,608,-4,-2,1,1
19362,8181,174,604,-4,-2,1,1
19367,8182,175,606,-4,-2,1,1
19372,8182,177,608,-4,-2,1,1
19377,8182,180,606,-4,-2,1,1
19382,8181,181,608,-4,-2,1,1
19387,8182,181,607,-4,-2,1,1
19393,8184,177,607,-4,-2,1,1
19397,8185,175,610,-4,-2,0,1
19402,8183,177,609,-4,-2,0,1
19408,8183,180,617,-4,-2,0,1
19412,8184,180,615,-4,-2,1,1
19417,8182,177,620,-4,-2,1,1
19422,8180,177,623,-4,-2,1,1
19427,8179,180,623,-4,-2,0,1
19433,8182,179,625,-4,-2,0,1
19437,8182,182,627,-4,-2,0,1
19443,8180,184,623,-4,-2,1,1
19448,8181,185,620,-4,-2,1,1
19453,8181,180,615,-4,-2,1,1
19458,8180,176,612,-4,-2,1,1
19463,8175,177,616,-4,-2,1,1
19468,8175,175,617,-4,-2,1,1
19473,8176,172,616,-4,-2,1,1
19478,8176,171,615,-4,-2,1,1
19483,8179,169,612,-4,-2,1,1
19488,8179,169,614,-4,-2,1,1
19493,8178,171,618,-4,-2,1,1
19498,8178,174,622,-4,-2,1,1
19503,8180,174,621,-4,-2,1,1
19508,8179,172,620,-4,-2,1,1
19513,8179,171,616,-4,-2,1,1
19518,8180,173,618,-4,-2,1,1
19523,8178,173,614,-4,-2,1,1
19528,8179,173,613,-4,-2,1,1
19533,8181,173,613,-4,-2,1,1
19538,8182,172,616,-4,-2,1,1
19543,8180,172,615,-4,-2,1,1
19548,8183,173,616,-4,-2,1,1
19553,8184,173,610,-4,-2,0,1
19558,8186,174,610,-4,-2,0,1
19563,8183,174,612,-4,-2,0,1
19568,8181,172,616,-4,-2,1,1
19573,8180,173,617,-4,-2,1,1
19578,8180,170,617,-4,-2,1,1
19583,8179,166,612,-4,-2,1,1
19588,8179,161,605,-4,-2,0,1
19593,8184,160,607,-4,-2,0,1
19598,8184,160,608,-4,-2,0,1
19603,8182,158,608,-4,-2,1,1
19608,8180,158,605,-4,-2,1,1
19613,8181,157,607,-4,-2,0,1
19618,8183,160,609,-4,-2,0,1
19623,8186,160,611,-4,-2,0,1
19628,8188,159,611,-4,-2,0,1
19633,8188,158,608,-4,-2,0,1
19638,8185,162,610,-4,-2,0,1
19643,8183,164,611,-4,-2,0,1
19648,8181,164,616,-4,-2,0,1
19653,8180,164,620,-4,-2,0,1
19658,8182,163,622,-4,-2,0,1
19663,8182,161,625,-4,-2,0,1
19668,8180,162,627,-4,-2,0,1
19673,8179,162,621,-4,-2,0,1
19678,8177,162,620,-4,-2,0,1
19683,8176,162,618,-4,-2,0,1
19688,8178,164,614,-4,-2,0,1
19693,8178,165,612,-4,-2,0,1
19698,8181,163,613,-4,-2,1,1
19703,8180,162,617,-4,-2,1,1
19708,8178,164,615,-4,-2,0,1
19713,8175,165,614,-4,-2,0,1
19718,8175,166,614,-4,-2,0,1
19723,8176,165,618,-4,-2,0,1
19728,8178,163,622,-4,-2,0,1
19733,8177,163,620,-4,-2,0,1
19738,8175,163,619,-4,-2,0,1
19743,8177,164,618,-4,-2,0,1
19748,8177,163,618,-4,-2,0,1
19753,8174,161,618,-4,-2,0,1
19758,8178,164,619,-4,-2,0,1
19763,8175,166,615,-4,-2,0,1
19768,8175,162,614,-4,-2,0,1
19773,8178,159,615,-4,-2,0,1
19778,8176,157,615,-4,-2,0,1
19783,8173,160,615,-4,-2,0,1
19788,8172,162,616,-4,-2,0,1
19793,8175,161,617,-4,-2,1,1
19798,8175,162,615,-4,-2,1,1
19803,8176,162,613,-4,-2,1,1
19808,8177,160,614,-4,-2,0,1
19813,8179,159,615,-4,-2,1,1
19818,8179,158,617,-4,-2,0,1
19823,8178,159,618,-4,-2,0,1
19828,8176,162,617,-4,-2,0,1
19833,8176,163,617,-4,-2,0,1
19838,8178,160,614,-4,-2,0,1
19843,8174,160,606,-4,-2,0,1
19848,8172,162,603,-4,-2,0,1
19853,8172,163,606,-4,-2,0,1
19858,8175,161,609,-4,-2,0,1
19863,8176,160,610,-4,-2,0,1
19868,8176,160,609,-4,-2,0,1
19873,8175,163,606,-4,-2,0,1
19878,8175,164,606,-4,-2,0,1
19883,8176,166,605,-4,-2,0,1
19888,8178,167,604,-4,-2,0,1
19893,8179,164,606,-4,-2,0,1
19898,8179,165,606,-4,-2,0,1
19903,8178,162,607,-4,-2,0,1
19908,8182,160,605,-4,-2,0,1
19913,8187,158,608,-4,-2,0,1
19918,8185,158,610,-4,-2,0,1
19923,8183,162,610,-4,-2,0,1
19928,8179,164,613,-4,-2,0,1
19933,8179,165,608,-4,-2,0,1
19938,8177,166,605,-4,-2,0,1
19943,8179,164,605,-4,-2,0,1
19949,8179,160,610,-4,-2,0,1
19953,8181,158,610,-4,-2,0,1
19958,8180,158,609,-4,-2,0,1
19964,8178,159,611,-4,-2,0,1
19969,8178,160,612,-4,-2,0,1
19974,8179,163,611,-4,-2,0,1
19978,8180,165,606,-4,-2,0,1
19984,8179,166,609,-4,-2,0,1
19989,8180,166,611,-4,-2,0,1
19994,8181,168,610,-4,-2,0,1
19999,8179,169,611,-4,-2,0,1
20004,8177,167,604,-4,-2,0,1
20009,8176,167,604,-4,-2,0,1
20014,8176,166,608,-4,-2,0,1
20019,8173,164,607,-4,-2,0,1
20024,8175,165,604,-4,-2,0,1
20029,8176,166,604,-4,-2,0,1
20034,8174,164,606,-4,-2,0,1
20039,8171,162,609,-4,-2,0,1
20044,8174,160,609,-4,-2,0,1
20049,8177,159,612,-4,-2,0,1
20054,8182,159,609,-4,-2,0,1
20059,8181,156,608,-4,-2,0,1
20064,8180,156,605,-4,-2,0,1
20069,8182,156,609,-4,-2,0,1
20074,8180,158,609,-4,-2,0,1
20079,8178,160,607,-4,-2,0,1
20084,8178,159,611,-4,-2,0,1
20089,8179,156,611,-4,-2,0,1
20094,8179,156,610,-4,-2,0,1
20099,8179,155,609,-4,-2,0,1
20104,8178,154,608,-4,-2,0,1
20109,8177,155,609,-4,-2,0,1
20114,8179,153,611,-4,-2,0,1
20119,8182,152,614,-4,-2,0,1
20124,8178,153,617,-4,-2,0,1
20129,8176,153,618,-4,-2,0,1
20134,8175,155,617,-4,-2,0,1
20139,8176,157,615,-4,-2,0,1
20144,8178,158,614,-4,-2,0,1
20149,8179,158,612,-4,-2,0,1
20154,8180,160,613,-4,-2,0,1
20159,8180,159,612,-4,-2,0,1
20164,8178,160,613,-4,-2,0,1
20169,8178,163,614,-4,-2,0,1
20174,8175,163,615,-4,-2,0,1
20179,8177,162,614,-4,-2,0,1
20184,8181,163,617,-4,-2,0,1
20189,8183,162,621,-4,-2,0,1
20194,8184,160,620,-4,-2,0,1
20199,8183,157,619,-4,-2,0,1
20204,8183,155,620,-4,-2,0,1
20209,8182,156,619,-4,-2,0,1
20214,8183,158,619,-4,-2,0,1
20219,8183,160,620,-4,-2,0,1
20224,8178,161,622,-4,-2,0,1
20229,8176,161,618,-4,-2,0,1
20234,8177,159,615,-4,-2,0,1
20239,8176,158,614,-4,-2,0,1
20244,8175,155,617,-4,-2,0,1
20249,8177,154,615,-4,-2,0,1
20254,8178,156,614,-4,-2,0,1
20259,8177,156,616,-4,-2,0,1
20264,8179,154,614,-4,-2,0,1
20269,8181,154,611,-4,-2,0,1
20274,8181,154,610,-4,-2,1,1
20279,8183,157,608,-4,-2,1,1
20284,8179,159,606,-4,-2,1,1
20289,8176,161,608,-4,-2,1,1
20294,8177,163,608,-4,-2,1,1
20299,8178,164,607,-4,-2,1,1
20304,8179,165,604,-4,-2,0,1
20309,8181,161,604,-4,-2,1,1
20314,8181,158,602,-4,-2,0,1
20319,8181,159,605,-4,-2,0,1
20324,8181,159,605,-4,-2,0,1
20329,8183,157,611,-4,-2,0,1
20334,8180,160,612,-4,-2,0,1
20339,8177,159,613,-4,-2,0,1
20344,8177,155,616,-4,-2,0,1
20349,8175,156,617,-4,-2,0,1
20354,8176,154,619,-4,-2,0,1
20359,8174,153,622,-4,-2,0,1
20364,8175,152,625,-4,-2,0,1
20369,8179,155,624,-4,-2,0,1
20374,8180,155,623,-4,-2,0,1
20379,8181,153,623,-4,-2,0,1
20384,8182,152,628,-4,-2,0,1
20389,8184,151,627,-4,-2,0,1
20394,8184,150,624,-4,-2,0,1
20399,8184,150,620,-4,-2,0,1
20404,8185,148,620,-4,-2,0,1
20409,8187,150,620,-4,-2,0,1
20414,8183,153,620,-4,-2,0,1
20419,8183,151,619,-4,-2,0,1
20424,8182,152,619,-4,-2,0,1
20429,8183,155,617,-4,-2,0,1
20434,8181,157,618,-4,-2,0,1
20439,8181,157,614,-4,-2,0,1
20444,8181,156,610,-4,-2,0,1
20449,8176,155,610,-4,-2,0,1
20454,8175,153,609,-4,-2,0,1
20459,8173,149,616,-4,-2,0,1
20464,8173,148,617,-4,-2,0,1
20469,8174,150,620,-4,-2,0,1
20475,8175,151,621,-4,-2,0,1
20479,8174,152,620,-4,-2,0,1
20484,8177,154,615,-4,-2,0,1
20489,8179,155,619,-4,-2,1,1
20495,8179,156,617,-4,-2,1,1
20499,8181,155,616,-4,-2,0,1
20505,8183,153,612,-4,-2,0,1
20510,8188,153,613,-4,-2,0,1
20515,8186,153,614,-4,-2,0,1
20519,8185,153,612,-4,-2,0,1
20525,8182,152,613,-4,-2,0,1
20530,8181,148,614,-4,-2,0,1
20535,8179,146,615,-4,-2,0,1
20540,8176,148,616,-4,-2,0,1
20545,8178,149,614,-4,-2,0,1
20550,8178,150,615,-4,-2,0,1
20555,8182,148,612,-4,-2,0,1
20560,8184,147,614,-4,-2,0,1
20565,8184,147,615,-4,-2,0,1
20570,8181,148,616,-4,-2,0,1
20575,8184,147,618,-4,-2,0,1
20580,8180,145,615,-4,-2,1,1
20585,8182,146,613,-4,-2,0,1
20590,8181,146,615,-4,-2,0,1
20595,8181,150,621,-4,-2,0,1
20600,8181,149,623,-4,-2,0,1
20605,8181,145,620,-4,-2,0,1
20610,8181,147,618,-4,-2,0,1
20615,8180,148,616,-4,-2,0,1
20620,8180,147,614,-4,-2,0,1
20625,8181,147,609,-4,-2,0,1
20630,8182,146,605,-4,-2,0,1
20635,8183,147,606,-4,-2,0,1
20640,8183,146,609,-4,-2,0,1
20645,8181,148,611,-4,-2,0,1
20650,8181,150,609,-4,-2,0,1
20655,8180,153,608,-4,-2,0,1
20660,8179,154,609,-4,-2,0,1
20665,8178,152,611,-4,-2,0,1
20670,8177,151,613,-4,-2,0,1
20675,8180,153,615,-4,-2,0,1
20680,8179,151,612,-4,-2,0,1
20685,8179,149,611,-4,-2,0,1
20690,8180,149,612,-4,-2,0,1
20695,8180,149,614,-4,-2,0,1
20700,8179,148,615,-4,-2,0,1
20705,8177,150,614,-4,-2,0,1
20710,8177,148,616,-4,-2,0,1
20715,8176,146,616,-4,-2,0,1
20720,8177,146,617,-4,-2,0,1
20725,8181,145,619,-4,-2,0,1
20730,8182,145,623,-4,-2,0,1
20735,8183,147,623,-4,-2,0,1
20740,8184,149,620,-4,-2,0,1
20745,8186,148,620,-4,-2,0,1
20750,8185,151,620,-4,-2,0,1
20755,8186,152,620,-4,-2,0,1
20760,8187,150,622,-4,-2,0,1
20765,8186,151,621,-4,-2,0,1
20770,8188,152,619,-4,-2,0,1
20775,8186,151,620,-4,-2,0,1
20780,8184,150,617,-4,-2,1,1
20785,8184,146,615,-4,-2,0,1
20790,8182,146,613,-4,-2,0,1
20795,8183,147,617,-4,-2,0,1
20800,8180,151,621,-4,-2,0,1
20805,8180,153,618,-4,-2,0,1
20810,8182,153,615,-4,-2,0,1
20815,8182,150,613,-4,-2,0,1
20820,8183,149,611,-4,-2,0,1
20825,8181,147,611,-4,-2,0,1
20830,8177,145,610,-4,-2,0,1
20835,8177,148,611,-4,-2,0,1
20840,8178,147,616,-4,-2,0,1
20845,8175,149,612,-4,-2,0,1
20850,8175,147,605,-4,-2,0,1
20855,8173,146,605,-4,-2,0,1
20860,8176,148,605,-4,-2,0,1
20865,8176,148,605,-4,-2,0,1
20870,8176,147,607,-4,-2,0,1
20875,8173,144,608,-4,-2,0,1
20880,8175,141,608,-4,-2,0,1
20885,8175,141,611,-4,-2,0,1
20890,8173,141,611,-4,-2,0,1
20895,8172,141,605,-4,-2,0,1
20900,8173,137,607,-4,-2,0,1
20905,8173,134,612,-4,-2,0,1
20910,8173,136,615,-4,-2,0,1
20915,8174,136,614,-4,-2,0,1
20920,8174,134,612,-4,-2,0,1
20925,8173,135,610,-4,-2,0,1
20930,8172,138,609,-4,-2,0,1
20935,8175,141,609,-4,-2,0,1
20940,8176,144,608,-4,-2,0,1
20945,8176,144,611,-4,-2,1,1
20950,8178,142,606,-4,-2,0,1
20955,8176,139,605,-4,-2,0,1
20960,8177,142,604,-4,-2,0,1
20965,8181,142,601,-4,-2,0,1
20970,8181,145,599,-4,-2,0,1
20975,8180,144,601,-4,-2,0,1
20980,8183,142,606,-4,-2,0,1
20985,8185,141,605,-4,-2,0,1
20990,8185,141,607,-4,-2,0,1
20995,8186,139,607,-4,-2,0,1
21000,8183,138,611,-4,-2,0,1
21005,8180,138,616,-4,-2,0,1
21010,8180,137,615,-4,-2,0,1
21016,8180,134,610,-4,-2,0,1
21020,8180,133,610,-4,-2,0,1
21025,8180,131,613,-4,-2,0,1
21030,8180,128,609,-4,-2,0,1
21036,8179,127,609,-4,-2,0,1
21041,8180,128,608,-4,-2,0,1
21045,8182,131,607,-4,-2,0,1
21050,8184,131,608,-4,-2,0,1
21056,8186,132,606,-4,-2,0,1
21061,8189,133,611,-4,-2,0,1
21065,8188,134,614,-4,-2,0,1
21071,8187,135,613,-4,-2,0,1
21076,8188,136,609,-4,-2,0,1
21081,8186,136,608,-4,-2,0,1
21086,8185,136,609,-4,-2,0,1
21091,8185,136,609,-4,-2,0,1
21096,8185,137,607,-4,-2,0,1
21101,8181,137,609,-4,-2,0,1
21106,8180,136,612,-4,-2,0,1
21111,8178,134,612,-4,-2,0,1
21116,8181,130,611,-4,-2,0,1
21121,8181,127,609,-4,-2,0,1
21126,8180,125,610,-4,-2,0,1
21131,8180,123,612,-4,-2,0,1
21136,8177,122,615,-4,-2,0,1
21141,8175,123,616,-4,-2,0,1
21146,8177,124,611,-4,-2,0,1
21151,8178,127,608,-4,-2,0,1
21156,8180,130,604,-4,-2,0,1
21161,8181,130,603,-4,-2,0,1
21166,8184,130,602,-4,-2,0,1
21171,8184,131,599,-4,-2,0,1
21176,8182,132,600,-4,-2,0,1
21181,8181,131,595,-4,-2,0,1
21186,8181,131,595,-4,-2,0,1
21191,8182,134,599,-4,-2,0,1
21196,8183,137,601,-4,-2,0,1
21201,8184,140,604,-4,-2,0,1
21206,8184,138,607,-4,-2,0,1
21211,8182,137,608,-4,-2,0,1
21216,8183,138,608,-4,-2,0,1
21221,8183,137,611,-4,-2,0,1
21226,8183,134,613,-4,-2,0,1
21231,8184,131,613,-4,-2,0,1
21236,8183,128,609,-4,-2,0,1
21241,8178,128,607,-4,-2,0,1
21246,8177,127,611,-4,-2,0,1
21251,8179,128,612,-4,-2,0,1
21256,8182,131,612,-4,-2,0,1
21261,8183,131,610,-4,-2,0,1
21266,8181,133,611,-4,-2,0,1
21271,8178,134,611,-4,-2,0,1
21276,8175,135,610,-4,-2,0,1
21281,8173,136,612,-4,-2,0,1
21286,8168,135,615,-4,-2,0,1
21291,8170,136,617,-4,-2,0,1
21296,8167,135,616,-4,-2,0,1
21301,8170,134,614,-4,-2,0,1
21306,8168,135,616,-4,-2,0,1
21311,8171,134,615,-4,-2,0,1
21316,8175,133,614,-4,-2,0,1
21321,8176,133,616,-4,-2,0,1
21326,8174,136,615,-4,-2,0,1
21331,8176,138,611,-4,-2,0,1
21336,8177,139,613,-4,-2,0,1
21341,8178,139,613,-4,-2,0,1
21346,8181,139,614,-4,-2,0,1
21351,8179,139,616,-4,-2,0,1
21356,8182,138,613,-4,-2,0,1
21361,8185,138,612,-4,-2,0,1
21366,8184,136,607,-4,-2,0,1
21371,8182,134,610,-4,-2,0,1
21376,8181,135,611,-4,-2,0,1
21381,8181,131,611,-4,-2,0,1
21386,8180,133,606,-4,-2,0,1
21391,8178,135,604,-4,-2,0,1
21396,8179,134,609,-4,-2,0,1
21401,8180,133,612,-4,-2,0,1
21406,8183,131,611,-4,-2,0,1
21411,8178,133,606,-4,-2,0,1
21416,8181,133,602,-4,-2,0,1
21421,8181,134,601,-4,-2,0,1
21426,8184,131,605,-4,-2,0,1
21431,8185,132,605,-4,-2,0,1
21436,8183,133,606,-4,-2,0,1
21441,8182,131,605,-4,-2,0,1
21446,8178,131,606,-4,-2,0,1
21451,8177,132,603,-4,-2,0,1
21456,8173,132,603,-4,-2,0,1
21461,8171,132,604,-4,-2,0,1
21466,8173,132,603,-4,-2,0,1
21471,8174,133,606,-4,-2,0,1
21476,8174,134,614,-4,-2,0,1
21481,8172,133,615,-4,-2,0,1
21486,8174,131,615,-4,-2,0,1
21491,8176,132,616,-4,-2,0,1
21496,8177,130,619,-4,-2,0,1
21501,8181,130,618,-4,-2,0,1
21506,8183,133,618,-4,-2,0,1
21511,8185,133,618,-4,-2,0,1
21516,8185,131,617,-4,-2,0,1
21521,8181,131,613,-4,-2,0,1
21526,8179,134,607,-4,-2,0,1
21531,8177,135,604,-4,-2,0,1
21537,8180,135,604,-4,-2,1,1
21541,8181,131,602,-4,-2,0,1
21546,8184,129,601,-4,-2,1,1
21552,8185,128,608,-4,-2,1,1
21557,8184,129,605,-4,-2,0,1
21561,8181,129,605,-4,-2,1,1
21567,8179,130,607,-4,-2,0,1
21572,8177,128,605,-4,-2,0,1
21577,8177,126,607,-4,-2,0,1
21582,8179,128,610,-4,-2,1,1
21587,8181,130,613,-4,-2,0,1
21592,8183,129,612,-4,-2,0,1
21597,8183,128,611,-4,-2,0,1
21601,8183,123,610,-4,-2,0,1
21607,8182,123,610,-4,-2,0,1
21612,8180,123,608,-4,-2,0,1
21617,8178,125,606,-4,-2,0,1
21622,8177,124,605,-4,-2,0,1
21627,8175,122,605,-4,-2,0,1
21632,8176,122,601,-4,-2,0,1
21637,8174,123,596,-4,-2,0,1
21642,8173,125,598,-4,-2,0,1
21647,8174,125,600,-4,-2,0,1
21652,8175,128,604,-4,-2,0,1
21657,8173,129,605,-4,-2,0,1
21662,8174,129,605,-4,-2,0,1
21667,8175,132,608,-4,-2,0,1
21672,8173,132,607,-4,-2,0,1
21677,8171,133,603,-4,-2,0,1
21682,8171,133,601,-4,-2,0,1
21687,8173,135,601,-4,-2,0,1
21692,8173,135,607,-4,-2,0,1
21697,8176,131,612,-4,-2,0,1
21702,8178,128,611,-4,-2,0,1
21707,8177,129,615,-4,-2,0,1
21712,8175,129,619,-4,-2,0,1
21717,8177,128,616,-4,-2,0,1
21722,8177,127,614,-4,-2,0,1
21727,8178,128,612,-4,-2,0,1
21732,8180,129,614,-4,-2,0,1
21737,8183,131,609,-4,-2,0,1
21742,8185,131,613,-4,-2,0,1
21747,8180,130,612,-4,-2,1,1
21752,8180,129,606,-4,-2,1,1
21757,8182,132,605,-4,-2,1,1
21762,8184,134,604,-4,-2,1,1
21767,8183,132,607,-4,-2,0,1
21772,8182,132,608,-4,-2,0,1
21777,8181,134,610,-4,-2,0,1
21782,8177,134,610,-4,-2,0,1
21787,8178,134,610,-4,-2,0,1
21792,8176,131,607,-4,-2,0,1
21797,8178,128,605,-4,-2,0,1
21802,8177,126,602,-4,-2,0,1
21807,8173,123,599,-4,-2,0,1
21812,8172,122,603,-4,-2,0,1
21817,8172,122,607,-4,-2,0,1
21822,8171,124,608,-4,-2,0,1
21827,8173,126,612,-4,-2,0,1
21832,8173,128,615,-4,-2,0,1
21837,8173,128,614,-4,-2,0,1
21842,8175,128,614,-4,-2,0,1
21847,8178,129,610,-4,-2,0,1
21852,8180,128,609,-4,-2,0,1
21857,8179,127,610,-4,-2,0,1
21862,8179,125,615,-4,-2,0,1
21867,8181,126,616,-4,-2,0,1
21872,8182,123,620,-4,-2,0,1
21877,8180,122,622,-4,-2,0,1
21882,8178,123,624,-4,-2,0,1
21887,8174,126,625,-4,-2,0,1
21892,8175,127,620,-4,-2,0,1
21897,8176,127,612,-4,-2,0,1
21902,8176,129,609,-4,-2,0,1
21907,8177,129,612,-4,-2,0,1
21912,8177,129,611,-4,-2,0,1
21917,8177,128,611,-4,-2,0,1
21922,8175,129,612,-4,-2,0,1
21927,8175,128,616,-4,-2,0,1
21932,8173,129,619,-4,-2,0,1
21937,8175,126,622,-4,-2,0,1
21942,8176,124,626,-4,-2,0,1
21947,8177,122,623,-4,-2,0,1
21952,8176,122,620,-4,-2,0,1
21957,8172,124,616,-4,-2,0,1
21962,8173,129,617,-4,-2,0,1
21967,8171,131,614,-4,-2,0,1
21972,8173,129,610,-4,-2,0,1
21977,8169,129,613,-4,-2,0,1
21982,8169,128,613,-4,-2,0,1
21987,8168,125,613,-4,-2,0,1
21992,8168,124,613,-4,-2,0,1
21997,8168,123,616,-4,-2,0,1
22002,8167,122,618,-4,-2,0,1
22007,8169,122,618,-4,-2,0,1
22012,8171,119,618,-4,-2,0,1
22017,8173,121,622,-4,-2,0,1
22022,8175,121,617,-4,-2,0,1
22027,8178,118,614,-4,-2,0,1
22032,8177,116,611,-4,-2,0,1
22037,8175,116,604,-4,-2,0,1
22042,8176,118,604,-4,-2,0,1
22048,8173,118,606,-4,-2,0,1
22052,8173,118,608,-4,-2,0,1
22057,8173,121,612,-4,-2,0,1
22063,8174,123,611,-4,-2,0,1
22067,8173,124,610,-4,-2,0,1
22072,8174,126,614,-4,-2,0,1
22077,8174,126,614,-4,-2,0,1
22082,8174,124,613,-4,-2,0,1
22087,8174,126,612,-4,-2,0,1
22093,8177,127,612,-4,-2,0,1
22098,8178,129,616,-4,-2,0,1
22103,8180,131,613,-4,-2,0,1
22107,8182,134,609,-4,-2,0,1
22113,8179,133,605,-4,-2,0,1
22118,8177,131,603,-4,-2,0,1
22123,8176,130,604,-4,-2,0,1
22128,8176,128,603,-4,-2,0,1
22133,8176,125,606,-4,-2,0,1
22138,8176,125,607,-4,-2,0,1
22143,8175,124,605,-4,-2,0,1
22148,8180,122,605,-4,-2,0,1
22153,8181,121,606,-4,-2,0,1
22158,8181,123,608,-4,-2,0,1
22163,8180,123,606,-4,-2,0,1
22168,8178,120,607,-4,-2,0,1
22173,8177,122,603,-4,-2,0,1
22178,8177,121,603,-4,-2,0,1
22183,8174,120,601,-4,-2,0,1
22188,8173,121,602,-4,-2,0,1
22193,8174,120,604,-4,-2,0,1
22198,8174,120,604,-4,-2,0,1
22203,8174,120,601,-4,-2,0,1
22208,8173,119,604,-4,-2,0,1
22213,8171,120,605,-4,-2,0,1
22218,8171,120,602,-4,-2,0,1
22223,8172,120,602,-4,-2,0,1
22228,8176,120,604,-4,-2,0,1
22233,8175,122,606,-4,-2,0,1
22238,8176,124,604,-4,-2,0,1
22243,8172,124,602,-4,-2,0,1
22248,8172,126,604,-4,-2,0,1
22253,8175,128,603,-4,-2,0,1
22258,8173,133,604,-4,-2,0,1
22263,8170,132,605,-4,-2,0,1
22268,8172,132,606,-4,-2,0,1
22273,8174,131,606,-4,-2,0,1
22278,8175,132,604,-4,-2,0,1
22283,8177,132,604,-4,-2,0,1
22288,8178,134,609,-4,-2,0,1
22293,8178,132,611,-4,-2,0,1
22298,8178,128,613,-4,-2,0,1
22303,8178,127,614,-4,-2,0,1
22308,8178,123,610,-4,-2,0,1
22313,8178,122,611,-4,-2,0,1
22318,8179,121,610,-4,-2,0,1
22323,8181,123,610,-4,-2,0,1
22328,8183,123,611,-4,-2,0,1
22333,8184,120,611,-4,-2,0,1
22338,8185,122,611,-4,-2,0,1
22343,8183,120,613,-4,-2,0,1
22348,8183,118,616,-4,-2,0,1
22353,8183,120,615,-4,-2,0,1
22358,8181,120,614,-4,-2,0,1
22363,8180,120,614,-4,-2,0,1
22368,8181,120,615,-4,-2,0,1
22373,8181,121,615,-4,-2,0,1
22378,8181,126,615,-4,-2,0,1
22383,8178,125,612,-4,-2,0,1
22388,8177,126,615,-4,-2,0,1
22393,8175,125,614,-4,-2,0,1
22398,8177,124,618,-4,-2,0,1
22403,8175,127,619,-4,-2,0,1
22408,8175,125,621,-4,-2,0,1
22413,8178,127,619,-4,-2,0,1
22418,8180,127,618,-4,-2,0,1
22423,8179,127,617,-4,-2,0,1
22428,8180,127,620,-4,-2,0,1
22433,8181,129,621,-4,-2,0,1
22438,8178,127,617,-4,-2,0,1
22443,8178,126,621,-4,-2,0,1
22448,8176,124,620,-4,-2,0,1
22453,8179,125,616,-4,-2,0,1
22458,8181,125,620,-4,-2,0,1
22463,8179,126,623,-4,-2,0,1
22468,8179,127,620,-4,-2,0,1
22473,8181,127,620,-4,-2,0,1
22478,8182,128,613,-4,-2,0,1
22483,8182,129,608,-4,-2,0,1
22488,8183,130,605,-4,-2,0,1
22493,8182,129,607,-4,-2,0,1
22498,8182,127,608,-4,-2,0,1
22503,8183,126,612,-4,-2,0,1
22508,8181,127,612,-4,-2,0,1
22513,8183,126,610,-4,-2,0,1
22518,8183,124,611,-4,-2,0,1
22523,8181,124,613,-4,-2,0,1
22528,8180,123,613,-4,-2,0,1
22533,8182,122,617,-4,-2,0,1
22538,8183,121,621,-4,-2,0,1
22543,8184,121,624,-4,-2,0,1
22548,8187,124,624,-4,-2,0,1
22553,8187,125,624,-4,-2,0,1
22558,8186,121,622,-4,-2,0,1
22563,8186,121,619,-4,-2,0,1
22568,8184,123,616,-4,-2,0,1
22573,8185,124,615,-4,-2,0,1
22578,8185,122,613,-4,-2,0,1
22584,8181,122,612,-4,-2,0,1
22588,8177,123,616,-4,-2,0,1
22593,8178,124,616,-4,-2,0,1
22599,8179,125,610,-4,-2,0,1
22604,8178,126,609,-4,-2,0,1
22609,8178,127,609,-4,-2,0,1
22614,8183,128,612,-4,-2,0,1
22619,8184,128,609,-4,-2,0,1
22624,8185,129,608,-4,-2,0,1
22629,8183,128,608,-4,-2,0,1
22634,8181,128,610,-4,-2,0,1
22639,8178,128,612,-4,-2,0,1
22644,8176,130,608,-4,-2,0,1
22649,8173,130,604,-4,-2,0,1
22654,8174,131,605,-4,-2,0,1
22659,8176,127,607,-4,-2,0,1
22664,8179,125,610,-4,-2,0,1
22669,8179,124,612,-4,-2,0,1
22674,8177,124,614,-4,-2,0,1
22679,8175,125,611,-4,-2,0,1
22684,8171,127,606,-4,-2,0,1
22689,8170,123,608,-4,-2,0,1
22694,8172,123,609,-4,-2,0,1
22699,8173,122,612,-4,-2,0,1
22704,8174,122,611,-4,-2,0,1
22709,8173,122,614,-4,-2,0,1
22714,8173,122,615,-4,-2,0,1
22719,8173,120,615,-4,-2,0,1
22724,8173,119,614,-4,-2,0,1
22729,8179,119,613,-4,-2,0,1
22734,8181,122,613,-4,-2,0,1
22739,8177,125,612,-4,-2,0,1
22744,8175,126,611,-4,-2,0,1
22749,8175,127,611,-4,-2,0,1
22754,8180,129,610,-4,-2,0,1
22759,8184,131,613,-4,-2,0,1
22764,8182,131,614,-4,-2,0,1
22769,8181,131,614,-4,-2,0,1
22774,8182,131,612,-4,-2,0,1
22779,8185,131,614,-4,-2,0,1
22784,8187,128,614,-4,-2,0,1
22789,8188,127,614,-4,-2,0,1
22794,8187,124,614,-4,-2,0,1
22799,8186,124,615,-4,-2,0,1
22804,8184,123,613,-4,-2,0,1
22809,8184,123,613,-4,-2,0,1
22814,8182,125,611,-4,-2,0,1
22819,8182,124,610,-4,-2,0,1
22824,8181,120,607,-4,-2,0,1
22829,8180,118,610,-4,-2,0,1
22834,8180,118,613,-4,-2,0,1
22839,8184,117,613,-4,-2,0,1
22844,8187,116,614,-4,-2,0,1
22849,8188,117,613,-4,-2,0,1
22854,8190,117,609,-4,-2,0,1
22859,8190,118,612,-4,-2,0,1
22864,8190,119,610,-4,-2,0,1
22869,8192,120,611,-4,-2,0,1
22874,8193,122,611,-4,-2,0,1
22879,8189,121,611,-4,-2,0,1
22884,8185,120,608,-4,-2,0,1
22889,8185,119,609,-4,-2,0,1
22894,8185,119,608,-4,-2,0,1
22899,8186,121,608,-4,-2,0,1
22904,8184,123,613,-4,-2,0,1
22909,8185,123,613,-4,-2,0,1
22914,8185,123,609,-4,-2,0,1
22919,8185,124,608,-4,-2,0,1
22924,8185,126,606,-4,-2,0,1
22929,8184,123,607,-4,-2,0,1
22934,8182,122,605,-4,-2,0,1
22939,8181,123,604,-4,-2,0,1
22944,8182,122,603,-4,-2,0,1
22949,8181,123,601,-4,-2,0,1
22954,8182,123,601,-4,-2,0,1
22959,8183,123,603,-4,-2,0,1
22964,8186,123,599,-4,-2,0,1
22969,8186,123,601,-4,-2,0,1
22974,8184,125,602,-4,-2,0,1
22979,8184,126,604,-4,-2,0,1
22984,8184,126,606,-4,-2,0,1
22989,8183,124,611,-4,-2,0,1
22994,8181,121,615,-4,-2,0,1
22999,8180,122,615,-4,-2,0,1
23004,8178,121,615,-4,-2,0,1
23009,8180,124,612,-4,-2,0,1
23014,8185,128,611,-4,-2,0,1
23019,8186,128,609,-4,-2,0,1
23024,8185,124,608,-4,-2,0,1
23029,8182,121,609,-4,-2,0,1
23034,8180,120,606,-4,-2,0,1
23039,8180,122,607,-4,-2,0,1
23044,8179,123,614,-4,-2,0,1
23049,8179,126,615,-4,-2,0,1
23054,8180,127,615,-4,-2,0,1
23059,8177,131,611,-4,-2,0,1
23065,8176,132,604,-4,-2,0,1
23069,8179,131,601,-4,-2,0,1
23075,8179,129,600,-4,-2,0,1
23080,8181,132,604,-4,-2,0,1
23085,8182,133,605,-4,-2,0,1
23090,8179,130,602,-4,-2,0,1
23095,8181,132,601,-4,-2,0,1
23099,8181,132,599,-4,-2,0,1
23105,8183,135,598,-4,-2,0,1
23110,8183,136,595,-4,-2,0,1
23114,8183,136,600,-4,-2,0,1
23120,8186,133,602,-4,-2,0,1
23125,8187,131,599,-4,-2,0,1
23130,8186,133,601,-4,-2,0,1
23135,8185,130,604,-4,-2,0,1
23140,8187,128,606,-4,-2,0,1
23145,8186,126,608,-4,-2,0,1
23150,8185,127,611,-4,-2,0,1
23155,8182,127,619,-4,-2,0,1
23160,8181,124,620,-4,-2,0,1
23165,8184,123,620,-4,-2,0,1
23170,8187,122,620,-4,-2,0,1
23175,8187,120,620,-4,-2,0,1
23180,8187,121,615,-4,-2,0,1
23185,8188,122,609,-4,-2,0,1
23190,8189,121,607,-4,-2,0,1
23195,8186,125,606,-4,-2,0,1
23200,8183,124,608,-4,-2,0,1
23205,8184,124,609,-4,-2,0,1
23210,8182,125,607,-4,-2,0,1
23215,8180,127,605,-4,-2,0,1
23220,8179,126,605,-4,-2,0,1
23225,8180,130,608,-4,-2,0,1
23230,8183,132,604,-4,-2,0,1
23235,8183,131,605,-4,-2,0,1
23240,8182,128,604,-4,-2,0,1
23245,8180,130,604,-4,-2,0,1
23250,8178,130,604,-4,-2,0,1
23255,8178,132,604,-4,-2,0,1
23260,8177,133,606,-4,-2,0,1
23265,8179,132,611,-4,-2,0,1
23270,8177,130,611,-4,-2,0,1
23275,8180,128,616,-4,-2,0,1
23280,8182,127,611,-4,-2,0,1
23285,8183,128,608,-4,-2,0,1
23290,8184,132,605,-4,-2,0,1
23295,8184,132,602,-4,-2,0,1
23300,8185,131,602,-4,-2,0,1
23305,8186,129,604,-4,-2,0,1
23310,8189,126,603,-4,-2,0,1
23315,8190,126,605,-4,-2,0,1
23320,8186,125,607,-4,-2,0,1
23325,8183,124,607,-4,-2,0,1
23330,8187,125,606,-4,-2,0,1
23335,8188,127,605,-4,-2,0,1
23340,8186,124,606,-4,-2,0,1
23345,8184,124,610,-4,-2,0,1
23350,8187,126,610,-4,-2,0,1
23355,8187,126,610,-4,-2,0,1
23360,8188,126,607,-4,-2,0,1
23365,8189,123,607,-4,-2,0,1
23370,8189,122,606,-4,-2,0,1
23375,8186,122,607,-4,-2,0,1
23380,8185,125,610,-4,-2,0,1
23385,8181,123,609,-4,-2,0,1
23390,8179,125,612,-4,-2,0,1
23395,8178,124,614,-4,-2,0,1
23400,8176,126,618,-4,-2,0,1
23405,8180,126,623,-4,-2,0,1
23410,8182,126,623,-4,-2,0,1
23415,8184,126,624,-4,-2,0,1
23420,8185,125,621,-4,-2,0,1
23425,8185,126,619,-4,-2,0,1
23430,8187,125,614,-4,-2,0,1
23435,8184,127,609,-4,-2,0,1
23440,8184,129,610,-4,-2,0,1
23445,8187,129,611,-4,-2,0,1
23450,8186,131,616,-4,-2,0,1
23455,8186,128,615,-4,-2,0,1
23460,8189,127,613,-4,-2,0,1
23465,8190,127,609,-4,-2,0,1
23470,8187,128,607,-4,-2,0,1
23475,8187,126,604,-4,-2,0,1
23480,8183,125,600,-4,-2,0,1
23485,8180,125,600,-4,-2,0,1
23490,8179,125,601,-4,-2,0,1
23495,8180,122,604,-4,-2,0,1
23500,8180,124,604,-4,-2,0,1
23505,8180,124,600,-4,-2,0,1
23510,8178,123,596,-4,-2,0,1
23515,8178,126,600,-4,-2,0,1
23520,8180,127,600,-4,-2,0,1
23525,8179,127,598,-4,-2,0,1
23530,8178,128,603,-4,-2,0,1
23535,8174,129,607,-4,-2,0,1
23540,8171,127,611,-4,-2,0,1
23545,8171,128,617,-4,-2,0,1
23550,8173,128,621,-4,-2,0,1
23555,8175,128,623,-4,-2,0,1
23560,8175,128,616,-4,-2,0,1
23565,8175,128,616,-4,-2,0,1
23570,8176,128,618,-4,-2,0,1
23575,8178,129,618,-4,-2,0,1
23580,8178,128,619,-4,-2,0,1
23586,8178,125,619,-4,-2,0,1
23591,8177,125,617,-4,-2,0,1
23596,8179,125,617,-4,-2,0,1
23601,8178,123,616,-4,-2,0,1
23605,8176,122,611,-4,-2,0,1
23611,8178,125,599,-4,-2,0,1
23616,8178,124,596,-4,-2,0,1
23621,8178,126,595,-4,-2,0,1
23626,8178,128,596,-4,-2,0,1
23630,8177,128,597,-4,-2,0,1
23636,8179,128,599,-4,-2,0,1
23641,8178,130,601,-4,-2,0,1
23646,8176,130,605,-4,-2,0,1
23651,8179,130,606,-4,-2,0,1
23656,8179,130,612,-4,-2,0,1
23661,8179,128,615,-4,-2,0,1
23666,8177,128,618,-4,-2,0,1
23671,8176,129,617,-4,-2,0,1
23676,8174,130,619,-4,-2,0,1
23681,8174,132,618,-4,-2,0,1
23686,8174,131,617,-4,-2,0,1
23691,8173,130,617,-4,-2,0,1
23696,8176,130,614,-4,-2,0,1
23701,8177,131,611,-4,-2,0,1
23706,8174,129,608,-4,-2,0,1
23711,8174,127,612,-4,-2,0,1
23716,8172,126,611,-4,-2,0,1
23721,8173,127,611,-4,-2,0,1
23726,8173,130,607,-4,-2,0,1
23731,8173,128,607,-4,-2,0,1
23736,8174,129,607,-4,-2,0,1
23741,8172,131,612,-4,-2,0,1
23746,8174,127,614,-4,-2,0,1
23751,8172,123,615,-4,-2,0,1
23756,8171,125,610,-4,-2,0,1
23761,8170,125,612,-4,-2,0,1
23766,8170,126,613,-4,-2,0,1
23771,8172,130,610,-4,-2,0,1
23776,8175,128,614,-4,-2,0,1
23781,8178,123,611,-4,-2,1,1
23786,8181,123,608,-4,-2,1,1
23791,8180,122,609,-4,-2,0,1
23796,8181,121,606,-4,-2,0,1
23801,8180,122,607,-4,-2,0,1
23806,8179,123,607,-4,-2,0,1
23811,8181,125,608,-4,-2,0,1
23816,8179,125,612,-4,-2,0,1
23821,8177,125,613,-4,-2,0,1
23826,8175,122,612,-4,-2,0,1
23831,8177,121,610,-4,-2,0,1
23836,8179,123,610,-4,-2,0,1
23841,8179,125,611,-4,-2,0,1
23846,8179,122,615,-4,-2,0,1
23851,8178,121,617,-4,-2,0,1
23856,8180,120,624,-4,-2,0,1
23861,8180,121,624,-4,-2,0,1
23866,8180,123,624,-4,-2,0,1
23871,8179,126,621,-4,-2,0,1
23876,8181,129,614,-4,-2,0,1
23881,8180,128,612,-4,-2,0,1
23886,8177,130,610,-4,-2,0,1
23891,8179,126,609,-4,-2,0,1
23896,8176,127,608,-4,-2,-1,1
23901,8175,130,606,-4,-2,-1,1
23906,8176,132,603,-4,-2,-1,1
23911,8180,134,608,-4,-2,-1,1
23916,8182,131,610,-4,-2,-1,1
23921,8182,131,614,-4,-2,-1,1
23926,8184,130,614,-4,-2,-1,1
23931,8186,130,616,-4,-2,-1,1
23936,8185,131,617,-4,-2,-1,1
23941,8186,131,614,-4,-2,-1,1
23946,8185,131,613,-4,-2,-1,1
23951,8185,135,614,-4,-2,-1,1
23956,8183,140,619,-4,-2,-1,1
23961,8185,140,625,-4,-2,-1,1
23966,8185,140,624,-4,-2,-1,1
23971,8185,140,619,-4,-2,-1,1
23976,8182,140,619,-4,-2,-1,1
23981,8182,140,617,-4,-2,-1,1
23986,8184,142,614,-3,-2,-1,1
23991,8187,143,611,-3,-2,-1,1
23996,8187,145,609,-3,-2,-1,1
24001,8185,147,606,-3,-2,-1,1
24006,8186,151,605,-3,-2,-1,1
24011,8186,155,607,-4,-2,-1,1
24016,8185,160,611,-3,-2,-1,1
24021,8185,162,611,-4,-2,-1,1
24026,8185,164,610,-4,-2,-1,1
24031,8184,168,613,-4,-2,-1,1
24036,8184,167,615,-4,-2,-1,1
24041,8184,169,617,-4,-2,-1,1
24046,8183,171,619,-4,-2,-1,1
24051,8182,173,613,-4,-2,-1,1
24056,8182,176,615,-4,-2,-1,1
24061,8182,179,613,-4,-2,-1,1
24066,8181,177,611,-4,-2,-1,1
24071,8179,176,615,-4,-2,-1,1
24076,8177,172,615,-4,-2,-1,1
24081,8179,173,615,-4,-2,0,1
24086,8181,178,618,-4,-2,0,1
24091,8181,178,619,-4,-2,0,1
24096,8181,173,621,-4,-2,0,1
24101,8181,169,620,-4,-2,0,1
24106,8180,169,620,-4,-2,0,1
24112,8181,170,621,-4,-2,0,1
24116,8183,172,622,-4,-2,0,1
24121,8185,176,620,-4,-2,0,1
24127,8186,178,623,-4,-2,0,1
24131,8182,179,622,-4,-2,0,1
24137,8181,180,624,-4,-2,0,1
24141,8180,179,623,-4,-2,0,1
24146,8181,180,625,-4,-2,0,1
24152,8184,182,625,-4,-2,0,1
24157,8182,185,620,-4,-2,0,1
24162,8183,187,617,-4,-2,0,1
24166,8184,185,618,-4,-2,0,1
24172,8188,186,616,-4,-2,0,1
24177,8188,189,612,-4,-2,0,1
24182,8187,193,610,-4,-2,0,1
24187,8186,194,611,-4,-2,0,1
24192,8185,197,610,-4,-2,0,1
24197,8185,199,605,-4,-2,0,1
24202,8184,198,603,-4,-2,0,1
24207,8183,196,599,-4,-2,0,1
24212,8181,195,598,-4,-2,0,1
24217,8181,196,601,-4,-2,0,1
24222,8179,197,602,-4,-2,0,1
24227,8178,198,602,-4,-2,0,1
24232,8179,197,600,-4,-2,0,1
24237,8178,193,601,-4,-2,0,1
24242,8178,191,600,-4,-2,0,1
24247,8180,188,595,-4,-2,0,1
24252,8180,186,597,-4,-2,0,1
24257,8182,187,599,-4,-2,0,1
24262,8183,190,598,-4,-2,0,1
24267,8181,190,602,-4,-2,0,1
24272,8177,191,607,-4,-2,0,1
24277,8172,190,606,-4,-2,0,1
24282,8174,192,605,-4,-2,0,1
24287,8174,192,607,-4,-2,1,1
24292,8172,193,609,-4,-2,1,1
24297,8174,193,611,-4,-2,1,1
24302,8173,194,613,-4,-2,1,1
24307,8171,196,616,-4,-2,1,1
24312,8174,195,620,-4,-2,1,1
24317,8176,195,621,-4,-2,1,1
24322,8178,192,618,-4,-2,1,1
24327,8179,193,620,-4,-2,1,1
24332,8182,193,619,-4,-2,1,1
24337,8183,193,617,-4,-2,1,1
24342,8182,195,618,-4,-2,1,1
24347,8179,192,620,-4,-2,1,1
24352,8178,191,613,-4,-2,1,1
24357,8178,192,607,-4,-2,1,1
24362,8173,192,605,-4,-2,1,1
24367,8173,194,605,-4,-2,1,1
24372,8175,195,605,-4,-2,1,1
24377,8177,189,603,-4,-2,1,1
24382,8180,186,604,-4,-2,1,1
24387,8181,184,603,-4,-2,1,1
24392,8183,181,599,-4,-2,0,1
24397,8184,178,601,-4,-2,0,1
24402,8183,177,604,-4,-2,0,1
24407,8179,179,605,-4,-2,0,1
24412,8177,178,607,-4,-2,0,1
24417,8175,178,609,-4,-2,0,1
24422,8174,179,610,-4,-2,0,1
24427,8173,179,612,-4,-2,0,1
24432,8172,182,611,-4,-2,0,1
24437,8173,187,609,-4,-2,0,1
24442,8178,189,613,-4,-2,0,1
24447,8181,191,611,-4,-2,0,1
24452,8183,191,612,-4,-2,0,1
24457,8182,194,613,-4,-2,0,1
24462,8181,194,613,-4,-2,0,1
24467,8180,196,615,-4,-2,0,1
24472,8180,197,614,-4,-2,1,1
24477,8180,195,612,-4,-2,1,1
24482,8183,191,606,-4,-2,1,1
24487,8182,189,609,-4,-2,1,1
24492,8181,189,612,-4,-2,1,1
24497,8183,188,615,-4,-2,1,1
24502,8185,188,614,-4,-2,1,1
24507,8186,189,611,-4,-2,1,1
24512,8184,187,608,-4,-2,1,1
24517,8181,186,604,-4,-2,1,1
24522,8181,186,604,-4,-2,0,1
24527,8181,190,604,-4,-2,0,1
24532,8179,193,605,-4,-2,0,1
24537,8179,193,608,-4,-2,1,1
24542,8180,191,609,-4,-2,1,1
24547,8180,192,614,-4,-2,1,1
24552,8182,190,617,-4,-2,1,1
24557,8183,189,615,-4,-2,1,1
24562,8181,188,617,-4,-2,1,1
24567,8178,184,619,-4,-2,1,1
24572,8178,181,620,-4,-2,1,1
24577,8180,181,620,-4,-2,1,1
24582,8185,178,621,-4,-2,1,1
24587,8185,176,617,-4,-2,1,1
24592,8184,176,618,-4,-2,1,1
24597,8181,177,617,-4,-2,1,1
24602,8179,177,621,-4,-2,1,1
24607,8176,175,619,-4,-2,0,1
24612,8174,176,621,-4,-2,0,1
24617,8177,177,621,-4,-2,0,1
24622,8175,178,617,-4,-2,0,1
24627,8175,182,617,-4,-2,0,1
24632,8174,184,615,-4,-2,0,1
24637,8171,183,611,-4,-2,1,1
24642,8170,186,610,-4,-2,1,1
24648,8170,189,608,-4,-2,1,1
24653,8173,190,610,-4,-2,1,1
24658,8175,192,610,-4,-2,1,1
24662,8178,195,614,-4,-2,1,1
24667,8179,197,611,-4,-2,1,1
24673,8178,193,608,-4,-2,1,1
24678,8178,192,612,-4,-2,1,1
24682,8177,192,612,-4,-2,1,1
24688,8177,192,611,-4,-2,1,1
24693,8176,189,612,-4,-2,1,1
24698,8176,187,610,-5,-2,1,1
24703,8177,186,608,-5,-2,1,1
24708,8180,185,611,-5,-2,1,1
24713,8180,182,617,-5,-2,1,1
24718,8179,180,624,-5,-2,1,1
24723,8180,179,625,-5,-2,1,1
24728,8183,173,621,-5,-2,1,1
24733,8184,166,617,-5,-2,1,1
24738,8182,155,612,-5,-2,1,1
24743,8181,153,612,-4,-2,0,1
24748,8178,157,614,-4,-2,0,1
24753,8176,163,611,-4,-2,0,1
24758,8180,165,611,-4,-2,0,1
24763,8181,166,612,-4,-2,0,1
24768,8181,169,613,-4,-2,0,1
24773,8179,169,614,-4,-2,0,1
24778,8179,170,615,-4,-2,0,1
24783,8182,173,616,-4,-2,0,1
24788,8184,176,616,-4,-2,0,1
24793,8187,175,614,-4,-2,0,1
24798,8187,174,613,-4,-2,0,1
24803,8185,173,613,-4,-2,0,1
24808,8184,173,609,-4,-2,0,1
24813,8185,175,611,-4,-2,0,1
24818,8187,178,611,-4,-2,1,1
24823,8188,181,609,-4,-2,1,1
24828,8186,183,609,-4,-2,1,1
24833,8183,180,606,-4,-2,1,1
24838,8180,178,604,-4,-2,1,1
24843,8179,178,604,-4,-2,1,1
24848,8181,177,611,-4,-2,1,1
24853,8180,175,611,-4,-2,1,1
24858,8180,175,612,-4,-2,1,1
24863,8178,175,612,-4,-2,0,1
24868,8176,171,612,-4,-2,0,1
24873,8174,168,614,-4,-2,0,1
24878,8173,168,611,-4,-2,0,1
24883,8173,168,611,-4,-2,0,1
24888,8177,168,612,-4,-2,0,1
24893,8180,165,609,-4,-2,0,1
24898,8182,164,614,-4,-2,0,1
24903,8182,168,618,-4,-2,0,1
24908,8181,173,613,-4,-2,0,1
24913,8184,174,616,-3,-2,0,1
