millis,ax,ay,az,gx,gy,gz,label
42564,-1235,-7631,-2237,-1,-1,-3,0
42569,-1235,-7629,-2244,-1,-1,-3,1
42574,-1234,-7631,-2255,-1,-1,-2,1
42579,-1234,-7632,-2260,-1,-1,-2,1
42584,-1233,-7634,-2268,-1,-1,-2,1
42589,-1232,-7634,-2278,-1,-1,-2,1
42594,-1236,-7633,-2285,-1,-1,-2,1
42599,-1247,-7631,-2286,-1,-2,-2,1
42604,-1260,-7627,-2287,-1,-2,-2,1
42608,-1271,-7626,-2282,-1,-2,-3,1
42614,-1284,-7627,-2276,-1,-3,-3,1
42619,-1296,-7630,-2267,-1,-3,-3,1
42624,-1306,-7628,-2259,-1,-2,-2,1
42629,-1303,-7626,-2251,-1,-2,-2,1
42634,-1291,-7627,-2238,-1,-3,-2,1
42638,-1278,-7628,-2226,-1,-3,-2,1
42644,-1268,-7629,-2221,-1,-3,-2,1
42649,-1266,-7626,-2215,-1,-3,-2,1
42653,-1274,-7625,-2205,-1,-3,-3,1
42658,-1295,-7628,-2201,-1,-3,-3,1
42664,-1323,-7629,-2197,-1,-3,-3,1
42668,-1354,-7628,-2194,-1,-3,-2,1
42673,-1378,-7629,-2187,-1,-2,-2,1
42678,-1390,-7630,-2187,-1,-1,-2,1
42683,-1393,-7632,-2188,-1,-1,-2,1
42688,-1381,-7627,-2196,-1,0,-2,1
42694,-1365,-7627,-2193,-1,0,-2,1
42698,-1351,-7630,-2186,-1,0,-2,1
42703,-1337,-7629,-2183,-1,0,-2,1
42708,-1331,-7631,-2175,-1,0,-2,1
42713,-1332,-7633,-2171,-1,-1,-2,1
42718,-1346,-7635,-2172,-1,-1,-2,1
42723,-1365,-7639,-2175,-1,-1,-2,1
42728,-1387,-7640,-2187,-1,-1,-3,1
42733,-1414,-7641,-2201,-1,-1,-3,1
42738,-1435,-7642,-2209,-1,-1,-3,1
42743,-1451,-7642,-2220,-1,-1,-3,1
42748,-1459,-7641,-2225,-1,-1,-3,1
42753,-1463,-7641,-2220,-1,0,-3,1
42758,-1468,-7638,-2211,-1,0,-3,1
42763,-1476,-7639,-2198,-1,1,-3,1
42768,-1484,-7640,-2181,-1,1,-3,1
42773,-1493,-7639,-2155,-1,2,-3,1
42778,-1500,-7637,-2137,-1,2,-3,1
42783,-1500,-7638,-2128,-1,2,-3,1
42788,-1491,-7636,-2122,-1,2,-3,1
42793,-1475,-7640,-2122,-1,3,-3,1
42798,-1460,-7641,-2128,-1,2,-3,1
42803,-1451,-7641,-2140,-1,2,-3,1
42808,-1450,-7643,-2148,-1,2,-3,1
42813,-1447,-7642,-2152,-1,3,-3,1
42818,-1442,-7642,-2150,-1,3,-3,1
42823,-1432,-7645,-2137,-1,3,-3,1
42828,-1416,-7646,-2119,-1,4,-3,1
42833,-1391,-7646,-2098,-1,4,-3,1
42838,-1362,-7648,-2084,-1,4,-3,1
42843,-1324,-7650,-2077,-1,4,-3,1
42848,-1287,-7651,-2078,-1,3,-3,1
42853,-1263,-7648,-2088,-1,2,-3,1
42858,-1245,-7645,-2099,-1,2,-3,1
42863,-1232,-7643,-2099,-1,2,-3,1
42868,-1224,-7643,-2093,-1,1,-3,1
42873,-1224,-7643,-2075,-1,1,-3,1
42878,-1228,-7645,-2055,-1,0,-3,1
42883,-1233,-7644,-2038,-1,-1,-3,1
42888,-1235,-7643,-2021,-1,0,-3,1
42893,-1230,-7642,-2004,-1,0,-3,1
42898,-1216,-7642,-1996,-1,0,-3,1
42903,-1201,-7645,-1998,-1,-1,-3,1
42908,-1187,-7647,-2006,-2,-1,-3,1
42913,-1175,-7649,-2016,-2,-1,-3,1
42918,-1167,-7648,-2031,-2,-1,-3,1
42923,-1169,-7648,-2044,-2,-1,-3,1
42928,-1180,-7648,-2047,-2,-1,-3,1
42933,-1192,-7649,-2046,-2,-1,-2,1
42938,-1201,-7648,-2045,-2,-1,-2,1
42943,-1210,-7647,-2040,-2,-1,-2,1
42948,-1214,-7648,-2043,-2,-2,-2,1
42953,-1222,-7652,-2050,-2,-2,-2,1
42958,-1226,-7653,-2061,-2,-2,-2,1
42963,-1223,-7653,-2068,-2,-2,-2,1
42968,-1220,-7652,-2078,-2,-2,-2,1
42973,-1224,-7651,-2088,-2,-3,-2,1
42978,-1230,-7652,-2095,-2,-3,-2,1
42983,-1242,-7653,-2097,-2,-3,-2,1
42988,-1255,-7651,-2094,-2,-3,-2,1
42993,-1272,-7651,-2090,-2,-3,-2,1
42998,-1292,-7648,-2088,-2,-2,-2,1
43003,-1311,-7648,-2084,-2,-2,-2,1
43008,-1324,-7647,-2079,-2,-1,-2,1
43013,-1331,-7646,-2083,-2,-1,-2,1
43018,-1334,-7646,-2094,-2,-1,-2,1
43023,-1332,-7644,-2113,-2,0,-2,1
43028,-1327,-7645,-2123,-2,0,-2,1
43033,-1316,-7649,-2136,-2,0,-2,1
43038,-1308,-7652,-2143,-2,0,-2,1
43043,-1307,-7653,-2151,-2,-1,-2,1
43048,-1312,-7654,-2152,-2,-1,-2,1
43053,-1322,-7650,-2148,-2,-1,-2,1
43058,-1338,-7650,-2149,-2,-1,-2,1
43063,-1353,-7650,-2150,-2,-1,-2,1
43068,-1372,-7647,-2152,-2,0,-2,1
43073,-1385,-7648,-2156,-2,0,-2,1
43078,-1401,-7647,-2161,-2,0,-2,1
43083,-1414,-7644,-2164,-2,0,-2,1
43088,-1420,-7644,-2170,-2,1,-2,1
43093,-1416,-7644,-2175,-2,1,-2,1
43098,-1404,-7642,-2178,-2,1,-2,1
43103,-1386,-7643,-2182,-2,1,-2,1
43108,-1369,-7647,-2182,-2,1,-2,1
43113,-1348,-7650,-2181,-2,1,-2,1
43118,-1328,-7651,-2179,-2,1,-2,1
43123,-1315,-7650,-2173,-2,1,-2,1
43128,-1309,-7650,-2170,-2,0,-2,1
43133,-1310,-7649,-2176,-2,0,-2,1
43138,-1321,-7648,-2180,-2,0,-3,1
43143,-1336,-7647,-2189,-2,0,-3,1
43148,-1354,-7646,-2193,-2,0,-2,1
43153,-1367,-7644,-2197,-2,0,-2,1
43158,-1375,-7643,-2195,-2,0,-2,1
43163,-1380,-7640,-2192,-2,0,-2,1
43168,-1382,-7640,-2184,-2,1,-2,1
43173,-1378,-7640,-2176,-2,1,-2,1
43178,-1373,-7641,-2164,-2,1,-2,1
43183,-1369,-7640,-2160,-2,1,-2,1
43188,-1368,-7642,-2158,-2,1,-3,1
43193,-1372,-7645,-2168,-2,1,-3,1
43198,-1379,-7648,-2182,-2,1,-3,1
43203,-1389,-7648,-2196,-2,1,-3,1
43208,-1395,-7649,-2208,-2,1,-3,1
43213,-1400,-7650,-2217,-2,1,-3,1
43218,-1400,-7648,-2224,-2,1,-3,1
43223,-1393,-7646,-2222,-2,1,-3,1
43228,-1382,-7645,-2217,-2,1,-3,1
43233,-1367,-7647,-2208,-2,1,-3,1
43238,-1351,-7649,-2200,-2,2,-3,1
43243,-1330,-7651,-2188,-2,2,-3,1
43248,-1308,-7652,-2182,-2,2,-3,1
43253,-1282,-7652,-2177,-2,2,-3,1
43258,-1259,-7656,-2180,-2,1,-3,1
43263,-1239,-7655,-2180,-2,1,-3,1
43268,-1223,-7653,-2181,-2,1,-2,1
43273,-1214,-7652,-2185,-2,0,-3,1
43278,-1214,-7651,-2183,-2,0,-3,1
43283,-1221,-7651,-2178,-2,-1,-3,1
43288,-1237,-7647,-2173,-2,-1,-2,1
43293,-1254,-7647,-2162,-2,-1,-2,1
43298,-1271,-7647,-2144,-2,-1,-2,1
43303,-1292,-7645,-2137,-2,-1,-2,1
43308,-1307,-7646,-2133,-2,-1,-2,1
43313,-1315,-7646,-2129,-2,0,-2,1
43318,-1316,-7645,-2127,-2,0,-2,1
43323,-1316,-7644,-2128,-2,-1,-2,1
43328,-1318,-7648,-2135,-2,-1,-2,1
43333,-1322,-7651,-2139,-2,-1,-2,1
43338,-1329,-7650,-2135,-2,0,-2,1
43343,-1330,-7649,-2130,-2,0,-3,1
43348,-1335,-7649,-2123,-2,0,-3,1
43353,-1341,-7651,-2114,-2,0,-3,1
43358,-1341,-7649,-2106,-2,0,-3,1
43363,-1344,-7649,-2106,-2,0,-3,1
43368,-1344,-7649,-2112,-2,0,-3,1
43373,-1343,-7644,-2125,-2,0,-3,1
43378,-1350,-7653,-2129,-2,0,-3,1
43383,-1367,-7654,-2140,-2,0,-3,1
43388,-1379,-7651,-2143,-2,1,-3,1
43393,-1386,-7651,-2132,-2,1,-3,1
43398,-1393,-7651,-2123,-2,1,-3,1
43403,-1403,-7650,-2106,-2,1,-3,1
43408,-1403,-7652,-2089,-2,2,-3,1
43412,-1397,-7653,-2080,-2,2,-3,1
43418,-1388,-7651,-2073,-2,2,-3,1
43423,-1382,-7650,-2071,-2,3,-3,1
43427,-1374,-7647,-2081,-2,3,-3,1
43433,-1361,-7649,-2095,-2,3,-3,1
43437,-1348,-7648,-2106,-2,3,-3,1
43443,-1328,-7648,-2117,-2,3,-3,1
43447,-1306,-7649,-2123,-2,3,-3,1
43452,-1291,-7651,-2126,-2,2,-3,1
43458,-1278,-7649,-2133,-2,2,-3,1
43462,-1264,-7649,-2132,-2,2,-3,1
43467,-1257,-7650,-2134,-2,2,-3,1
43472,-1256,-7650,-2128,-2,2,-3,1
43478,-1253,-7648,-2127,-2,1,-3,1
43482,-1252,-7645,-2131,-2,1,-3,1
43488,-1249,-7646,-2134,-2,1,-3,1
43492,-1245,-7643,-2136,-2,1,-3,1
43497,-1242,-7640,-2140,-2,1,-3,1
43502,-1236,-7643,-2147,-2,1,-3,1
43507,-1236,-7644,-2153,-2,1,-3,1
43512,-1234,-7643,-2158,-2,0,-3,1
43517,-1236,-7645,-2165,-2,0,-3,1
43522,-1243,-7647,-2170,-2,0,-3,1
43527,-1254,-7646,-2178,-2,0,-3,1
43532,-1268,-7643,-2187,-2,0,-3,1
43537,-1286,-7644,-2196,-2,0,-3,1
43542,-1304,-7645,-2203,-2,0,-3,1
43547,-1321,-7647,-2210,-2,1,-3,1
43552,-1336,-7644,-2215,-2,1,-3,1
43557,-1346,-7641,-2218,-2,1,-3,1
43562,-1350,-7640,-2218,-2,2,-3,1
43567,-1345,-7636,-2217,-2,3,-3,1
43572,-1336,-7638,-2216,-2,3,-3,1
43577,-1320,-7640,-2214,-2,3,-3,1
43582,-1304,-7641,-2213,-2,3,-3,1
43587,-1284,-7642,-2214,-2,3,-3,1
43592,-1268,-7642,-2212,-2,3,-3,1
43597,-1252,-7641,-2208,-2,2,-3,1
43602,-1236,-7640,-2207,-2,2,-3,1
43607,-1219,-7644,-2208,-2,1,-3,1
43612,-1207,-7645,-2206,-2,1,-2,1
43617,-1195,-7646,-2208,-2,1,-2,1
43622,-1185,-7644,-2206,-2,1,-2,1
43627,-1184,-7644,-2206,-2,0,-2,1
43632,-1193,-7645,-2205,-2,0,-2,1
43637,-1201,-7646,-2201,-2,0,-2,1
43642,-1208,-7643,-2202,-2,0,-2,1
43647,-1213,-7641,-2204,-2,0,-2,1
43652,-1214,-7642,-2205,-2,0,-2,1
43657,-1207,-7641,-2203,-2,0,-2,1
43662,-1189,-7640,-2200,-2,1,-2,1
43667,-1171,-7641,-2196,-2,0,-2,1
43672,-1156,-7643,-2195,-2,0,-2,1
43677,-1151,-7644,-2195,-2,0,-2,1
43682,-1146,-7649,-2199,-2,0,-2,1
43687,-1146,-7646,-2204,-2,0,-2,1
43692,-1149,-7646,-2217,-2,0,-2,1
43697,-1157,-7643,-2229,-2,0,-2,1
43702,-1165,-7643,-2235,-2,0,-2,1
43707,-1173,-7643,-2237,-2,0,-2,1
43712,-1176,-7639,-2237,-2,0,-2,1
43717,-1175,-7636,-2239,-1,-1,-2,1
43722,-1176,-7636,-2233,-2,-1,-2,1
43727,-1180,-7634,-2231,-1,-1,-2,1
43732,-1181,-7634,-2229,-1,-1,-2,1
43737,-1183,-7632,-2225,-1,-1,-2,1
43742,-1186,-7636,-2215,-1,-2,-2,1
43747,-1193,-7638,-2213,-1,-2,-2,1
43752,-1208,-7638,-2220,-1,-2,-2,1
43757,-1223,-7642,-2219,-1,-2,-2,1
43762,-1243,-7642,-2223,-1,-2,-2,1
43767,-1261,-7641,-2221,-1,-2,-2,1
43772,-1275,-7643,-2224,-1,-2,-2,1
43777,-1285,-7642,-2220,-1,-1,-2,1
43782,-1289,-7642,-2210,-1,-1,-2,1
43787,-1288,-7640,-2196,-1,-1,-2,1
43792,-1289,-7640,-2194,-1,-1,-2,1
43797,-1286,-7640,-2186,-1,0,-2,1
43802,-1283,-7640,-2183,-1,0,-2,1
43807,-1284,-7641,-2180,-1,0,-2,1
43812,-1286,-7643,-2181,-1,0,-2,1
43817,-1289,-7644,-2179,-1,0,-2,1
43822,-1295,-7647,-2182,-1,0,-2,1
43827,-1299,-7647,-2182,-1,0,-2,1
43832,-1305,-7649,-2184,-1,0,-2,1
43837,-1310,-7648,-2187,-1,0,-2,1
43842,-1316,-7647,-2180,-1,0,-2,1
43847,-1325,-7644,-2176,-1,0,-2,1
43852,-1331,-7645,-2171,-1,0,-2,1
43857,-1332,-7648,-2162,-1,0,-2,1
43862,-1330,-7650,-2155,-1,0,-2,1
43867,-1322,-7649,-2151,-1,0,-2,1
43872,-1315,-7647,-2148,-1,-1,-2,1
43877,-1309,-7646,-2141,-1,-1,-2,1
43882,-1301,-7645,-2137,-1,-1,-2,1
43887,-1292,-7646,-2134,-1,-1,-2,1
43892,-1290,-7648,-2131,-1,-2,-2,1
43897,-1292,-7650,-2129,-1,-1,-2,1
43902,-1295,-7651,-2126,-1,-1,-2,1
43907,-1299,-7650,-2122,-1,-2,-2,1
43912,-1304,-7650,-2113,-1,-2,-2,1
43917,-1313,-7648,-2108,-1,-1,-2,1
43922,-1321,-7651,-2109,-1,-1,-2,1
43927,-1324,-7652,-2115,-2,0,-2,1
43932,-1327,-7652,-2116,-2,0,-2,1
43937,-1335,-7654,-2122,-2,0,-2,1
43942,-1341,-7653,-2128,-2,1,-2,1
43947,-1348,-7652,-2137,-2,0,-2,1
43952,-1354,-7650,-2150,-2,0,-2,1
43957,-1363,-7651,-2161,-1,-1,-2,1
43962,-1375,-7652,-2175,-2,-1,-2,1
43967,-1385,-7652,-2184,-2,0,-2,1
43972,-1387,-7650,-2185,-1,0,-2,1
43977,-1384,-7652,-2184,-2,0,-2,1
43982,-1378,-7646,-2176,-2,0,-2,1
43987,-1372,-7646,-2170,-2,0,-2,1
43992,-1369,-7648,-2169,-1,0,-2,1
43997,-1368,-7650,-2168,-1,0,-2,1
44002,-1368,-7649,-2169,-1,0,-2,1
44007,-1376,-7649,-2171,-1,0,-2,1
44012,-1387,-7650,-2183,-1,0,-2,1
44017,-1401,-7648,-2191,-1,0,-2,1
44022,-1411,-7646,-2197,-1,0,-2,1
44027,-1420,-7646,-2195,-1,1,-2,1
44032,-1428,-7648,-2190,-1,1,-2,1
44037,-1433,-7647,-2185,-1,1,-2,1
44042,-1435,-7646,-2173,-1,1,-3,1
44047,-1431,-7644,-2161,-1,2,-3,1
44052,-1422,-7645,-2149,-1,2,-2,1
44057,-1409,-7645,-2149,-1,3,-2,1
44062,-1391,-7644,-2143,-1,2,-3,1
44067,-1369,-7641,-2144,-1,2,-3,1
44072,-1346,-7644,-2147,-1,2,-3,1
44077,-1326,-7647,-2152,-1,2,-3,1
44082,-1308,-7647,-2154,-1,1,-3,1
44087,-1289,-7649,-2157,-1,1,-3,1
44092,-1274,-7651,-2150,-1,0,-3,1
44097,-1266,-7652,-2144,-1,0,-3,1
44102,-1266,-7652,-2137,-1,0,-3,1
44107,-1265,-7652,-2129,-1,0,-3,1
44112,-1261,-7654,-2118,-1,0,-3,1
44117,-1257,-7652,-2111,-1,0,-2,1
44122,-1252,-7652,-2108,-1,0,-2,1
44127,-1247,-7651,-2112,-1,0,-2,1
44132,-1242,-7650,-2121,-1,-1,-2,1
44137,-1244,-7648,-2129,-1,-1,-2,1
44142,-1253,-7649,-2144,-2,-1,-2,1
44147,-1261,-7649,-2150,-2,-1,-2,1
44152,-1271,-7649,-2145,-2,0,-2,1
44157,-1279,-7648,-2137,-2,-1,-2,1
44162,-1283,-7646,-2127,-2,-1,-2,1
44167,-1287,-7644,-2118,-2,0,-2,1
44172,-1289,-7647,-2110,-2,0,-2,1
44177,-1287,-7646,-2109,-2,0,-2,1
44182,-1287,-7647,-2114,-1,0,-2,1
44187,-1287,-7650,-2123,-2,0,-2,1
44192,-1288,-7648,-2132,-2,1,-2,1
44197,-1288,-7645,-2138,-2,1,-2,1
44202,-1286,-7647,-2148,-2,0,-2,1
44207,-1286,-7651,-2157,-2,-1,-2,1
44212,-1290,-7654,-2161,-2,0,-2,1
44217,-1294,-7655,-2159,-2,0,-2,1
44222,-1296,-7655,-2149,-2,-1,-2,1
44227,-1298,-7654,-2141,-2,-1,-2,1
44232,-1300,-7652,-2140,-2,-1,-2,1
44236,-1297,-7653,-2136,-2,-1,-2,1
44241,-1294,-7655,-2138,-2,0,-2,1
44247,-1286,-7655,-2141,-2,0,-2,1
44252,-1277,-7657,-2136,-2,0,-2,1
44257,-1273,-7661,-2138,-2,0,-2,1
44261,-1270,-7663,-2143,-2,0,-2,1
44267,-1266,-7659,-2143,-2,0,-2,1
44272,-1261,-7661,-2136,-2,0,-2,1
44277,-1258,-7663,-2128,-2,1,-2,1
44281,-1259,-7662,-2117,-2,1,-2,1
44286,-1258,-7660,-2109,-2,1,-2,1
44291,-1258,-7659,-2107,-2,1,-2,1
44297,-1262,-7660,-2106,-2,1,-2,1
44301,-1265,-7659,-2109,-2,1,-2,1
44307,-1268,-7659,-2118,-2,1,-2,1
44311,-1270,-7658,-2132,-2,0,-2,1
44316,-1276,-7659,-2143,-2,0,-2,1
44321,-1281,-7655,-2153,-2,-1,-2,1
44326,-1288,-7654,-2159,-2,-1,-2,1
44331,-1297,-7654,-2159,-2,-1,-2,1
44336,-1301,-7657,-2158,-2,-1,-2,1
44341,-1300,-7660,-2156,-2,0,-2,1
44346,-1303,-7660,-2154,-2,-1,-2,1
44351,-1302,-7659,-2156,-2,-1,-2,1
44356,-1299,-7660,-2155,-2,0,-2,1
44361,-1293,-7659,-2151,-2,0,-2,1
44366,-1294,-7661,-2154,-2,0,-2,1
44371,-1297,-7657,-2159,-2,0,-2,1
44376,-1290,-7658,-2165,-2,0,-2,1
44381,-1290,-7658,-2169,-2,0,-2,1
44386,-1300,-7654,-2175,-2,0,-2,1
44391,-1313,-7656,-2175,-2,0,-2,1
44396,-1325,-7659,-2179,-2,0,-2,1
44401,-1329,-7660,-2176,-2,0,-2,1
44406,-1338,-7657,-2175,-2,1,-2,1
44411,-1345,-7657,-2180,-1,1,-2,1
44416,-1352,-7658,-2186,-1,1,-2,1
44421,-1353,-7658,-2190,-1,1,-2,1
44426,-1352,-7657,-2187,-1,1,-2,1
44431,-1353,-7652,-2189,-1,0,-2,1
44436,-1360,-7652,-2197,-1,0,-2,1
44441,-1369,-7650,-2193,-1,0,-2,1
44446,-1370,-7651,-2187,-2,1,-2,1
44451,-1368,-7650,-2178,-2,0,-3,1
44456,-1368,-7648,-2159,-2,0,-2,1
44461,-1363,-7648,-2148,-1,1,-3,1
44466,-1357,-7647,-2142,-1,1,-2,1
44471,-1344,-7647,-2142,-1,1,-2,1
44476,-1329,-7650,-2143,-1,0,-2,1
44481,-1315,-7653,-2148,-1,0,-3,1
44486,-1300,-7655,-2161,-1,1,-2,1
44491,-1281,-7653,-2171,-1,0,-2,1
44496,-1269,-7656,-2174,-1,-1,-2,1
44501,-1254,-7654,-2176,-2,-1,-2,1
44506,-1233,-7656,-2170,-1,-1,-2,1
44511,-1210,-7658,-2158,-1,-1,-2,1
44516,-1189,-7659,-2148,-2,-2,-2,1
44521,-1174,-7657,-2138,-1,-2,-2,1
44526,-1170,-7654,-2130,-1,-2,-2,1
44531,-1169,-7655,-2122,-1,-2,-2,1
44536,-1176,-7650,-2121,-1,-2,-2,1
44541,-1188,-7648,-2120,-1,-3,-2,1
44546,-1205,-7648,-2121,-1,-3,-2,1
44551,-1217,-7652,-2127,-1,-3,-2,1
44556,-1242,-7656,-2128,-1,-4,-2,1
44561,-1268,-7658,-2129,-2,-4,-2,1
44566,-1282,-7654,-2125,-2,-3,-2,1
44571,-1303,-7655,-2119,-2,-3,-2,1
44576,-1330,-7659,-2113,-2,-4,-2,1
44581,-1351,-7661,-2111,-1,-3,-2,1
44586,-1370,-7661,-2111,-2,-2,-2,1
44591,-1375,-7659,-2112,-2,-2,-2,1
44596,-1362,-7659,-2108,-2,-2,-2,1
44601,-1342,-7660,-2112,-2,-2,-2,1
44606,-1315,-7659,-2112,-2,-2,-2,1
44611,-1291,-7658,-2116,-2,-2,-2,1
44616,-1269,-7657,-2118,-2,-2,-2,1
44621,-1251,-7658,-2122,-2,-2,-2,1
44626,-1239,-7655,-2118,-2,-3,-2,1
44631,-1228,-7652,-2127,-2,-3,-2,1
44636,-1220,-7650,-2125,-2,-4,-2,1
44641,-1215,-7651,-2126,-2,-5,-2,1
44646,-1218,-7653,-2127,-2,-5,-2,1
44651,-1224,-7657,-2126,-2,-5,-2,1
44656,-1237,-7656,-2119,-2,-4,-2,1
44661,-1255,-7654,-2118,-2,-5,-2,1
44666,-1275,-7654,-2107,-2,-4,-2,1
44671,-1298,-7652,-2100,-2,-4,-2,1
44676,-1320,-7653,-2093,-2,-4,-2,1
44681,-1342,-7654,-2083,-2,-3,-2,1
44686,-1366,-7653,-2078,-2,-3,-2,1
44691,-1387,-7651,-2080,-2,-2,-2,1
44696,-1408,-7652,-2084,-2,-1,-2,1
44701,-1429,-7649,-2088,-2,-1,-2,1
44706,-1437,-7651,-2094,-2,0,-2,1
44711,-1433,-7652,-2104,-2,1,-2,1
44716,-1420,-7654,-2112,-2,1,-2,1
44721,-1400,-7652,-2112,-2,1,-2,1
44726,-1383,-7650,-2110,-2,1,-2,1
44731,-1361,-7651,-2112,-2,2,-2,1
44736,-1338,-7652,-2110,-2,2,-2,1
44741,-1319,-7653,-2106,-2,2,-2,1
44746,-1301,-7651,-2107,-2,1,-2,1
44751,-1287,-7652,-2105,-2,1,-2,1
44756,-1275,-7650,-2111,-2,1,-2,1
44761,-1264,-7648,-2117,-2,0,-2,1
44766,-1258,-7645,-2123,-2,0,-2,1
44771,-1258,-7647,-2134,-2,0,-2,1
44776,-1268,-7647,-2142,-2,0,-2,1
44781,-1279,-7652,-2145,-2,-1,-2,1
44786,-1297,-7653,-2143,-2,-1,-2,1
44791,-1316,-7655,-2145,-2,-1,-2,1
44796,-1337,-7655,-2141,-2,-1,-2,1
44801,-1356,-7653,-2136,-2,0,-2,1
44806,-1371,-7653,-2130,-2,0,-2,1
44811,-1382,-7653,-2128,-2,0,-2,1
44816,-1392,-7652,-2125,-2,0,-2,1
44821,-1406,-7656,-2122,-2,0,-2,1
44826,-1419,-7656,-2121,-1,0,-2,1
44831,-1430,-7654,-2116,-2,1,-2,1
44836,-1441,-7653,-2109,-2,1,-2,1
44841,-1453,-7652,-2110,-2,1,-2,1
44846,-1461,-7651,-2103,-2,1,-2,1
44851,-1459,-7651,-2096,-2,2,-2,1
44856,-1454,-7648,-2097,-2,2,-2,1
44861,-1453,-7652,-2093,-2,2,-2,1
44866,-1450,-7656,-2089,-2,2,-2,1
44871,-1443,-7656,-2085,-2,3,-2,1
44876,-1438,-7657,-2083,-2,3,-2,1
44881,-1435,-7656,-2084,-2,2,-2,1
44886,-1433,-7655,-2090,-2,2,-2,1
44891,-1430,-7651,-2096,-2,2,-2,1
44896,-1421,-7653,-2095,-2,2,-2,1
44901,-1418,-7652,-2093,-2,1,-2,1
44906,-1418,-7653,-2093,-2,1,-2,1
44911,-1422,-7656,-2094,-2,2,-2,1
44916,-1422,-7659,-2085,-2,2,-2,1
44921,-1419,-7660,-2075,-2,3,-2,1
44926,-1415,-7659,-2072,-2,3,-2,1
44931,-1408,-7657,-2068,-2,3,-2,1
44936,-1405,-7655,-2069,-2,3,-2,1
44941,-1409,-7652,-2079,-2,3,-3,1
44946,-1412,-7653,-2087,-2,3,-3,1
44951,-1415,-7655,-2093,-2,3,-3,1
44956,-1413,-7654,-2101,-2,4,-2,1
44961,-1404,-7652,-2101,-2,4,-2,1
44966,-1390,-7654,-2092,-2,4,-2,1
44971,-1369,-7655,-2084,-2,4,-2,1
44976,-1345,-7656,-2081,-2,4,-2,1
44981,-1321,-7655,-2076,-2,4,-2,1
44986,-1300,-7656,-2081,-2,4,-2,1
44991,-1283,-7655,-2081,-2,4,-2,1
44996,-1267,-7655,-2088,-2,4,-2,1
45001,-1253,-7655,-2098,-2,4,-2,1
45006,-1243,-7657,-2104,-2,3,-2,1
45011,-1235,-7658,-2117,-2,2,-2,1
45016,-1223,-7658,-2121,-2,2,-2,1
45020,-1210,-7657,-2117,-2,2,-2,1
45026,-1193,-7654,-2114,-2,1,-2,1
45030,-1182,-7652,-2110,-2,0,-2,1
45036,-1172,-7652,-2106,-2,-1,-2,1
45041,-1165,-7650,-2109,-2,-2,-2,1
45046,-1162,-7646,-2118,-2,-2,-2,1
45050,-1165,-7647,-2131,-2,-2,-2,1
45055,-1174,-7645,-2142,-2,-2,-2,1
45060,-1189,-7643,-2153,-2,-2,-2,1
45065,-1203,-7645,-2159,-2,-3,-2,1
45070,-1220,-7644,-2162,-2,-3,-2,1
45075,-1243,-7643,-2160,-2,-2,-2,1
45081,-1262,-7644,-2154,-2,-1,-2,1
45085,-1274,-7648,-2153,-2,-1,-2,1
45090,-1283,-7653,-2150,-2,-1,-2,1
45095,-1289,-7651,-2154,-2,0,-2,1
45100,-1294,-7647,-2166,-2,0,-2,1
45105,-1299,-7650,-2178,-2,0,-2,1
45110,-1308,-7652,-2192,-2,0,-2,1
45115,-1320,-7656,-2200,-2,0,-2,1
45120,-1333,-7655,-2206,-2,1,-2,1
45125,-1348,-7653,-2213,-2,1,-2,1
45130,-1358,-7650,-2206,-2,0,-2,1
45135,-1363,-7649,-2198,-2,0,-2,1
45140,-1366,-7649,-2188,-2,0,-2,1
45145,-1374,-7650,-2182,-2,-1,-2,1
45150,-1380,-7652,-2177,-2,0,-2,1
45155,-1382,-7654,-2173,-2,0,-2,1
45160,-1385,-7655,-2176,-2,-1,-2,1
45165,-1389,-7654,-2178,-2,-1,-2,1
45170,-1396,-7653,-2181,-1,-1,-2,1
45175,-1405,-7653,-2189,-1,-1,-2,1
45180,-1409,-7654,-2186,-2,-1,-2,1
45185,-1411,-7655,-2176,-2,0,-2,1
45190,-1411,-7655,-2170,-2,0,-2,1
45195,-1414,-7654,-2159,-1,0,-2,1
45200,-1414,-7651,-2151,-1,0,-2,1
45205,-1417,-7649,-2146,-1,1,-2,1
45210,-1416,-7649,-2144,-1,1,-2,1
45215,-1414,-7651,-2136,-1,1,-2,1
45220,-1412,-7651,-2140,-1,1,-2,1
45225,-1407,-7650,-2145,-1,1,-2,1
45230,-1396,-7650,-2149,-1,1,-2,1
45235,-1387,-7653,-2154,-1,0,-2,1
45240,-1382,-7654,-2152,-2,0,-2,1
45245,-1372,-7650,-2140,-2,0,-2,1
45250,-1363,-7649,-2125,-2,0,-2,1
45255,-1358,-7651,-2112,-2,0,-2,1
45260,-1349,-7652,-2094,-2,0,-2,1
45265,-1345,-7654,-2081,-2,0,-3,1
45270,-1345,-7658,-2071,-2,1,-3,1
45275,-1350,-7658,-2066,-1,1,-3,1
45280,-1357,-7658,-2070,-2,1,-2,1
45285,-1362,-7657,-2077,-2,1,-2,1
45290,-1361,-7659,-2086,-2,1,-2,1
45295,-1363,-7658,-2101,-2,1,-2,1
45300,-1366,-7656,-2108,-2,0,-3,1
45305,-1370,-7655,-2116,-2,0,-3,1
45310,-1369,-7651,-2119,-2,1,-3,1
45315,-1362,-7647,-2113,-2,0,-3,1
45320,-1357,-7647,-2107,-2,0,-3,1
45325,-1354,-7647,-2102,-2,0,-3,1
45330,-1346,-7650,-2094,-2,1,-3,1
45335,-1328,-7647,-2083,-2,1,-2,1
45340,-1309,-7646,-2077,-2,1,-2,1
45345,-1293,-7648,-2075,-2,1,-2,1
45350,-1276,-7648,-2075,-2,1,-2,1
45355,-1257,-7646,-2080,-2,1,-2,1
45360,-1241,-7644,-2087,-2,0,-2,1
45365,-1230,-7645,-2087,-2,0,-2,1
45370,-1226,-7646,-2097,-2,0,-2,1
45375,-1223,-7646,-2100,-2,0,-2,1
45380,-1219,-7647,-2095,-2,0,-2,1
45385,-1216,-7646,-2101,-2,-1,-2,1
45390,-1211,-7646,-2106,-2,-1,-2,1
45395,-1212,-7644,-2113,-2,-1,-2,1
45400,-1210,-7644,-2119,-2,-2,-2,1
45405,-1208,-7642,-2127,-2,-2,-2,1
45410,-1210,-7644,-2137,-2,-2,-2,1
45415,-1219,-7646,-2148,-2,-3,-2,1
45420,-1235,-7649,-2158,-2,-3,-2,1
45425,-1256,-7651,-2166,-2,-4,-2,1
45430,-1287,-7650,-2174,-2,-4,-2,1
45435,-1318,-7650,-2180,-2,-4,-2,1
45440,-1339,-7650,-2184,-2,-3,-2,1
45445,-1358,-7651,-2185,-2,-2,-2,1
45450,-1378,-7651,-2184,-2,-2,-2,1
45455,-1394,-7652,-2188,-2,-1,-2,1
45460,-1408,-7651,-2192,-2,0,-2,1
45465,-1420,-7650,-2195,-1,0,-2,1
45470,-1433,-7651,-2199,-1,0,-2,1
45475,-1444,-7652,-2206,-1,0,-2,1
45480,-1446,-7651,-2206,-1,1,-2,1
45485,-1444,-7653,-2203,-1,1,-2,1
45490,-1434,-7652,-2198,-1,1,-2,1
45495,-1417,-7652,-2189,-1,1,-2,1
45500,-1396,-7655,-2180,-1,1,-2,1
45505,-1375,-7655,-2168,-1,1,-2,1
45510,-1355,-7655,-2160,-1,1,-2,1
45515,-1340,-7653,-2154,-1,1,-2,1
45520,-1330,-7653,-2150,-1,0,-2,1
45525,-1321,-7655,-2152,-1,0,-2,1
45530,-1317,-7657,-2151,-1,0,-2,1
45535,-1317,-7656,-2149,-1,0,-2,1
45540,-1316,-7657,-2151,-1,0,-2,1
45545,-1318,-7656,-2150,-1,-1,-2,1
45550,-1318,-7655,-2145,-1,-1,-2,1
45555,-1311,-7652,-2132,-1,0,-2,1
45560,-1304,-7652,-2116,-1,-1,-2,1
45565,-1299,-7654,-2111,-1,-1,-2,1
45570,-1298,-7654,-2104,-1,-1,-2,1
45575,-1299,-7653,-2101,-1,-1,-2,1
45580,-1303,-7651,-2098,-1,-1,-2,1
45585,-1306,-7651,-2098,-1,-1,-2,1
45590,-1306,-7655,-2104,-1,-1,-2,1
45595,-1304,-7656,-2101,-1,-1,-2,1
45600,-1302,-7659,-2097,-1,0,-2,1
45605,-1297,-7661,-2090,-1,0,-2,1
45610,-1293,-7663,-2080,-2,0,-2,1
45615,-1295,-7664,-2073,-2,0,-2,1
45620,-1294,-7666,-2066,-2,0,-2,1
45625,-1296,-7665,-2059,-2,1,-2,1
45630,-1302,-7664,-2052,-2,1,-2,1
45635,-1306,-7664,-2052,-2,1,-2,1
45640,-1316,-7665,-2050,-2,1,-2,1
45645,-1323,-7665,-2058,-2,1,-2,1
45650,-1330,-7662,-2075,-2,1,-2,1
45655,-1333,-7661,-2085,-2,0,-2,1
45660,-1337,-7660,-2094,-2,0,-2,1
45665,-1341,-7660,-2103,-2,0,-2,1
45670,-1343,-7660,-2107,-2,0,-2,1
45675,-1347,-7660,-2109,-2,-1,-2,1
45680,-1356,-7660,-2106,-2,-1,-2,1
45685,-1364,-7662,-2099,-2,-1,-2,1
45690,-1368,-7662,-2098,-2,-1,-2,1
45695,-1373,-7665,-2097,-2,-1,-2,1
45700,-1375,-7669,-2100,-2,-1,-2,1
45705,-1374,-7670,-2100,-2,-1,-2,1
45710,-1372,-7668,-2103,-2,-1,-2,1
45715,-1371,-7664,-2102,-2,0,-2,1
45720,-1375,-7662,-2102,-2,0,-2,1
45725,-1384,-7660,-2101,-2,0,-2,1
45730,-1390,-7659,-2099,-2,1,-2,1
45735,-1393,-7659,-2097,-2,1,-2,1
45740,-1397,-7659,-2097,-2,1,-2,1
45745,-1397,-7658,-2095,-2,1,-2,1
45750,-1390,-7659,-2094,-2,1,-2,1
45755,-1380,-7660,-2095,-2,1,-2,1
45760,-1367,-7661,-2093,-2,1,-2,1
45765,-1352,-7660,-2091,-2,1,-2,1
45770,-1342,-7660,-2091,-2,1,-2,1
45774,-1335,-7660,-2095,-2,1,-2,1
45780,-1332,-7659,-2101,-2,0,-2,1
45784,-1334,-7658,-2110,-2,0,-2,1
45790,-1338,-7657,-2113,-2,0,-2,1
45795,-1344,-7656,-2116,-2,0,-3,1
45800,-1347,-7657,-2115,-2,-1,-2,1
45805,-1356,-7658,-2121,-2,-1,-3,1
45809,-1362,-7657,-2115,-2,0,-2,1
45815,-1363,-7655,-2110,-2,0,-2,1
45819,-1364,-7657,-2108,-2,0,-2,1
45825,-1366,-7656,-2106,-2,0,-3,1
45829,-1370,-7654,-2111,-2,0,-3,1
45834,-1374,-7655,-2116,-2,0,-3,1
45839,-1377,-7656,-2118,-2,1,-3,1
45844,-1382,-7660,-2117,-2,1,-3,1
45849,-1386,-7662,-2114,-2,1,-3,1
45854,-1385,-7661,-2115,-2,2,-3,1
45859,-1379,-7660,-2116,-2,2,-3,1
45864,-1373,-7660,-2113,-2,1,-3,1
45869,-1364,-7661,-2112,-2,2,-3,1
45874,-1353,-7662,-2118,-2,2,-3,1
45879,-1344,-7662,-2119,-2,1,-3,1
45884,-1340,-7662,-2119,-2,1,-3,1
45889,-1339,-7659,-2120,-2,0,-3,1
45894,-1336,-7657,-2121,-2,0,-3,1
45899,-1331,-7658,-2120,-2,0,-3,1
45904,-1327,-7657,-2115,-2,0,-3,1
45909,-1322,-7658,-2110,-2,0,-3,1
45914,-1315,-7657,-2105,-2,0,-3,1
45919,-1310,-7654,-2097,-2,0,-3,1
45924,-1304,-7654,-2096,-2,0,-3,1
45929,-1304,-7657,-2096,-2,-1,-3,1
45934,-1300,-7658,-2096,-2,-1,-3,1
45939,-1294,-7656,-2102,-2,0,-3,1
45944,-1289,-7657,-2106,-2,0,-3,1
45949,-1284,-7658,-2107,-2,0,-2,1
45954,-1282,-7659,-2106,-2,0,-3,1
45959,-1288,-7663,-2101,-2,1,-2,1
45964,-1293,-7667,-2098,-2,1,-2,1
45969,-1296,-7669,-2096,-2,1,-2,1
45974,-1297,-7668,-2095,-2,1,-2,1
45979,-1307,-7665,-2092,-2,1,-2,1
45984,-1317,-7664,-2099,-2,0,-2,1
45989,-1328,-7664,-2111,-2,1,-2,1
45994,-1333,-7664,-2123,-2,1,-2,1
45999,-1336,-7661,-2133,-2,1,-2,1
46004,-1339,-7659,-2137,-2,1,-2,1
46009,-1338,-7659,-2133,-2,1,-2,1
46014,-1335,-7657,-2132,-2,1,-2,1
46019,-1327,-7657,-2127,-2,1,-2,1
46024,-1314,-7655,-2118,-2,0,-2,1
46029,-1303,-7658,-2119,-2,0,-2,1
46034,-1292,-7661,-2130,-2,0,-2,1
46039,-1288,-7662,-2141,-2,0,-3,1
46044,-1280,-7659,-2148,-2,0,-3,1
46049,-1279,-7656,-2155,-2,-1,-2,1
46054,-1285,-7656,-2163,-2,0,-2,1
46059,-1289,-7652,-2160,-2,0,-2,1
46064,-1290,-7652,-2156,-2,0,-2,1
46069,-1293,-7649,-2146,-2,0,-2,1
46074,-1296,-7649,-2136,-2,-1,-2,1
46079,-1299,-7649,-2129,-2,0,-2,1
46084,-1306,-7651,-2126,-2,-1,-2,1
46089,-1321,-7653,-2130,-2,0,-2,1
46094,-1334,-7653,-2138,-2,0,-2,1
46099,-1344,-7656,-2144,-2,1,-2,1
46104,-1351,-7659,-2146,-2,1,-2,1
46109,-1349,-7662,-2146,-2,1,-2,1
46114,-1342,-7666,-2140,-2,2,-2,1
46119,-1327,-7665,-2132,-2,2,-2,1
46124,-1313,-7663,-2123,-2,2,-2,1
46129,-1303,-7664,-2116,-2,1,-2,1
46134,-1302,-7668,-2121,-2,0,-3,1
46139,-1306,-7669,-2136,-2,0,-2,1
46144,-1307,-7670,-2146,-2,0,-2,1
46149,-1303,-7664,-2157,-2,0,-2,1
46154,-1301,-7662,-2166,-2,-1,-2,1
46159,-1291,-7659,-2165,-2,-1,-2,1
46164,-1277,-7657,-2153,-2,-1,-2,1
46169,-1259,-7656,-2140,-2,-1,-2,1
46174,-1248,-7655,-2122,-2,-1,-2,1
46179,-1245,-7657,-2106,-2,-1,-2,1
46184,-1244,-7658,-2097,-2,-1,-2,1
46189,-1248,-7660,-2100,-2,-1,-2,1
46194,-1254,-7659,-2108,-2,-1,-2,1
46199,-1256,-7657,-2120,-2,-1,-2,1
46204,-1252,-7657,-2133,-2,0,-2,1
46209,-1249,-7657,-2138,-2,0,-2,1
46214,-1243,-7656,-2148,-2,0,-2,1
46219,-1238,-7655,-2148,-2,0,-2,1
46224,-1236,-7653,-2134,-2,0,-2,1
46229,-1240,-7652,-2113,-2,0,-2,1
46234,-1247,-7652,-2096,-2,0,-2,1
46239,-1255,-7652,-2084,-2,0,-2,1
46244,-1262,-7654,-2078,-2,0,-2,1
46249,-1267,-7655,-2077,-2,0,-2,1
46254,-1276,-7653,-2093,-2,-1,-2,1
46259,-1283,-7653,-2114,-2,-2,-2,1
46264,-1292,-7651,-2137,-2,-2,-2,1
46269,-1299,-7648,-2151,-2,-2,-2,1
46274,-1307,-7648,-2151,-2,-2,-2,1
46279,-1315,-7652,-2144,-2,-3,-2,1
46284,-1326,-7654,-2134,-2,-3,-2,1
46289,-1342,-7655,-2116,-2,-3,-2,1
46294,-1357,-7657,-2095,-2,-2,-2,1
46299,-1371,-7660,-2083,-2,-2,-2,1
46304,-1379,-7656,-2081,-2,-1,-2,1
46309,-1380,-7653,-2083,-2,0,-2,1
46314,-1372,-7652,-2092,-2,0,-2,1
46319,-1360,-7651,-2102,-2,1,-2,1
46324,-1348,-7654,-2110,-2,1,-2,1
46329,-1337,-7656,-2118,-2,1,-2,1
46334,-1333,-7658,-2117,-2,1,-2,1
46339,-1333,-7658,-2111,-2,1,-2,1
46344,-1333,-7659,-2100,-2,1,-2,1
46349,-1333,-7660,-2089,-2,1,-2,1
46354,-1335,-7663,-2086,-2,0,-2,1
46359,-1335,-7665,-2096,-2,-1,-2,1
46364,-1332,-7666,-2107,-2,0,-2,1
46369,-1318,-7663,-2127,-2,0,-2,1
46374,-1308,-7664,-2139,-2,0,-2,1
46379,-1297,-7662,-2143,-2,0,-2,1
46384,-1287,-7660,-2136,-2,-1,-2,1
46389,-1288,-7658,-2128,-2,-1,-2,1
46394,-1293,-7658,-2119,-2,-2,-2,1
46399,-1307,-7657,-2110,-2,-2,-2,1
46404,-1319,-7656,-2100,-2,-2,-2,1
46409,-1327,-7656,-2096,-2,-2,-2,1
46414,-1334,-7654,-2098,-2,-2,-2,1
46419,-1340,-7653,-2103,-2,-2,-2,1
46424,-1342,-7653,-2113,-2,-2,-2,1
46429,-1341,-7655,-2121,-2,-2,-2,1
46434,-1346,-7657,-2124,-2,-2,-2,1
46439,-1357,-7659,-2122,-2,-2,-2,1
46444,-1372,-7659,-2114,-2,-1,-2,1
46449,-1383,-7661,-2100,-2,0,-2,1
46454,-1392,-7661,-2085,-2,0,-2,1
46459,-1398,-7660,-2075,-2,0,-2,1
46464,-1405,-7662,-2071,-2,1,-2,1
46469,-1409,-7660,-2072,-2,1,-2,1
46474,-1413,-7656,-2077,-2,1,-2,1
46479,-1407,-7656,-2082,-2,1,-2,1
46484,-1400,-7657,-2086,-2,2,-2,1
46488,-1390,-7656,-2089,-2,2,-2,1
46494,-1377,-7653,-2090,-2,1,-2,1
46498,-1369,-7655,-2092,-2,0,-2,1
46504,-1367,-7656,-2098,-2,-1,-2,1
46509,-1368,-7656,-2104,-2,-1,-2,1
46514,-1363,-7656,-2106,-2,0,-2,1
46519,-1352,-7655,-2106,-2,0,-2,1
46523,-1343,-7653,-2110,-2,-1,-2,1
46529,-1334,-7653,-2112,-2,-1,-2,1
46534,-1327,-7656,-2119,-2,-1,-2,1
46538,-1322,-7655,-2123,-2,-1,-2,1
46543,-1317,-7653,-2123,-2,-1,-2,1
46548,-1322,-7649,-2124,-2,-1,-2,1
46554,-1327,-7650,-2125,-2,-1,-2,1
46558,-1332,-7648,-2128,-2,-1,-2,1
46563,-1340,-7647,-2131,-2,-1,-2,1
46568,-1358,-7648,-2134,-2,-1,-2,1
46573,-1373,-7652,-2135,-2,-1,-2,1
46579,-1385,-7655,-2132,-2,0,-2,1
46583,-1396,-7655,-2129,-2,0,-2,1
46588,-1398,-7656,-2129,-2,0,-2,1
46593,-1399,-7658,-2131,-2,0,-2,1
46598,-1399,-7656,-2135,-2,1,-2,1
46603,-1395,-7659,-2134,-2,1,-2,1
46608,-1390,-7659,-2137,-2,2,-2,1
46613,-1389,-7661,-2135,-2,2,-2,1
46618,-1389,-7662,-2139,-2,2,-2,1
46623,-1387,-7660,-2146,-2,2,-2,1
46628,-1382,-7659,-2153,-2,2,-2,1
46633,-1372,-7661,-2156,-2,2,-2,1
46638,-1362,-7662,-2157,-2,1,-2,1
46643,-1351,-7663,-2162,-2,0,-2,1
46648,-1341,-7662,-2160,-2,0,-2,1
46653,-1337,-7662,-2157,-2,0,-3,1
46658,-1331,-7660,-2150,-2,0,-2,1
46663,-1324,-7659,-2138,-2,0,-2,1
46668,-1319,-7660,-2135,-2,-1,-2,1
46673,-1313,-7660,-2132,-2,-1,-2,1
46678,-1310,-7657,-2129,-2,-1,-2,1
46683,-1311,-7657,-2128,-2,-1,-2,1
46688,-1315,-7658,-2131,-2,-1,-2,1
46693,-1317,-7657,-2142,-2,-1,-2,1
46698,-1321,-7660,-2147,-2,-1,-2,1
46703,-1323,-7661,-2153,-2,-2,-2,1
46708,-1325,-7660,-2157,-2,-2,-2,1
46713,-1324,-7659,-2163,-2,-1,-2,1
46718,-1325,-7659,-2162,-2,-1,-2,1
46723,-1328,-7659,-2157,-2,-1,-2,1
46728,-1331,-7659,-2145,-2,-1,-2,1
46733,-1340,-7657,-2132,-2,0,-2,1
46738,-1344,-7655,-2119,-2,0,-2,1
46743,-1348,-7655,-2109,-2,0,-2,1
46748,-1355,-7654,-2105,-2,0,-2,1
46753,-1360,-7652,-2113,-2,0,-2,1
46758,-1363,-7652,-2128,-2,0,-2,1
46763,-1365,-7652,-2140,-2,0,-2,1
46768,-1370,-7650,-2151,-2,0,-2,1
46773,-1377,-7650,-2160,-2,0,-2,1
46778,-1385,-7653,-2159,-2,0,-2,1
46783,-1388,-7656,-2147,-2,0,-2,1
46788,-1393,-7656,-2136,-2,0,-2,1
46793,-1392,-7656,-2120,-2,0,-2,1
46798,-1381,-7654,-2108,-2,1,-2,1
46803,-1367,-7651,-2103,-2,0,-2,1
46808,-1356,-7650,-2104,-2,0,-2,1
46813,-1348,-7648,-2112,-2,0,-2,1
46818,-1340,-7647,-2126,-2,0,-2,1
46823,-1337,-7647,-2143,-2,0,-2,1
46828,-1332,-7648,-2151,-2,0,-2,1
46833,-1326,-7651,-2153,-2,1,-2,1
46838,-1317,-7653,-2146,-2,1,-2,1
46843,-1305,-7653,-2136,-2,1,-2,1
46848,-1291,-7654,-2124,-2,1,-2,1
46853,-1282,-7654,-2111,-2,0,-2,1
46858,-1273,-7654,-2104,-2,1,-2,1
46863,-1264,-7657,-2103,-1,0,-2,1
46868,-1256,-7658,-2110,-1,0,-2,1
46873,-1249,-7660,-2119,-2,-1,-2,1
46878,-1250,-7659,-2135,-2,-1,-2,1
46883,-1251,-7657,-2150,-2,-1,-2,1
46888,-1260,-7655,-2161,-2,-1,-2,1
46893,-1269,-7654,-2160,-2,-1,-2,1
46898,-1282,-7655,-2148,-2,-2,-2,1
46903,-1300,-7657,-2133,-2,-2,-2,1
46908,-1319,-7655,-2116,-2,-2,-2,1
46913,-1345,-7654,-2104,-2,-1,-2,1
46918,-1370,-7654,-2089,-2,0,-2,1
46923,-1393,-7652,-2084,-2,0,-2,1
46928,-1411,-7650,-2082,-2,1,-2,1
46933,-1414,-7650,-2078,-2,1,-2,1
46938,-1398,-7653,-2074,-2,2,-2,1
46943,-1375,-7657,-2073,-2,1,-2,1
46948,-1342,-7659,-2064,-2,1,-2,1
46953,-1302,-7661,-2057,-2,1,-2,1
46958,-1267,-7666,-2048,-2,0,-2,1
46963,-1243,-7665,-2039,-2,0,-2,1
46968,-1224,-7664,-2030,-2,0,-2,1
46973,-1218,-7664,-2034,-2,0,-2,1
46978,-1217,-7666,-2044,-2,-1,-2,1
46983,-1223,-7666,-2053,-2,-1,-2,1
46988,-1230,-7666,-2059,-2,-1,-2,1
46993,-1230,-7665,-2068,-2,-1,-2,1
46998,-1230,-7665,-2072,-2,-1,-2,1
47003,-1233,-7665,-2075,-2,-2,-2,1
47008,-1249,-7663,-2077,-2,-2,-2,1
47013,-1273,-7664,-2067,-2,-2,-2,1
47018,-1301,-7662,-2056,-2,-2,-2,1
47023,-1332,-7662,-2050,-2,-2,-2,1
47028,-1362,-7658,-2044,-2,-2,-2,1
47033,-1384,-7654,-2041,-2,-1,-2,1
47038,-1400,-7652,-2043,-2,0,-2,1
47043,-1406,-7651,-2048,-2,0,-2,1
47048,-1404,-7652,-2056,-2,1,-2,1
47053,-1396,-7650,-2070,-2,1,-2,1
47058,-1383,-7650,-2083,-2,1,-2,1
47063,-1373,-7650,-2092,-2,0,-2,1
47068,-1365,-7648,-2097,-2,0,-2,1
47073,-1361,-7645,-2100,-2,0,-2,1
47078,-1355,-7644,-2105,-2,-1,-2,1
47083,-1356,-7645,-2111,-2,-1,-2,1
47088,-1361,-7648,-2122,-2,-1,-2,1
47093,-1367,-7649,-2131,-2,-1,-2,1
47098,-1371,-7647,-2134,-2,-1,-2,1
47103,-1371,-7649,-2138,-2,-1,-2,1
47108,-1376,-7647,-2149,-2,-1,-2,1
47113,-1377,-7651,-2157,-2,-1,-2,1
47118,-1380,-7651,-2155,-2,-1,-2,1
47123,-1382,-7652,-2147,-2,-1,-2,1
47128,-1383,-7653,-2140,-2,-2,-2,1
47133,-1387,-7653,-2136,-2,-2,-2,1
47138,-1395,-7651,-2139,-2,-2,-2,1
47143,-1409,-7649,-2138,-2,-1,-2,1
47148,-1424,-7651,-2136,-2,-1,-2,1
47153,-1439,-7651,-2136,-2,0,-2,1
47158,-1455,-7651,-2136,-2,0,-2,1
47163,-1464,-7651,-2135,-2,0,-2,1
47168,-1468,-7651,-2139,-2,0,-2,1
47173,-1475,-7648,-2142,-2,0,-2,1
47178,-1482,-7645,-2151,-2,0,-2,1
47183,-1492,-7643,-2159,-2,1,-2,1
47188,-1500,-7642,-2168,-2,1,-2,1
47193,-1511,-7643,-2172,-2,1,-2,1
47198,-1516,-7643,-2170,-2,1,-2,1
47203,-1515,-7641,-2164,-2,1,-2,1
47208,-1510,-7644,-2152,-2,1,-2,1
47213,-1499,-7646,-2147,-2,1,-2,1
47217,-1491,-7645,-2150,-2,1,-2,1
47223,-1479,-7644,-2148,-2,1,-2,1
47227,-1467,-7645,-2146,-2,2,-2,1
47233,-1458,-7645,-2147,-2,2,-3,1
47238,-1453,-7646,-2149,-2,2,-3,1
47242,-1451,-7650,-2148,-2,2,-3,1
47248,-1448,-7653,-2144,-2,1,-3,1
47252,-1454,-7651,-2142,-2,1,-3,1
47257,-1461,-7648,-2139,-2,2,-3,1
47263,-1470,-7647,-2138,-2,2,-3,1
47267,-1480,-7648,-2128,-2,2,-3,1
47273,-1482,-7645,-2126,-2,2,-3,1
47277,-1477,-7644,-2128,-2,2,-3,1
47283,-1471,-7642,-2131,-2,2,-3,1
47287,-1463,-7642,-2137,-2,2,-3,1
47292,-1457,-7644,-2141,-2,2,-3,1
47297,-1449,-7646,-2144,-2,2,-3,1
47302,-1442,-7646,-2144,-2,3,-3,1
47307,-1433,-7645,-2134,-2,3,-3,1
47312,-1421,-7645,-2123,-2,2,-3,1
47317,-1409,-7645,-2118,-2,2,-3,1
47322,-1399,-7645,-2114,-2,1,-3,1
47327,-1387,-7647,-2118,-2,1,-3,1
47332,-1373,-7647,-2120,-2,1,-3,1
47337,-1357,-7645,-2127,-2,1,-3,1
47342,-1342,-7646,-2142,-2,1,-3,1
47347,-1330,-7646,-2157,-2,1,-3,1
47352,-1319,-7649,-2163,-2,1,-3,1
47357,-1312,-7649,-2169,-2,1,-3,1
47362,-1310,-7646,-2165,-2,1,-3,1
47367,-1308,-7645,-2158,-2,1,-3,1
47372,-1316,-7645,-2149,-2,1,-3,1
47377,-1327,-7644,-2145,-2,1,-3,1
47382,-1338,-7641,-2147,-2,2,-3,1
47387,-1342,-7641,-2146,-2,2,-3,1
47392,-1340,-7642,-2153,-2,2,-3,1
47397,-1336,-7644,-2161,-2,1,-3,1
47402,-1333,-7643,-2173,-2,1,-3,1
47407,-1325,-7644,-2183,-2,1,-3,1
47412,-1315,-7643,-2186,-2,1,-3,1
47417,-1308,-7645,-2179,-2,1,-3,1
47422,-1298,-7646,-2174,-2,1,-3,1
47427,-1288,-7644,-2171,-2,1,-3,1
47432,-1275,-7648,-2169,-2,1,-3,1
47437,-1263,-7651,-2171,-2,0,-3,1
47442,-1251,-7652,-2176,-2,0,-3,1
47447,-1241,-7649,-2183,-2,0,-3,1
47452,-1234,-7651,-2191,-2,0,-3,1
47457,-1232,-7646,-2200,-2,0,-2,1
47462,-1238,-7641,-2202,-2,0,-2,1
47467,-1249,-7641,-2199,-2,0,-2,1
47472,-1262,-7645,-2191,-2,0,-2,1
47477,-1278,-7644,-2181,-2,0,-2,1
47482,-1294,-7643,-2169,-2,-1,-2,1
47487,-1305,-7643,-2164,-1,-1,-2,1
47492,-1315,-7643,-2158,-1,-1,-2,1
47497,-1319,-7643,-2153,-1,0,-2,1
47502,-1323,-7644,-2152,-1,0,-2,1
47507,-1326,-7646,-2159,-1,-1,-2,1
47512,-1328,-7644,-2164,-1,-1,-2,1
47517,-1332,-7644,-2165,-2,-1,-2,1
47522,-1335,-7643,-2166,-2,-1,-2,1
47527,-1337,-7642,-2157,-2,-1,-2,1
47532,-1350,-7641,-2146,-2,0,-2,1
47537,-1359,-7644,-2138,-2,0,-2,1
47542,-1365,-7644,-2124,-2,0,-2,1
47547,-1364,-7644,-2109,-2,1,-2,1
47552,-1355,-7644,-2096,-2,1,-2,1
47557,-1339,-7645,-2088,-2,1,-2,1
47562,-1321,-7648,-2078,-2,2,-2,1
47567,-1296,-7651,-2075,-2,2,-2,1
47572,-1276,-7654,-2070,-2,2,-2,1
47577,-1264,-7655,-2062,-2,2,-2,1
47582,-1260,-7658,-2059,-2,1,-2,1
47587,-1265,-7659,-2054,-2,1,-2,1
47592,-1271,-7657,-2057,-2,1,-2,1
47597,-1277,-7654,-2057,-2,1,-2,1
47602,-1277,-7654,-2053,-2,1,-2,1
47607,-1270,-7654,-2052,-2,1,-2,1
47612,-1260,-7657,-2057,-2,0,-2,1
47617,-1250,-7655,-2061,-2,-1,-2,1
47622,-1245,-7655,-2070,-2,-1,-2,1
47627,-1242,-7655,-2076,-2,-1,-2,1
47632,-1246,-7653,-2075,-2,-2,-2,1
47637,-1259,-7651,-2070,-2,-2,-2,1
47642,-1276,-7650,-2063,-2,-2,-2,1
47647,-1298,-7651,-2056,-2,-1,-2,1
47652,-1319,-7651,-2051,-2,-1,-2,1
47657,-1336,-7653,-2051,-2,-1,-2,1
47662,-1351,-7653,-2059,-2,-1,-2,1
47667,-1365,-7654,-2074,-2,-1,-2,1
47672,-1374,-7654,-2094,-2,-1,-2,1
47677,-1373,-7654,-2107,-2,0,-2,1
47682,-1369,-7653,-2116,-2,0,-2,1
47687,-1368,-7649,-2125,-2,0,-2,1
47692,-1365,-7648,-2124,-2,0,-2,1
47697,-1366,-7649,-2119,-2,-1,-2,1
47702,-1372,-7648,-2115,-2,-1,-2,1
47707,-1375,-7647,-2114,-2,0,-2,1
47712,-1374,-7646,-2108,-2,0,-2,1
47717,-1371,-7646,-2109,-2,1,-2,1
47722,-1367,-7645,-2109,-2,1,-2,1
47727,-1364,-7647,-2117,-2,1,-2,1
47732,-1361,-7649,-2127,-2,1,-2,1
47737,-1359,-7649,-2140,-2,0,-2,1
47742,-1361,-7650,-2149,-2,0,-2,1
47747,-1368,-7651,-2149,-2,0,-2,1
47752,-1379,-7654,-2152,-2,0,-2,1
47757,-1389,-7655,-2152,-2,-1,-2,1
47762,-1395,-7653,-2154,-2,-1,-2,1
47767,-1398,-7651,-2152,-2,-1,-2,1
47772,-1398,-7650,-2152,-2,-1,-2,1
47777,-1397,-7650,-2152,-2,-1,-2,1
47782,-1394,-7650,-2158,-2,-1,-2,1
47787,-1396,-7651,-2162,-2,-1,-2,1
47792,-1403,-7648,-2165,-2,0,-2,1
47797,-1409,-7645,-2167,-2,0,-2,1
47802,-1420,-7644,-2167,-2,0,-2,1
47807,-1434,-7645,-2164,-2,0,-2,1
47812,-1445,-7643,-2162,-2,1,-2,1
47817,-1449,-7645,-2156,-2,2,-2,1
47822,-1444,-7644,-2153,-2,2,-2,1
47827,-1437,-7642,-2150,-2,3,-2,1
47832,-1421,-7640,-2152,-2,2,-2,1
47837,-1404,-7642,-2156,-2,2,-2,1
47842,-1388,-7644,-2165,-2,2,-2,1
47847,-1370,-7642,-2172,-2,2,-3,1
47852,-1358,-7642,-2175,-2,2,-3,1
47857,-1351,-7640,-2173,-2,2,-3,1
47862,-1349,-7639,-2166,-2,2,-3,1
47867,-1348,-7638,-2159,-2,1,-3,1
47872,-1347,-7641,-2153,-2,1,-3,1
47877,-1345,-7642,-2154,-2,1,-3,1
47882,-1337,-7641,-2149,-2,1,-2,1
47887,-1322,-7642,-2141,-2,0,-2,1
47892,-1314,-7642,-2139,-2,0,-3,1
47897,-1304,-7642,-2140,-2,0,-3,1
47902,-1292,-7644,-2134,-2,0,-3,1
47907,-1283,-7645,-2132,-2,0,-3,1
47912,-1278,-7643,-2134,-2,0,-2,1
47917,-1277,-7639,-2134,-2,0,-2,1
47922,-1283,-7641,-2131,-2,1,-2,1
47927,-1282,-7644,-2127,-2,1,-2,1
47932,-1283,-7646,-2121,-2,2,-2,1
47937,-1283,-7646,-2121,-2,2,-2,1
47942,-1286,-7645,-2130,-2,1,-2,1
47947,-1290,-7641,-2139,-2,1,-2,1
47952,-1298,-7640,-2151,-2,1,-2,1
47957,-1308,-7642,-2161,-2,0,-2,1
47962,-1325,-7643,-2173,-2,-1,-2,1
47967,-1340,-7642,-2180,-2,-1,-3,1
47972,-1353,-7645,-2182,-2,0,-2,1
47977,-1363,-7646,-2180,-2,0,-2,1
47982,-1364,-7646,-2174,-2,-1,-2,1
47987,-1368,-7645,-2170,-2,0,-2,1
47991,-1363,-7647,-2165,-2,0,-2,1
47997,-1352,-7647,-2161,-2,1,-2,1
48002,-1339,-7646,-2157,-2,1,-2,1
48006,-1329,-7645,-2160,-2,1,-2,1
48011,-1322,-7644,-2163,-2,1,-2,1
48016,-1323,-7639,-2173,-2,1,-3,1
48022,-1323,-7638,-2182,-2,1,-2,1
48026,-1322,-7637,-2184,-2,1,-2,1
48031,-1321,-7636,-2184,-2,1,-2,1
48036,-1321,-7635,-2186,-2,1,-2,1
48042,-1315,-7632,-2185,-2,1,-2,1
48046,-1305,-7630,-2178,-2,2,-2,1
48051,-1299,-7631,-2169,-2,2,-2,1
48056,-1291,-7632,-2163,-2,2,-2,1
48061,-1284,-7631,-2162,-2,2,-2,1
48066,-1281,-7633,-2165,-2,1,-2,1
48071,-1282,-7632,-2168,-2,1,-2,1
48076,-1280,-7633,-2176,-2,0,-2,1
48081,-1273,-7632,-2181,-2,0,-2,1
48086,-1266,-7634,-2185,-2,0,-2,1
48091,-1262,-7637,-2185,-2,-1,-2,1
48096,-1264,-7638,-2184,-2,-1,-2,1
48101,-1270,-7637,-2181,-2,-1,-2,1
48106,-1276,-7636,-2177,-2,-1,-2,1
48111,-1280,-7636,-2174,-2,-1,-2,1
48116,-1287,-7637,-2171,-2,-1,-2,1
48121,-1293,-7636,-2169,-2,-1,-2,1
48126,-1304,-7636,-2172,-2,0,-2,1
48131,-1315,-7636,-2168,-2,0,-2,1
48136,-1327,-7639,-2169,-2,0,-2,1
48141,-1338,-7642,-2174,-2,0,-2,1
48146,-1350,-7643,-2179,-2,0,-2,1
48151,-1361,-7643,-2184,-2,1,-2,1
48156,-1365,-7644,-2186,-2,1,-2,1
48161,-1365,-7643,-2188,-2,1,-2,1
48166,-1359,-7645,-2189,-2,1,-2,1
48171,-1353,-7648,-2192,-2,1,-2,1
48176,-1351,-7648,-2199,-2,1,-2,1
48181,-1351,-7648,-2207,-2,0,-2,1
48186,-1361,-7645,-2212,-2,-1,-2,1
48191,-1367,-7640,-2216,-2,0,-2,1
48196,-1374,-7638,-2217,-2,0,-2,1
48201,-1377,-7638,-2209,-2,0,-2,1
48206,-1381,-7635,-2208,-2,-1,-3,1
48211,-1379,-7634,-2204,-2,-1,-3,1
48216,-1372,-7634,-2198,-2,-1,-3,1
48221,-1361,-7634,-2193,-2,0,-2,1
48226,-1352,-7637,-2186,-2,0,-2,1
48231,-1338,-7638,-2177,-2,0,-3,1
48236,-1329,-7638,-2173,-2,0,-3,1
48241,-1329,-7642,-2174,-2,0,-3,1
48246,-1333,-7642,-2175,-2,0,-3,1
48251,-1338,-7645,-2181,-2,1,-2,1
48256,-1337,-7644,-2180,-2,1,-2,1
48261,-1332,-7643,-2176,-2,1,-2,1
48266,-1326,-7643,-2168,-2,1,-2,1
48271,-1321,-7642,-2161,-2,1,-2,1
48276,-1318,-7643,-2157,-2,1,-2,1
48281,-1320,-7645,-2158,-2,1,-2,1
48286,-1325,-7644,-2160,-2,1,-2,1
48291,-1333,-7642,-2161,-2,0,-3,1
48296,-1345,-7643,-2166,-2,-1,-3,1
48301,-1357,-7645,-2177,-2,-1,-3,1
48306,-1364,-7644,-2185,-2,-1,-3,1
48311,-1364,-7645,-2189,-2,-1,-2,1
48316,-1364,-7646,-2196,-2,-1,-2,1
48321,-1355,-7645,-2195,-2,0,-3,1
48326,-1338,-7643,-2187,-2,0,-3,1
48331,-1320,-7641,-2174,-2,0,-3,1
48336,-1304,-7639,-2160,-2,0,-3,1
48341,-1289,-7639,-2147,-2,0,-3,1
48346,-1276,-7640,-2139,-2,0,-2,1
48351,-1267,-7643,-2133,-2,0,-2,1
48356,-1257,-7641,-2126,-2,0,-2,1
48361,-1252,-7643,-2128,-2,0,-2,1
48366,-1248,-7644,-2137,-2,0,-2,1
48371,-1240,-7644,-2144,-2,0,-2,1
48376,-1232,-7644,-2143,-2,0,-2,1
48381,-1227,-7644,-2143,-2,0,-2,1
48386,-1225,-7643,-2143,-2,0,-2,1
48391,-1231,-7643,-2140,-2,0,-2,1
48396,-1247,-7645,-2139,-2,-1,-2,1
48401,-1267,-7648,-2141,-2,-1,-2,1
48406,-1290,-7651,-2142,-2,-2,-2,1
48411,-1309,-7650,-2150,-2,-2,-2,1
48416,-1323,-7650,-2159,-2,-2,-2,1
48421,-1328,-7651,-2165,-2,-2,-2,1
48426,-1331,-7649,-2168,-2,-2,-2,1
48431,-1327,-7648,-2166,-2,-1,-2,1
48436,-1315,-7647,-2162,-2,0,-2,1
48441,-1302,-7648,-2149,-2,0,-2,1
48446,-1293,-7649,-2137,-2,0,-2,1
48451,-1287,-7652,-2128,-2,-1,-2,1
48456,-1290,-7651,-2128,-2,0,-2,1
48461,-1292,-7649,-2140,-2,0,-2,1
48466,-1295,-7648,-2155,-2,0,-2,1
48471,-1294,-7647,-2171,-2,1,-2,1
48476,-1292,-7647,-2182,-2,0,-2,1
48481,-1291,-7645,-2191,-2,0,-2,1
48486,-1295,-7639,-2195,-2,-1,-2,1
48491,-1297,-7639,-2191,-2,0,-2,1
48496,-1298,-7639,-2176,-2,0,-2,1
48501,-1299,-7640,-2159,-2,0,-2,1
48506,-1302,-7643,-2145,-2,0,-2,1
48511,-1304,-7647,-2134,-2,0,-2,1
48516,-1307,-7648,-2130,-2,0,-2,1
48521,-1307,-7652,-2135,-1,0,-2,1
48526,-1299,-7653,-2144,-2,0,-2,1
48531,-1288,-7652,-2149,-2,0,-2,1
48536,-1284,-7649,-2163,-2,-1,-2,1
48541,-1277,-7649,-2168,-2,-1,-2,1
48546,-1278,-7649,-2170,-2,-1,-2,1
48551,-1283,-7652,-2167,-2,-1,-2,1
48556,-1287,-7654,-2155,-2,-2,-2,1
48561,-1295,-7654,-2138,-2,-2,-2,1
48566,-1303,-7654,-2124,-2,-1,-2,1
48571,-1307,-7653,-2118,-2,-1,-2,1
48576,-1308,-7655,-2115,-2,-1,-2,1
48581,-1306,-7655,-2125,-2,-1,-2,1
48586,-1300,-7654,-2137,-2,-1,-2,1
48591,-1296,-7655,-2146,-2,-1,-2,1
48596,-1292,-7656,-2159,-2,-1,-2,1
48601,-1296,-7656,-2166,-2,-1,-2,1
48606,-1303,-7652,-2165,-2,-1,-2,1
48611,-1307,-7649,-2166,-2,-1,-2,1
48616,-1307,-7647,-2159,-2,-1,-2,1
48621,-1305,-7648,-2151,-2,-1,-2,1
48626,-1305,-7645,-2147,-2,-2,-2,1
48631,-1309,-7643,-2150,-2,-2,-2,1
48636,-1318,-7645,-2161,-2,-2,-2,1
48641,-1325,-7644,-2169,-1,-2,-2,1
48646,-1329,-7644,-2180,-2,-2,-2,1
48651,-1336,-7644,-2195,-2,-2,-2,1
48656,-1342,-7645,-2202,-2,-2,-2,1
48661,-1355,-7646,-2198,-2,-2,-2,1
48666,-1367,-7646,-2195,-2,-2,-2,1
48671,-1379,-7648,-2194,-2,-2,-2,1
48676,-1398,-7646,-2186,-1,-1,-2,1
48681,-1412,-7644,-2181,-1,-1,-2,1
48686,-1425,-7643,-2175,-1,0,-2,1
48691,-1432,-7641,-2177,-1,0,-2,1
48696,-1435,-7641,-2178,-1,1,-2,1
48701,-1435,-7641,-2179,-1,1,-2,1
48706,-1430,-7643,-2180,-1,1,-2,1
48711,-1423,-7644,-2184,-1,2,-2,1
48716,-1418,-7645,-2190,-1,2,-2,1
48720,-1418,-7644,-2190,-1,2,-2,1
48726,-1425,-7646,-2196,-1,1,-2,1
48731,-1439,-7647,-2197,-1,0,-2,1
48736,-1453,-7648,-2196,-1,0,-2,1
48741,-1462,-7650,-2189,-1,0,-2,1
48746,-1463,-7651,-2183,-1,0,-2,1
48751,-1462,-7649,-2181,-1,0,-2,1
48756,-1459,-7647,-2179,-1,0,-2,1
48760,-1444,-7649,-2167,-1,1,-2,1
48765,-1429,-7648,-2156,-1,1,-3,1
48771,-1412,-7648,-2144,-1,0,-2,1
48775,-1401,-7645,-2128,-1,0,-2,1
48781,-1390,-7645,-2116,-1,1,-2,1
48785,-1379,-7647,-2107,-1,1,-2,1
48790,-1368,-7644,-2098,-1,0,-3,1
48795,-1359,-7646,-2096,-1,1,-2,1
48800,-1352,-7646,-2091,-1,1,-2,1
48805,-1339,-7645,-2082,-1,1,-2,1
48810,-1324,-7644,-2076,-2,2,-2,1
48815,-1309,-7643,-2070,-2,2,-2,1
48820,-1294,-7644,-2064,-2,2,-2,1
48825,-1282,-7645,-2063,-2,1,-2,1
48830,-1281,-7647,-2071,-2,0,-2,1
48835,-1289,-7648,-2076,-2,0,-2,1
48840,-1294,-7647,-2082,-2,0,-2,1
48845,-1299,-7648,-2090,-2,-1,-2,1
48850,-1307,-7648,-2098,-2,-1,-2,1
48855,-1311,-7649,-2099,-2,-1,-2,1
48860,-1308,-7651,-2100,-2,0,-2,1
48865,-1303,-7651,-2097,-2,-1,-2,1
48870,-1301,-7650,-2095,-2,-1,-2,1
48875,-1311,-7649,-2095,-2,-1,-2,1
48880,-1324,-7646,-2100,-2,-1,-2,1
48885,-1342,-7645,-2107,-2,-1,-2,1
48890,-1358,-7645,-2115,-2,-1,-2,1
48895,-1372,-7645,-2119,-2,-1,-2,1
48900,-1382,-7646,-2124,-2,-1,-2,1
48905,-1388,-7650,-2130,-2,0,-2,1
48910,-1388,-7651,-2135,-2,0,-2,1
48915,-1388,-7650,-2140,-2,1,-2,1
48920,-1390,-7649,-2145,-2,1,-2,1
48925,-1391,-7648,-2151,-2,1,-2,1
48930,-1392,-7648,-2154,-2,2,-2,1
48935,-1391,-7647,-2156,-2,2,-2,1
48940,-1390,-7646,-2163,-2,3,-2,1
48945,-1389,-7648,-2167,-2,3,-2,1
48950,-1390,-7648,-2172,-2,3,-2,1
48955,-1387,-7647,-2179,-2,3,-2,1
48960,-1383,-7645,-2186,-2,2,-2,1
48965,-1373,-7644,-2192,-2,2,-2,1
48970,-1361,-7647,-2193,-2,1,-2,1
48975,-1342,-7648,-2194,-2,1,-2,1
48980,-1325,-7652,-2192,-2,1,-2,1
48985,-1311,-7655,-2185,-1,-1,-3,1
48990,-1310,-7653,-2176,-1,-1,-3,1
48995,-1315,-7650,-2166,-1,0,-3,1
49000,-1320,-7647,-2152,-1,0,-3,1
49005,-1328,-7646,-2144,-1,0,-2,1
49010,-1336,-7645,-2133,-2,0,-2,1
49015,-1338,-7646,-2126,-2,1,-2,1
49020,-1337,-7647,-2120,-2,1,-2,1
49025,-1333,-7649,-2116,-2,1,-2,1
49030,-1330,-7651,-2115,-2,0,-2,1
49035,-1327,-7654,-2115,-2,0,-2,1
49040,-1324,-7654,-2115,-2,0,-2,1
49045,-1320,-7654,-2115,-2,-1,-2,1
49050,-1318,-7652,-2114,-2,-1,-2,1
49055,-1313,-7653,-2111,-2,0,-2,1
49060,-1300,-7654,-2107,-2,-1,-2,1
49065,-1286,-7654,-2110,-2,-1,-2,1
49070,-1274,-7657,-2110,-2,-1,-2,1
49075,-1267,-7657,-2107,-2,-1,-2,1
49080,-1261,-7656,-2108,-2,0,-2,1
49085,-1261,-7655,-2107,-2,0,-2,1
49090,-1265,-7656,-2103,-2,0,-2,1
49095,-1269,-7656,-2103,-2,1,-2,1
49100,-1272,-7657,-2103,-2,1,-2,1
49105,-1277,-7657,-2104,-2,1,-2,1
49110,-1287,-7657,-2107,-2,0,-2,1
49115,-1301,-7654,-2123,-2,0,-2,1
49120,-1318,-7653,-2134,-2,-1,-2,1
49125,-1334,-7655,-2147,-2,-1,-2,1
49130,-1354,-7654,-2161,-2,-1,-2,1
49135,-1372,-7652,-2168,-2,-1,-2,1
49140,-1385,-7655,-2169,-2,-1,-2,1
49145,-1390,-7656,-2167,-2,-1,-2,1
49150,-1397,-7655,-2158,-2,-1,-2,1
49155,-1397,-7650,-2147,-2,-1,-2,1
49160,-1395,-7648,-2138,-2,0,-2,1
49165,-1391,-7650,-2139,-2,0,-2,1
49170,-1386,-7648,-2140,-2,0,-2,1
49175,-1377,-7647,-2142,-2,0,-2,1
49180,-1369,-7649,-2152,-2,0,-2,1
49185,-1365,-7650,-2162,-2,0,-2,1
49190,-1363,-7650,-2164,-2,1,-2,1
49195,-1356,-7652,-2164,-2,1,-2,1
49200,-1349,-7651,-2163,-2,1,-2,1
49205,-1343,-7651,-2155,-2,2,-2,1
49210,-1336,-7650,-2144,-2,2,-2,1
49215,-1332,-7650,-2141,-2,2,-2,1
49220,-1331,-7650,-2138,-2,2,-2,1
49225,-1331,-7652,-2138,-2,2,-2,1
49230,-1333,-7652,-2142,-2,2,-2,1
49235,-1334,-7654,-2146,-2,2,-2,1
49240,-1338,-7654,-2149,-2,1,-2,1
49245,-1346,-7656,-2149,-2,2,-2,1
49250,-1345,-7654,-2149,-2,2,-2,1
49255,-1346,-7656,-2145,-2,1,-2,1
49260,-1349,-7659,-2144,-2,0,-2,1
49265,-1358,-7660,-2142,-2,-1,-2,1
49270,-1360,-7659,-2146,-1,-1,-2,1
49275,-1355,-7661,-2148,-2,-1,-2,1
49280,-1355,-7660,-2152,-2,-2,-3,1
49285,-1357,-7657,-2159,-2,-2,-3,1
49290,-1359,-7653,-2161,-2,-1,-3,1
49295,-1356,-7652,-2157,-2,-1,-2,1
49300,-1353,-7652,-2152,-2,0,-2,1
49305,-1349,-7652,-2145,-2,0,-2,1
49310,-1340,-7655,-2136,-2,0,-2,1
49315,-1333,-7656,-2134,-1,0,-2,1
49320,-1326,-7654,-2138,-1,0,-2,1
49325,-1324,-7654,-2142,-2,0,-2,1
49330,-1323,-7651,-2143,-2,0,-2,1
49335,-1327,-7650,-2137,-2,1,-2,1
49340,-1329,-7646,-2132,-2,1,-2,1
49345,-1328,-7643,-2123,-2,1,-2,1
49350,-1331,-7643,-2119,-2,1,-2,1
49355,-1325,-7645,-2113,-2,1,-2,1
49360,-1315,-7647,-2106,-2,0,-2,1
49365,-1313,-7647,-2101,-2,0,-2,1
49370,-1311,-7647,-2100,-2,0,-2,1
49375,-1307,-7645,-2101,-2,0,-2,1
49380,-1307,-7649,-2108,-2,-1,-2,1
49385,-1308,-7646,-2115,-2,-1,-2,1
49390,-1311,-7645,-2121,-2,-1,-2,1
49395,-1310,-7644,-2122,-2,-1,-2,1
49400,-1310,-7644,-2116,-2,-1,-2,1
49405,-1312,-7647,-2112,-2,-2,-2,1
49410,-1318,-7649,-2109,-2,-2,-2,1
49415,-1326,-7649,-2113,-2,-2,-2,1
49420,-1334,-7649,-2110,-2,-1,-2,1
49425,-1338,-7649,-2102,-2,-1,-2,1
49430,-1339,-7650,-2093,-2,-1,-2,1
49435,-1339,-7651,-2086,-2,-1,-2,1
49440,-1338,-7652,-2089,-2,0,-2,1
49445,-1339,-7652,-2099,-2,0,-2,1
49449,-1343,-7654,-2105,-2,0,-2,1
49455,-1346,-7652,-2108,-2,1,-2,1
49460,-1348,-7651,-2110,-2,1,-2,1
49465,-1350,-7651,-2108,-2,1,-2,1
49470,-1347,-7648,-2102,-2,2,-2,1
49475,-1343,-7647,-2094,-2,2,-2,1
49480,-1339,-7648,-2088,-2,2,-2,1
49484,-1331,-7649,-2085,-2,2,-2,1
49490,-1326,-7649,-2081,-2,2,-2,1
49495,-1326,-7650,-2086,-2,1,-2,1
49500,-1331,-7650,-2100,-2,1,-2,1
49504,-1331,-7648,-2110,-2,1,-2,1
49509,-1328,-7647,-2119,-2,1,-2,1
49514,-1323,-7651,-2128,-2,1,-2,1
49520,-1314,-7655,-2131,-2,0,-2,1
49524,-1300,-7654,-2129,-2,0,-2,1
49530,-1284,-7652,-2122,-2,0,-2,1
49534,-1273,-7654,-2106,-2,0,-2,1
49539,-1270,-7656,-2097,-2,0,-2,1
49544,-1273,-7656,-2088,-2,0,-2,1
49550,-1281,-7656,-2085,-2,0,-2,1
49554,-1292,-7656,-2088,-2,0,-2,1
49559,-1302,-7656,-2098,-2,-1,-2,1
49564,-1314,-7656,-2110,-2,-1,-2,1
49569,-1318,-7652,-2122,-2,0,-2,1
49574,-1323,-7649,-2133,-2,0,-2,1
49579,-1324,-7648,-2137,-2,0,-2,1
49584,-1324,-7650,-2135,-2,0,-2,1
49589,-1324,-7648,-2127,-2,-1,-2,1
49594,-1325,-7652,-2116,-2,-1,-2,1
49599,-1326,-7654,-2106,-2,-1,-2,1
49604,-1326,-7652,-2100,-2,-1,-2,1
49609,-1326,-7649,-2105,-2,-1,-2,1
49614,-1329,-7649,-2115,-2,-1,-2,1
49619,-1332,-7648,-2128,-2,-1,-2,1
49624,-1336,-7646,-2140,-2,-1,-2,1
49629,-1338,-7645,-2150,-2,0,-2,1
49634,-1339,-7644,-2149,-2,0,-2,1
49639,-1338,-7644,-2145,-2,0,-2,1
49644,-1336,-7645,-2134,-2,0,-2,1
49649,-1336,-7644,-2123,-2,0,-2,1
49654,-1335,-7644,-2116,-2,0,-2,1
49659,-1341,-7645,-2116,-2,0,-2,1
49664,-1348,-7646,-2116,-2,0,-2,1
49669,-1351,-7648,-2120,-2,1,-2,1
49674,-1353,-7648,-2128,-2,0,-2,1
49679,-1354,-7648,-2143,-2,0,-2,1
49684,-1354,-7649,-2153,-2,0,-2,1
49689,-1347,-7650,-2156,-2,0,-2,1
49694,-1342,-7654,-2158,-2,0,-2,1
49699,-1343,-7655,-2159,-2,-1,-2,1
49704,-1348,-7654,-2151,-2,-1,-2,1
49709,-1355,-7654,-2141,-2,-2,-2,1
49714,-1364,-7652,-2134,-2,-2,-2,1
49719,-1376,-7654,-2135,-2,-1,-2,1
49724,-1380,-7654,-2132,-2,-1,-2,1
49729,-1383,-7653,-2138,-2,-1,-2,1
49734,-1383,-7652,-2150,-2,0,-2,1
49739,-1383,-7648,-2158,-2,0,-2,1
49744,-1388,-7648,-2165,-2,0,-2,1
49749,-1395,-7647,-2160,-2,0,-2,1
49754,-1403,-7648,-2149,-2,1,-2,1
49759,-1407,-7647,-2135,-2,1,-2,1
49764,-1410,-7645,-2123,-2,1,-2,1
49769,-1406,-7645,-2121,-2,1,-2,1
49774,-1403,-7648,-2116,-2,1,-2,1
49779,-1395,-7646,-2121,-2,0,-2,1
49784,-1392,-7646,-2131,-2,0,-2,1
49789,-1386,-7645,-2142,-2,1,-2,1
49794,-1378,-7646,-2156,-2,0,-2,1
49799,-1367,-7650,-2162,-2,0,-2,1
49804,-1356,-7650,-2163,-2,0,-2,1
49809,-1345,-7649,-2158,-2,0,-2,1
49814,-1337,-7649,-2149,-2,0,-2,1
49819,-1334,-7650,-2139,-2,0,-2,1
49824,-1334,-7651,-2134,-2,0,-2,1
49829,-1330,-7652,-2126,-2,0,-2,1
49834,-1327,-7650,-2127,-2,-1,-2,1
49839,-1326,-7649,-2131,-2,-1,-2,1
49844,-1324,-7649,-2137,-2,0,-2,1
49849,-1328,-7649,-2141,-2,0,-2,1
49854,-1335,-7650,-2146,-2,0,-2,1
49859,-1341,-7653,-2141,-2,0,-2,1
49864,-1352,-7651,-2136,-2,0,-2,1
49869,-1361,-7650,-2128,-2,1,-2,1
49874,-1367,-7650,-2126,-2,1,-2,1
49879,-1373,-7650,-2129,-2,1,-2,1
49884,-1374,-7647,-2133,-2,1,-2,1
49889,-1373,-7647,-2138,-2,1,-2,1
49894,-1373,-7644,-2145,-2,0,-2,1
49899,-1379,-7645,-2158,-2,-1,-2,1
49904,-1387,-7645,-2173,-2,-1,-3,1
49909,-1392,-7648,-2182,-2,-1,-3,1
49914,-1400,-7648,-2188,-2,-1,-3,1
49919,-1406,-7647,-2183,-2,-1,-2,1
49924,-1406,-7646,-2171,-2,-1,-2,1
49929,-1400,-7647,-2155,-2,0,-2,1
49934,-1387,-7651,-2144,-2,0,-2,1
49939,-1374,-7651,-2130,-2,1,-2,1
49944,-1364,-7652,-2124,-2,1,-2,1
49949,-1354,-7650,-2127,-2,1,-2,1
49954,-1349,-7649,-2127,-2,2,-2,1
49959,-1344,-7647,-2128,-2,2,-2,1
49964,-1344,-7646,-2135,-2,2,-2,1
49969,-1342,-7647,-2137,-2,2,-2,1
49974,-1339,-7647,-2139,-2,3,-2,1
49979,-1339,-7646,-2131,-2,3,-2,1
49984,-1342,-7647,-2122,-2,4,-2,1
49989,-1342,-7648,-2117,-2,4,-2,1
49994,-1339,-7645,-2111,-2,4,-2,1
49999,-1334,-7646,-2113,-2,3,-2,1
50004,-1326,-7647,-2123,-2,1,-2,1
50009,-1323,-7645,-2152,-2,0,-2,1
50014,-1321,-7645,-2169,-2,0,-2,1
50019,-1321,-7642,-2182,-2,-1,-2,1
50024,-1323,-7645,-2187,-2,0,-2,1
50029,-1324,-7644,-2175,-2,0,-2,1
50034,-1327,-7642,-2157,-2,0,-2,1
50039,-1326,-7643,-2137,-2,-1,-2,1
50044,-1323,-7645,-2117,-2,-1,-2,1
50049,-1323,-7646,-2109,-2,-1,-2,1
50054,-1318,-7647,-2111,-2,-1,-2,1
50059,-1314,-7644,-2124,-2,0,-2,1
50064,-1311,-7643,-2143,-2,0,-2,1
50069,-1314,-7642,-2160,-2,0,-2,1
50074,-1318,-7643,-2178,-2,0,-2,1
50079,-1326,-7645,-2186,-2,0,-2,1
50084,-1332,-7647,-2182,-2,0,-2,1
50089,-1333,-7648,-2164,-2,0,-2,1
50094,-1328,-7646,-2147,-2,0,-2,1
50099,-1322,-7645,-2131,-2,-1,-2,1
50104,-1318,-7647,-2122,-2,-1,-2,1
50109,-1316,-7646,-2127,-2,0,-2,1
50114,-1306,-7648,-2139,-2,0,-2,1
50119,-1303,-7647,-2162,-2,-1,-2,1
50124,-1304,-7649,-2184,-2,-1,-2,1
50129,-1308,-7649,-2202,-2,-2,-2,1
50134,-1317,-7649,-2214,-2,-1,-2,1
50139,-1324,-7648,-2214,-2,-1,-2,1
50144,-1331,-7645,-2199,-2,-1,-2,1
50149,-1337,-7645,-2178,-2,-1,-2,1
50154,-1340,-7648,-2160,-2,-1,-2,1
50159,-1339,-7647,-2140,-2,-1,-2,1
50164,-1336,-7647,-2136,-2,0,-2,1
50169,-1336,-7648,-2137,-2,0,-2,1
50174,-1335,-7646,-2150,-2,0,-2,1
50179,-1334,-7643,-2165,-2,-1,-2,1
50184,-1334,-7640,-2179,-2,-1,-2,1
50189,-1342,-7639,-2194,-2,-1,-2,1
50194,-1353,-7639,-2201,-2,-1,-2,1
50199,-1366,-7641,-2195,-2,0,-2,1
50204,-1371,-7641,-2183,-2,-1,-2,1
50209,-1374,-7640,-2173,-2,-1,-2,1
50214,-1372,-7641,-2159,-2,-2,-2,1
50219,-1373,-7643,-2154,-2,-2,-2,1
50224,-1378,-7644,-2155,-2,-1,-2,1
50229,-1380,-7644,-2156,-2,-1,-2,1
50234,-1378,-7643,-2160,-2,0,-2,1
50238,-1371,-7641,-2167,-2,0,-2,1
50244,-1365,-7639,-2173,-2,0,-2,1
50249,-1358,-7639,-2173,-2,0,-2,1
50254,-1351,-7640,-2176,-2,0,-2,1
50259,-1346,-7640,-2177,-2,0,-2,1
50264,-1348,-7642,-2173,-2,0,-2,1
50268,-1350,-7643,-2164,-2,0,-2,1
50274,-1355,-7641,-2163,-2,0,-2,1
50278,-1360,-7639,-2158,-2,0,-2,1
50283,-1359,-7642,-2157,-2,-1,-2,1
50288,-1358,-7641,-2160,-2,-1,-2,1
50293,-1357,-7642,-2159,-2,-1,-2,1
50298,-1351,-7641,-2155,-2,0,-2,1
50303,-1347,-7640,-2151,-2,0,-2,1
50308,-1340,-7640,-2144,-2,0,-2,1
50313,-1338,-7641,-2138,-2,0,-2,1
50318,-1340,-7643,-2137,-2,0,-2,1
50323,-1341,-7645,-2131,-2,1,-2,1
50328,-1342,-7644,-2128,-2,1,-2,1
50333,-1341,-7641,-2132,-2,1,-2,1
50338,-1339,-7638,-2142,-2,1,-2,1
50343,-1332,-7640,-2154,-2,0,-2,1
50348,-1331,-7641,-2162,-2,0,-2,1
50353,-1334,-7642,-2172,-2,-1,-2,1
50358,-1337,-7645,-2180,-2,0,-2,1
50363,-1338,-7644,-2180,-2,0,-2,1
50368,-1343,-7649,-2174,-2,0,-2,1
50373,-1346,-7647,-2170,-2,0,-2,1
50378,-1343,-7646,-2158,-2,1,-2,1
50383,-1341,-7644,-2149,-2,1,-2,1
50388,-1340,-7643,-2146,-2,0,-2,1
50393,-1344,-7639,-2148,-2,0,-2,1
50398,-1355,-7637,-2164,-2,0,-2,1
50403,-1366,-7639,-2182,-2,0,-2,1
50408,-1374,-7640,-2195,-2,0,-2,1
50413,-1380,-7641,-2203,-2,0,-2,1
50418,-1370,-7637,-2202,-2,1,-2,1
50423,-1359,-7636,-2193,-2,1,-2,1
50428,-1350,-7638,-2178,-2,1,-2,1
50433,-1339,-7640,-2161,-2,0,-2,1
50438,-1337,-7640,-2148,-2,0,-2,1
50443,-1339,-7641,-2151,-2,-1,-3,1
50448,-1350,-7642,-2161,-2,0,-3,1
50453,-1360,-7637,-2170,-2,0,-2,1
50458,-1365,-7635,-2182,-2,0,-2,1
50463,-1368,-7636,-2191,-2,0,-2,1
50468,-1363,-7639,-2194,-2,0,-2,1
50473,-1354,-7639,-2188,-2,1,-2,1
50478,-1344,-7640,-2177,-2,2,-2,1
50483,-1339,-7640,-2158,-2,2,-2,1
50488,-1336,-7643,-2137,-2,1,-2,1
50493,-1336,-7642,-2130,-2,1,-2,1
50498,-1337,-7640,-2130,-2,1,-2,1
50503,-1337,-7640,-2136,-2,1,-2,1
50508,-1337,-7643,-2148,-2,0,-2,1
50513,-1338,-7646,-2165,-2,0,-2,1
50518,-1335,-7647,-2183,-2,0,-2,1
50523,-1329,-7645,-2184,-2,0,-2,1
50528,-1320,-7643,-2175,-2,0,-2,1
50533,-1311,-7641,-2159,-2,0,-2,1
50538,-1306,-7646,-2139,-2,1,-2,1
50543,-1291,-7643,-2124,-2,1,-2,1
50548,-1285,-7641,-2117,-2,0,-2,1
50553,-1292,-7639,-2113,-2,0,-2,1
50558,-1283,-7640,-2112,-2,0,-2,1
50563,-1284,-7641,-2123,-2,0,-2,1
50568,-1284,-7642,-2139,-2,1,-2,1
50573,-1281,-7645,-2160,-2,0,-2,1
50578,-1291,-7645,-2180,-2,0,-2,1
50583,-1296,-7641,-2185,-2,0,-2,1
50588,-1295,-7640,-2183,-2,0,-2,1
50593,-1302,-7641,-2175,-2,-1,-2,1
50598,-1305,-7642,-2166,-2,-1,-2,1
50603,-1316,-7645,-2156,-2,-1,-2,1
50608,-1329,-7643,-2145,-2,0,-2,1
50613,-1339,-7640,-2143,-2,0,-2,1
50618,-1347,-7640,-2149,-2,0,-2,1
50623,-1353,-7638,-2163,-2,1,-2,1
50628,-1350,-7637,-2181,-2,1,-2,1
50633,-1346,-7638,-2195,-2,0,-2,1
50638,-1344,-7639,-2210,-2,0,-2,1
50643,-1337,-7640,-2217,-2,0,-2,1
50648,-1338,-7640,-2216,-2,-1,-2,1
50653,-1346,-7641,-2214,-2,-1,-2,1
50658,-1359,-7641,-2208,-2,-1,-2,1
50663,-1368,-7640,-2200,-2,-1,-2,1
50668,-1374,-7639,-2192,-2,0,-2,1
50673,-1373,-7640,-2188,-2,0,-2,1
50678,-1368,-7642,-2179,-2,0,-2,1
50683,-1359,-7641,-2178,-2,1,-2,1
50688,-1350,-7640,-2175,-2,1,-2,1
50693,-1346,-7642,-2179,-2,1,-2,1
50698,-1344,-7642,-2178,-2,1,-2,1
50703,-1345,-7638,-2178,-2,0,-2,1
50708,-1344,-7637,-2183,-2,0,-2,1
50713,-1345,-7637,-2189,-2,0,-2,1
50718,-1349,-7638,-2188,-2,0,-2,1
50723,-1350,-7639,-2186,-2,0,-2,1
50728,-1345,-7636,-2179,-2,0,-2,1
50733,-1337,-7639,-2173,-2,0,-2,1
50738,-1328,-7638,-2168,-2,0,-2,1
50743,-1317,-7637,-2167,-2,0,-2,1
50748,-1307,-7640,-2165,-2,0,-2,1
50753,-1306,-7640,-2165,-2,0,-2,1
50758,-1304,-7642,-2164,-2,0,-2,1
50763,-1303,-7642,-2168,-2,1,-2,1
50768,-1310,-7641,-2169,-2,0,-2,1
50773,-1316,-7640,-2169,-2,1,-2,1
50778,-1322,-7638,-2165,-2,1,-2,1
50783,-1326,-7639,-2158,-2,0,-2,1
50788,-1333,-7638,-2156,-2,0,-2,1
50793,-1342,-7637,-2156,-2,-1,-2,1
50798,-1347,-7636,-2160,-2,0,-2,1
50803,-1345,-7635,-2160,-2,0,-2,1
50808,-1343,-7636,-2163,-2,0,-2,1
50813,-1341,-7637,-2165,-2,0,-2,1
50818,-1336,-7638,-2168,-2,0,-2,1
50823,-1334,-7638,-2165,-2,0,-2,1
50828,-1333,-7638,-2159,-2,0,-2,1
50833,-1331,-7636,-2156,-2,1,-2,1
50838,-1331,-7636,-2159,-2,1,-2,1
50843,-1329,-7638,-2163,-2,1,-2,1
50848,-1331,-7638,-2167,-2,1,-2,1
50853,-1332,-7639,-2169,-2,1,-2,1
50858,-1333,-7637,-2171,-2,1,-2,1
50863,-1337,-7635,-2172,-2,0,-2,1
50868,-1341,-7637,-2168,-2,1,-2,1
50873,-1340,-7636,-2169,-2,1,-2,1
50878,-1342,-7637,-2167,-2,2,-2,1
50883,-1341,-7638,-2158,-2,2,-2,1
50888,-1338,-7640,-2147,-2,2,-2,1
50893,-1332,-7641,-2140,-2,3,-2,1
50898,-1324,-7640,-2130,-2,3,-2,1
50903,-1317,-7641,-2129,-2,2,-2,1
50908,-1322,-7643,-2145,-1,0,-2,1
50913,-1334,-7643,-2162,-1,0,-2,1
50918,-1346,-7641,-2183,-2,-1,-2,1
50923,-1360,-7641,-2201,-2,0,-2,1
50928,-1372,-7641,-2209,-2,0,-2,1
50933,-1379,-7640,-2198,-2,0,-2,1
50938,-1379,-7641,-2179,-2,0,-2,1
50943,-1374,-7644,-2154,-2,1,-2,1
50948,-1361,-7641,-2131,-2,1,-2,1
50953,-1348,-7642,-2115,-2,1,-2,1
50958,-1334,-7642,-2106,-1,1,-2,1
50963,-1322,-7641,-2111,-1,1,-2,1
50968,-1314,-7642,-2129,-1,0,-2,1
50973,-1309,-7644,-2153,-2,0,-2,1
50978,-1303,-7643,-2173,-2,0,-2,1
50983,-1299,-7644,-2183,-2,-1,-2,1
50988,-1298,-7645,-2181,-2,-1,-2,1
50993,-1298,-7647,-2170,-2,-1,-2,1
50998,-1302,-7648,-2149,-2,0,-2,1
51002,-1304,-7650,-2130,-2,0,-2,1
51007,-1309,-7652,-2109,-2,0,-2,1
51012,-1317,-7653,-2097,-2,-1,-2,1
51018,-1323,-7652,-2093,-2,0,-2,1
51022,-1332,-7653,-2098,-2,0,-2,1
51027,-1343,-7652,-2115,-2,0,-2,1
51032,-1354,-7650,-2135,-2,1,-2,1
51037,-1363,-7646,-2150,-2,1,-2,1
51042,-1365,-7643,-2157,-2,0,-2,1
51048,-1372,-7643,-2153,-2,0,-2,1
51052,-1377,-7646,-2145,-2,0,-2,1
51057,-1378,-7643,-2132,-2,1,-2,1
51062,-1376,-7646,-2116,-2,1,-2,1
51067,-1372,-7650,-2099,-2,2,-2,1
51072,-1362,-7650,-2094,-2,2,-2,1
51077,-1359,-7648,-2093,-2,3,-2,1
51082,-1357,-7649,-2096,-2,4,-2,1
51087,-1354,-7648,-2110,-2,4,-2,1
51092,-1358,-7644,-2132,-2,5,-2,1
51097,-1353,-7640,-2147,-2,6,-2,1
51102,-1347,-7642,-2154,-2,6,-2,1
51107,-1335,-7641,-2165,-2,6,-2,1
51112,-1326,-7641,-2157,-2,6,-2,1
51117,-1323,-7641,-2137,-2,5,-2,1
51122,-1335,-7641,-2135,-2,4,-2,1
51127,-1353,-7644,-2130,-2,4,-2,1
51132,-1369,-7640,-2122,-2,6,-2,1
51137,-1367,-7633,-2134,-2,6,-2,1
51142,-1346,-7637,-2151,-2,3,-2,1
51147,-1339,-7638,-2177,-2,0,-2,1
51152,-1359,-7636,-2200,-2,-1,-2,1
51157,-1355,-7635,-2218,-2,2,-2,1
51162,-1348,-7633,-2216,-2,3,-3,1
51167,-1354,-7634,-2208,-2,1,-3,1
51172,-1365,-7637,-2208,-2,-1,-3,1
51177,-1384,-7641,-2211,-2,-1,-3,1
51182,-1386,-7641,-2208,-2,0,-3,1
51187,-1381,-7641,-2217,-2,-1,-3,1
51192,-1369,-7639,-2217,-2,-1,-3,1
51197,-1341,-7640,-2212,-2,-1,-2,1
51202,-1309,-7643,-2204,-2,-1,-3,1
51207,-1277,-7645,-2200,-2,-1,-3,1
51212,-1254,-7644,-2195,-2,0,-3,1
51217,-1247,-7641,-2191,-2,-1,-3,1
51222,-1250,-7639,-2193,-2,-1,-3,1
51227,-1262,-7636,-2195,-2,-1,-3,1
51232,-1279,-7637,-2201,-2,-1,-2,1
51237,-1295,-7638,-2209,-2,-1,-3,1
51242,-1309,-7638,-2217,-2,0,-2,1
51247,-1314,-7637,-2217,-2,1,-2,1
51252,-1317,-7636,-2213,-2,0,-2,1
51257,-1318,-7636,-2207,-2,0,-2,1
51262,-1316,-7638,-2205,-2,1,-2,1
51267,-1312,-7638,-2199,-2,1,-2,1
51272,-1314,-7638,-2205,-2,1,-2,1
51277,-1321,-7639,-2210,-2,0,-3,1
51282,-1340,-7640,-2216,-2,0,-3,1
51287,-1358,-7638,-2217,-2,1,-2,1
51292,-1363,-7635,-2216,-2,2,-2,1
51297,-1364,-7635,-2208,-2,2,-2,1
51302,-1348,-7637,-2198,-2,2,-2,1
51307,-1315,-7638,-2192,-2,2,-2,1
51312,-1276,-7637,-2182,-2,2,-2,1
51317,-1237,-7636,-2176,-2,1,-2,1
51322,-1212,-7636,-2177,-2,0,-3,1
51327,-1210,-7634,-2189,-1,-1,-3,1
51332,-1220,-7634,-2207,-1,-2,-3,1
51337,-1239,-7632,-2224,-1,-2,-3,1
51342,-1263,-7631,-2240,-2,-3,-3,1
51347,-1291,-7631,-2250,-2,-3,-2,1
51352,-1307,-7631,-2252,-2,-2,-2,1
51357,-1306,-7632,-2239,-2,-1,-2,1
51362,-1296,-7634,-2225,-2,-1,-2,1
51367,-1282,-7636,-2208,-2,-2,-2,1
51372,-1268,-7639,-2185,-2,-2,-2,1
51377,-1260,-7638,-2166,-2,-2,-2,1
51382,-1257,-7637,-2157,-1,-1,-2,1
51387,-1263,-7638,-2156,-1,0,-2,1
51392,-1279,-7639,-2161,-1,1,-2,1
51397,-1273,-7641,-2171,-2,2,-2,1
51402,-1267,-7643,-2174,-2,1,-2,1
51407,-1270,-7642,-2174,-2,0,-2,1
51412,-1256,-7643,-2170,-2,1,-2,1
51417,-1229,-7643,-2162,-2,2,-2,1
51422,-1209,-7645,-2151,-2,1,-2,1
51427,-1199,-7643,-2138,-2,0,-2,1
51432,-1207,-7640,-2137,-2,-1,-2,1
51437,-1226,-7639,-2149,-2,-1,-2,1
51442,-1248,-7637,-2160,-2,-2,-2,1
51447,-1279,-7637,-2172,-2,-2,-2,1
51452,-1307,-7638,-2186,-2,-2,-2,1
51457,-1327,-7639,-2200,-2,-2,-2,1
51462,-1337,-7637,-2202,-2,-1,-2,1
51467,-1337,-7633,-2188,-2,0,-2,1
51472,-1328,-7634,-2172,-2,0,-2,1
51477,-1318,-7633,-2155,-2,0,-2,1
51482,-1311,-7634,-2146,-2,0,-2,1
51487,-1314,-7638,-2138,-2,-1,-2,1
51492,-1322,-7642,-2139,-2,0,-2,1
51497,-1332,-7643,-2145,-2,0,-2,1
51502,-1337,-7643,-2155,-2,1,-2,1
51507,-1337,-7642,-2162,-2,1,-2,1
51512,-1325,-7641,-2163,-2,1,-2,1
51517,-1308,-7641,-2168,-2,2,-2,1
51522,-1286,-7642,-2165,-2,1,-2,1
51527,-1270,-7643,-2164,-2,0,-2,1
51532,-1260,-7642,-2162,-2,0,-2,1
51537,-1256,-7643,-2163,-2,-1,-2,1
51542,-1260,-7643,-2165,-2,0,-2,1
51547,-1267,-7641,-2168,-2,0,-2,1
51552,-1274,-7640,-2168,-2,0,-2,1
51557,-1284,-7642,-2172,-2,0,-2,1
51562,-1299,-7640,-2180,-2,0,-2,1
51567,-1308,-7637,-2188,-2,0,-2,1
51572,-1319,-7634,-2188,-2,-1,-2,1
51577,-1332,-7632,-2187,-2,-1,-2,1
51582,-1350,-7632,-2187,-2,-2,-2,1
51587,-1367,-7632,-2185,-2,-2,-2,1
51592,-1382,-7631,-2177,-2,-2,-2,1
51597,-1393,-7630,-2166,-2,-1,-2,1
51602,-1397,-7632,-2158,-2,0,-2,1
51607,-1398,-7636,-2155,-2,1,-2,1
51612,-1392,-7641,-2154,-2,1,-2,1
51617,-1387,-7646,-2156,-2,1,-2,1
51622,-1387,-7647,-2166,-2,0,-2,1
51627,-1389,-7644,-2179,-2,0,-2,1
51632,-1392,-7642,-2191,-2,1,-2,1
51637,-1397,-7644,-2205,-2,1,-2,1
51642,-1403,-7641,-2222,-2,1,-2,1
51647,-1410,-7642,-2230,-2,0,-2,1
51652,-1418,-7644,-2229,-2,0,-2,1
51657,-1424,-7641,-2224,-2,0,-2,1
51662,-1428,-7634,-2214,-2,1,-2,1
51667,-1424,-7631,-2194,-2,1,-2,1
51672,-1414,-7631,-2193,-2,0,-2,1
51677,-1402,-7635,-2185,-2,-1,-2,1
51682,-1392,-7637,-2186,-2,-1,-2,1
51687,-1377,-7640,-2189,-2,0,-2,1
51692,-1359,-7644,-2193,-2,0,-3,1
51697,-1342,-7643,-2199,-2,-1,-3,1
51702,-1331,-7642,-2204,-2,-1,-2,1
51707,-1321,-7639,-2205,-2,-1,-2,1
51712,-1310,-7637,-2201,-2,-1,-2,1
51717,-1293,-7633,-2191,-2,-1,-2,1
51722,-1288,-7634,-2175,-2,-1,-2,1
51727,-1283,-7635,-2172,-2,0,-2,1
51732,-1273,-7636,-2160,-2,1,-2,1
51737,-1273,-7636,-2156,-1,1,-2,1
51742,-1274,-7635,-2163,-1,0,-2,1
51747,-1282,-7633,-2170,-2,0,-2,1
51752,-1289,-7633,-2177,-2,1,-2,1
51757,-1293,-7633,-2185,-2,0,-2,1
51762,-1304,-7632,-2189,-2,1,-2,1
51767,-1315,-7634,-2188,-2,1,-2,1
51772,-1325,-7633,-2186,-2,0,-2,1
51777,-1335,-7634,-2174,-2,1,-2,1
51782,-1338,-7631,-2172,-2,1,-2,1
51787,-1331,-7631,-2161,-2,1,-2,1
51792,-1318,-7632,-2160,-2,1,-2,1
51797,-1312,-7632,-2168,-2,0,-2,1
51801,-1302,-7636,-2173,-2,-1,-2,1
51807,-1298,-7636,-2180,-2,-1,-2,1
51812,-1295,-7638,-2191,-2,-1,-2,1
51817,-1287,-7640,-2196,-2,-1,-2,1
51822,-1280,-7638,-2191,-2,-1,-2,1
51826,-1269,-7638,-2184,-2,-1,-2,1
51831,-1257,-7641,-2170,-2,-1,-2,1
51836,-1243,-7641,-2154,-2,0,-2,1
51841,-1232,-7641,-2140,-2,0,-2,1
51846,-1226,-7642,-2136,-2,0,-2,1
51852,-1216,-7644,-2134,-2,-1,-2,1
51856,-1223,-7641,-2145,-2,-1,-2,1
51861,-1234,-7641,-2164,-2,0,-2,1
51866,-1243,-7643,-2178,-2,-1,-2,1
51871,-1257,-7645,-2197,-2,-2,-2,1
51876,-1281,-7645,-2206,-2,-2,-2,1
51881,-1303,-7643,-2201,-2,-2,-2,1
51886,-1321,-7640,-2190,-2,-2,-2,1
51891,-1334,-7638,-2177,-2,-3,-2,1
51896,-1350,-7637,-2161,-2,-3,-2,1
51901,-1366,-7640,-2150,-2,-3,-2,1
51906,-1381,-7643,-2146,-2,-2,-2,1
51911,-1391,-7649,-2144,-2,-1,-2,1
51916,-1398,-7651,-2148,-2,0,-2,1
51921,-1399,-7649,-2156,-2,1,-2,1
51926,-1396,-7644,-2161,-2,1,-2,1
51931,-1392,-7645,-2165,-2,1,-2,1
51936,-1380,-7643,-2163,-2,1,-2,1
51941,-1361,-7641,-2166,-2,1,-2,1
51946,-1351,-7640,-2172,-2,0,-2,1
51951,-1347,-7642,-2180,-2,1,-2,1
51956,-1338,-7644,-2178,-2,1,-2,1
51961,-1332,-7645,-2180,-2,1,-2,1
51966,-1329,-7645,-2181,-2,0,-2,1
51971,-1330,-7641,-2178,-2,0,-2,1
51976,-1326,-7640,-2174,-2,0,-2,1
51981,-1322,-7637,-2170,-2,0,-2,1
51986,-1325,-7632,-2165,-2,0,-2,1
51991,-1337,-7632,-2171,-2,0,-2,1
51996,-1353,-7637,-2175,-2,0,-2,1
52001,-1372,-7637,-2180,-2,0,-2,1
52006,-1394,-7641,-2175,-2,-1,-2,1
52011,-1418,-7641,-2174,-2,0,-2,1
52016,-1431,-7644,-2171,-2,1,-2,1
52021,-1427,-7643,-2170,-2,1,-2,1
52026,-1426,-7643,-2169,-2,0,-2,1
52031,-1428,-7643,-2171,-2,0,-2,1
52036,-1420,-7642,-2168,-2,1,-2,1
52041,-1405,-7643,-2163,-2,1,-2,1
52046,-1390,-7645,-2166,-2,1,-2,1
52051,-1383,-7643,-2166,-2,0,-2,1
52056,-1377,-7642,-2161,-2,0,-2,1
52061,-1367,-7640,-2158,-2,0,-2,1
52066,-1359,-7635,-2163,-2,0,-2,1
52071,-1346,-7635,-2165,-2,0,-2,1
52076,-1330,-7635,-2171,-2,0,-2,1
52081,-1311,-7636,-2175,-2,0,-2,1
52086,-1292,-7636,-2180,-2,0,-2,1
52091,-1272,-7637,-2182,-2,0,-2,1
52096,-1254,-7634,-2179,-2,-1,-2,1
52101,-1246,-7634,-2178,-2,-1,-2,1
52106,-1244,-7636,-2176,-2,-1,-2,1
52111,-1246,-7638,-2181,-2,-1,-2,1
52116,-1253,-7639,-2187,-2,-1,-2,1
52121,-1264,-7638,-2193,-2,-2,-2,1
52126,-1279,-7640,-2200,-2,-1,-2,1
52131,-1295,-7642,-2202,-2,-1,-2,1
52136,-1308,-7641,-2202,-2,-1,-2,1
52141,-1327,-7642,-2198,-2,-1,-2,1
52146,-1343,-7640,-2190,-2,0,-2,1
52151,-1351,-7641,-2177,-2,1,-2,1
52156,-1361,-7639,-2171,-2,1,-2,1
52161,-1369,-7640,-2165,-2,1,-2,1
52166,-1372,-7638,-2163,-2,1,-2,1
52171,-1373,-7637,-2161,-2,1,-2,1
52176,-1373,-7638,-2165,-2,1,-2,1
52181,-1383,-7637,-2168,-2,0,-2,1
52186,-1382,-7636,-2168,-2,0,-2,1
52191,-1383,-7639,-2166,-2,1,-2,1
52196,-1383,-7638,-2166,-2,1,-2,1
52201,-1373,-7637,-2151,-2,1,-2,1
52206,-1362,-7640,-2131,-2,0,-2,1
52211,-1352,-7642,-2122,-2,0,-2,1
52216,-1342,-7643,-2111,-2,0,-2,1
52221,-1319,-7644,-2100,-2,1,-2,1
52226,-1294,-7644,-2099,-2,0,-2,1
52231,-1280,-7644,-2106,-2,-1,-2,1
52236,-1281,-7648,-2120,-2,-1,-2,1
52241,-1290,-7649,-2128,-2,0,-2,1
52246,-1294,-7652,-2129,-2,1,-2,1
52251,-1301,-7652,-2128,-2,0,-2,1
52256,-1316,-7651,-2122,-2,-1,-2,1
52261,-1333,-7648,-2114,-2,-1,-2,1
52266,-1345,-7647,-2113,-2,0,-2,1
52271,-1356,-7645,-2110,-2,0,-2,1
52276,-1370,-7645,-2116,-2,0,-2,1
52281,-1386,-7642,-2119,-2,0,-2,1
52286,-1395,-7640,-2125,-2,0,-2,1
52291,-1404,-7640,-2136,-2,0,-2,1
52296,-1410,-7640,-2143,-2,0,-2,1
52301,-1408,-7641,-2148,-2,0,-2,1
52306,-1408,-7639,-2150,-2,0,-2,1
52311,-1406,-7639,-2140,-2,1,-2,1
52316,-1404,-7642,-2124,-2,1,-2,1
52321,-1399,-7642,-2107,-2,1,-2,1
52326,-1395,-7641,-2095,-2,2,-2,1
52331,-1389,-7639,-2089,-2,1,-2,1
52336,-1380,-7641,-2088,-2,1,-2,1
52341,-1384,-7640,-2103,-2,1,-2,1
52346,-1382,-7637,-2121,-2,2,-2,1
52351,-1372,-7638,-2135,-2,2,-2,1
52356,-1366,-7637,-2149,-2,1,-2,1
52361,-1367,-7640,-2162,-2,0,-2,1
52366,-1372,-7642,-2159,-2,0,-2,1
52371,-1374,-7641,-2155,-2,0,-2,1
52376,-1376,-7642,-2144,-2,0,-2,1
52381,-1380,-7640,-2128,-2,0,-2,1
52386,-1388,-7636,-2120,-2,0,-2,1
52391,-1396,-7637,-2114,-2,1,-2,1
52396,-1400,-7636,-2112,-2,1,-2,1
52401,-1397,-7634,-2114,-2,2,-2,1
52406,-1383,-7634,-2123,-2,2,-2,1
52411,-1361,-7633,-2139,-2,2,-2,1
52416,-1336,-7632,-2156,-2,1,-2,1
52421,-1316,-7632,-2169,-2,1,-2,1
52426,-1305,-7634,-2180,-2,0,-3,1
52431,-1302,-7633,-2184,-2,0,-3,1
52436,-1311,-7632,-2189,-2,0,-3,1
52441,-1323,-7633,-2187,-2,0,-3,1
52446,-1336,-7634,-2186,-2,0,-2,1
52451,-1344,-7634,-2187,-2,0,-2,1
52456,-1348,-7634,-2188,-2,0,-2,1
52461,-1350,-7637,-2192,-2,0,-2,1
52466,-1350,-7636,-2205,-2,0,-2,1
52471,-1350,-7638,-2223,-2,0,-2,1
52476,-1356,-7640,-2229,-2,0,-3,1
52481,-1374,-7638,-2234,-2,0,-3,1
52486,-1390,-7637,-2233,-2,1,-3,1
52491,-1405,-7635,-2230,-2,2,-3,1
52496,-1403,-7638,-2217,-2,2,-2,1
52501,-1392,-7634,-2209,-2,3,-2,1
52506,-1384,-7632,-2201,-2,3,-2,1
52511,-1350,-7633,-2195,-2,4,-2,1
52516,-1317,-7631,-2199,-2,5,-2,1
52521,-1283,-7634,-2201,-2,5,-2,1
52526,-1253,-7628,-2204,-2,4,-2,1
52531,-1236,-7633,-2226,-2,2,-2,1
52536,-1213,-7635,-2234,-2,-1,-2,1
52541,-1211,-7631,-2259,-2,-2,-2,1
52546,-1216,-7627,-2275,-2,-1,-2,1
52551,-1205,-7627,-2277,-2,-1,-2,1
52555,-1203,-7627,-2271,-2,-2,-2,1
52561,-1201,-7628,-2264,-2,-3,-2,1
52566,-1202,-7629,-2251,-2,-2,-2,1
52570,-1203,-7628,-2237,-2,-2,-2,1
52575,-1210,-7631,-2225,-2,-2,-2,1
52580,-1226,-7631,-2220,-2,-2,-2,1
52586,-1254,-7630,-2224,-2,-2,-2,1
52591,-1284,-7623,-2234,-2,-2,-2,1
52596,-1324,-7622,-2243,-2,-2,-2,1
52600,-1366,-7623,-2250,-2,-1,-2,1
52606,-1403,-7621,-2253,-2,0,-2,1
52610,-1430,-7621,-2249,-2,0,-2,1
52615,-1438,-7620,-2237,-2,1,-2,1
52621,-1426,-7624,-2220,-2,2,-2,1
52625,-1398,-7626,-2205,-2,2,-2,1
52630,-1363,-7627,-2189,-2,3,-2,1
52635,-1326,-7630,-2183,-2,3,-2,1
52640,-1292,-7630,-2181,-1,2,-2,1
52645,-1263,-7628,-2191,-1,2,-2,1
52650,-1246,-7631,-2204,-2,1,-2,1
52655,-1236,-7630,-2218,-2,1,-2,1
52660,-1231,-7632,-2223,-2,1,-2,1
52665,-1228,-7632,-2221,-2,0,-2,1
52670,-1226,-7635,-2211,-2,-1,-2,1
52675,-1225,-7636,-2197,-2,-1,-2,1
52680,-1225,-7636,-2176,-2,-1,-2,1
52685,-1231,-7637,-2157,-2,-2,-2,1
52690,-1247,-7635,-2141,-2,-3,-2,1
52695,-1274,-7635,-2134,-2,-3,-2,1
52700,-1306,-7639,-2141,-1,-3,-2,1
52705,-1341,-7638,-2160,-1,-3,-2,1
52710,-1376,-7635,-2180,-2,-2,-2,1
52715,-1404,-7636,-2191,-2,-1,-2,1
52720,-1425,-7636,-2189,-2,-1,-2,1
52725,-1438,-7634,-2182,-2,0,-2,1
52730,-1444,-7632,-2169,-2,0,-2,1
52735,-1441,-7630,-2155,-2,1,-2,1
52740,-1434,-7631,-2146,-2,1,-2,1
52745,-1427,-7633,-2144,-2,1,-2,1
52750,-1419,-7632,-2148,-2,1,-2,1
52755,-1403,-7633,-2163,-2,1,-2,1
52760,-1391,-7636,-2186,-2,1,-2,1
52765,-1382,-7639,-2206,-2,1,-2,1
52770,-1373,-7639,-2220,-2,1,-2,1
52775,-1365,-7636,-2219,-2,1,-2,1
52780,-1361,-7637,-2204,-2,1,-2,1
52785,-1358,-7636,-2186,-2,1,-2,1
52790,-1359,-7635,-2164,-2,1,-2,1
52795,-1363,-7631,-2143,-2,1,-2,1
52800,-1370,-7630,-2133,-2,1,-2,1
52805,-1383,-7630,-2129,-2,1,-2,1
52810,-1395,-7632,-2133,-2,0,-2,1
52815,-1408,-7630,-2151,-2,1,-2,1
52820,-1418,-7627,-2167,-2,1,-2,1
52825,-1423,-7627,-2174,-2,1,-2,1
52830,-1427,-7628,-2177,-2,0,-2,1
52835,-1422,-7628,-2173,-2,0,-2,1
52840,-1418,-7628,-2164,-2,0,-2,1
52845,-1408,-7628,-2153,-2,-1,-2,1
52850,-1400,-7630,-2150,-2,-1,-2,1
52855,-1390,-7629,-2150,-2,-1,-2,1
52860,-1380,-7628,-2148,-2,0,-2,1
52865,-1370,-7628,-2156,-2,0,-2,1
52870,-1367,-7628,-2170,-2,0,-3,1
52875,-1355,-7629,-2181,-2,0,-3,1
52880,-1348,-7633,-2189,-2,-1,-2,1
52885,-1353,-7628,-2196,-2,0,-2,1
52890,-1350,-7627,-2187,-2,0,-3,1
52895,-1353,-7626,-2185,-2,0,-3,1
52900,-1368,-7624,-2179,-2,-1,-3,1
52905,-1390,-7625,-2169,-2,0,-3,1
52910,-1404,-7626,-2164,-2,0,-3,1
52915,-1412,-7626,-2164,-2,1,-2,1
52920,-1412,-7628,-2163,-2,1,-2,1
52925,-1407,-7627,-2168,-2,1,-3,1
52930,-1399,-7626,-2180,-2,1,-3,1
52935,-1393,-7629,-2190,-2,1,-3,1
52940,-1389,-7629,-2201,-2,0,-3,1
52945,-1392,-7630,-2215,-2,0,-3,1
52950,-1396,-7631,-2228,-2,1,-3,1
52955,-1401,-7629,-2235,-2,1,-3,1
52960,-1405,-7627,-2232,-2,0,-3,1
52965,-1411,-7626,-2222,-2,0,-3,1
52970,-1407,-7625,-2206,-2,1,-3,1
52975,-1389,-7627,-2188,-2,1,-3,1
52980,-1376,-7627,-2175,-2,2,-3,1
52985,-1370,-7629,-2175,-2,2,-3,1
52990,-1361,-7627,-2186,-2,2,-3,1
52995,-1355,-7630,-2193,-2,2,-3,1
53000,-1347,-7632,-2207,-2,2,-3,1
53005,-1339,-7633,-2218,-2,2,-3,1
53010,-1329,-7633,-2220,-2,2,-3,1
53015,-1320,-7631,-2213,-2,2,-3,1
53020,-1313,-7630,-2205,-2,1,-3,1
53025,-1309,-7629,-2197,-2,1,-3,1
53030,-1311,-7627,-2189,-2,1,-3,1
53035,-1313,-7631,-2183,-2,1,-3,1
53040,-1317,-7634,-2183,-2,1,-3,1
53045,-1319,-7633,-2179,-2,1,-3,1
53050,-1317,-7635,-2180,-2,1,-3,1
53055,-1311,-7636,-2179,-2,1,-3,1
53060,-1302,-7632,-2183,-2,1,-3,1
53065,-1297,-7630,-2186,-2,1,-3,1
53070,-1296,-7630,-2182,-2,1,-3,1
53075,-1298,-7630,-2173,-2,1,-3,1
53080,-1305,-7632,-2167,-2,1,-3,1
53085,-1309,-7632,-2158,-2,2,-3,1
53090,-1310,-7633,-2150,-2,2,-2,1
53095,-1303,-7632,-2148,-2,2,-2,1
53100,-1290,-7637,-2153,-2,2,-2,1
53105,-1277,-7638,-2160,-2,2,-2,1
53110,-1267,-7639,-2172,-2,2,-2,1
53115,-1258,-7641,-2181,-2,2,-2,1
53120,-1247,-7640,-2186,-2,2,-2,1
53125,-1242,-7637,-2181,-2,1,-2,1
53130,-1240,-7638,-2173,-2,1,-2,1
53135,-1239,-7637,-2166,-2,1,-2,1
53140,-1236,-7637,-2156,-2,0,-2,1
53145,-1238,-7636,-2146,-2,-1,-2,1
53150,-1246,-7634,-2145,-2,-1,-2,1
53155,-1254,-7632,-2145,-2,-1,-2,1
53160,-1266,-7628,-2150,-2,-1,-2,1
53165,-1275,-7625,-2157,-2,-1,-2,1
53170,-1279,-7624,-2172,-2,-1,-2,1
53175,-1285,-7621,-2178,-2,-1,-2,1
53180,-1294,-7619,-2177,-2,-1,-2,1
53185,-1298,-7621,-2171,-2,0,-2,1
53190,-1303,-7623,-2162,-2,0,-2,1
53195,-1302,-7624,-2148,-2,1,-2,1
53200,-1301,-7627,-2140,-2,1,-2,1
53205,-1297,-7625,-2142,-2,1,-2,1
53210,-1297,-7621,-2151,-2,1,-2,1
53215,-1301,-7622,-2159,-2,0,-2,1
53220,-1299,-7623,-2172,-2,0,-2,1
53225,-1301,-7623,-2183,-2,1,-2,1
53230,-1300,-7624,-2190,-2,1,-2,1
53235,-1297,-7628,-2186,-2,1,-2,1
53240,-1291,-7629,-2184,-2,1,-2,1
53245,-1288,-7631,-2178,-2,1,-2,1
53250,-1286,-7633,-2174,-2,1,-2,1
53255,-1285,-7635,-2175,-2,0,-2,1
53260,-1290,-7636,-2185,-2,-1,-2,1
53265,-1297,-7636,-2197,-2,-1,-2,1
53270,-1303,-7633,-2212,-2,-1,-2,1
53275,-1308,-7630,-2221,-2,-1,-2,1
53280,-1312,-7627,-2221,-2,-2,-2,1
53285,-1319,-7623,-2222,-2,-2,-2,1
53290,-1324,-7622,-2224,-2,-2,-2,1
53295,-1330,-7622,-2219,-2,-2,-2,1
53300,-1336,-7621,-2212,-2,-2,-2,1
53305,-1346,-7622,-2207,-2,-2,-2,1
53309,-1355,-7623,-2202,-2,-2,-2,1
53315,-1370,-7622,-2198,-2,-1,-2,1
53320,-1386,-7622,-2197,-2,-1,-2,1
53325,-1394,-7623,-2202,-2,0,-2,1
53330,-1396,-7624,-2207,-2,1,-2,1
53335,-1393,-7626,-2212,-2,1,-2,1
53340,-1389,-7625,-2212,-2,1,-2,1
53344,-1387,-7621,-2212,-2,2,-2,1
53350,-1386,-7620,-2214,-2,2,-3,1
53354,-1388,-7619,-2219,-2,2,-3,1
53359,-1393,-7620,-2222,-2,2,-3,1
53364,-1397,-7621,-2222,-2,2,-3,1
53370,-1396,-7622,-2221,-2,2,-3,1
53374,-1388,-7624,-2217,-2,2,-3,1
53379,-1375,-7623,-2217,-2,3,-3,1
53384,-1360,-7622,-2225,-2,2,-3,1
53389,-1344,-7622,-2233,-2,2,-3,1
53394,-1329,-7622,-2242,-2,1,-3,1
53399,-1315,-7624,-2245,-2,1,-3,1
53404,-1308,-7625,-2243,-2,1,-3,1
53409,-1305,-7624,-2238,-2,1,-3,1
53414,-1298,-7623,-2225,-2,1,-3,1
53419,-1291,-7623,-2211,-2,1,-3,1
53424,-1281,-7622,-2199,-2,1,-2,1
53429,-1270,-7624,-2192,-2,1,-2,1
53434,-1261,-7625,-2190,-2,1,-2,1
53439,-1252,-7624,-2189,-2,1,-3,1
53444,-1254,-7625,-2200,-2,1,-3,1
53449,-1263,-7625,-2217,-2,0,-3,1
53454,-1273,-7626,-2231,-2,0,-3,1
53459,-1280,-7623,-2248,-2,0,-2,1
53464,-1281,-7621,-2257,-2,1,-2,1
53469,-1282,-7618,-2258,-2,0,-2,1
53474,-1285,-7618,-2253,-2,0,-2,1
53479,-1290,-7617,-2249,-2,0,-3,1
53484,-1290,-7622,-2241,-2,0,-2,1
53489,-1294,-7624,-2244,-2,0,-2,1
53494,-1295,-7623,-2243,-2,0,-3,1
53499,-1303,-7624,-2251,-2,0,-3,1
53504,-1310,-7623,-2267,-2,0,-3,1
53509,-1318,-7620,-2281,-2,0,-3,1
53514,-1326,-7618,-2292,-2,1,-3,1
53519,-1333,-7615,-2297,-2,1,-3,1
53524,-1343,-7610,-2302,-2,1,-3,1
53529,-1347,-7609,-2299,-2,1,-3,1
53534,-1345,-7608,-2293,-2,1,-3,1
53539,-1341,-7608,-2287,-2,1,-3,1
53544,-1332,-7606,-2282,-2,1,-3,1
53549,-1318,-7605,-2277,-2,1,-3,1
53554,-1305,-7604,-2275,-2,1,-3,1
53559,-1295,-7603,-2278,-2,0,-3,1
53564,-1286,-7605,-2285,-2,1,-3,1
53569,-1277,-7606,-2288,-2,1,-3,1
53574,-1275,-7609,-2291,-2,1,-3,1
53579,-1282,-7610,-2285,-2,1,-3,1
53584,-1292,-7613,-2278,-2,1,-3,1
53589,-1301,-7614,-2269,-2,2,-3,1
53594,-1309,-7614,-2264,-2,2,-2,1
53599,-1311,-7613,-2259,-2,2,-2,1
53604,-1312,-7615,-2259,-2,2,-3,1
53609,-1315,-7616,-2266,-2,2,-3,1
53614,-1317,-7618,-2275,-2,2,-2,1
53619,-1311,-7618,-2282,-2,2,-2,1
53624,-1303,-7616,-2286,-2,2,-3,1
53629,-1292,-7612,-2287,-2,1,-2,1
53634,-1279,-7610,-2280,-2,1,-3,1
53639,-1268,-7611,-2269,-2,1,-3,1
53644,-1257,-7613,-2261,-2,1,-3,1
53649,-1247,-7612,-2247,-2,1,-2,1
53654,-1239,-7616,-2239,-2,1,-2,1
53659,-1232,-7616,-2233,-2,1,-3,1
53664,-1231,-7617,-2235,-2,0,-2,1
53669,-1231,-7618,-2247,-2,0,-2,1
53674,-1231,-7617,-2261,-2,0,-2,1
53679,-1229,-7617,-2271,-2,1,-2,1
53684,-1223,-7615,-2274,-2,1,-2,1
53689,-1218,-7617,-2274,-2,1,-2,1
53694,-1209,-7619,-2265,-2,1,-2,1
53699,-1206,-7620,-2262,-2,0,-2,1
53704,-1212,-7619,-2253,-2,0,-2,1
53709,-1219,-7615,-2246,-2,0,-2,1
53714,-1227,-7614,-2238,-2,0,-2,1
53719,-1231,-7616,-2238,-2,1,-2,1
53724,-1234,-7616,-2242,-2,1,-2,1
53729,-1235,-7617,-2250,-2,0,-2,1
53734,-1234,-7620,-2254,-2,0,-2,1
53739,-1241,-7621,-2262,-2,0,-2,1
53744,-1248,-7619,-2270,-2,0,-2,1
53749,-1252,-7620,-2274,-2,0,-2,1
53754,-1257,-7620,-2274,-2,0,-2,1
53759,-1262,-7619,-2273,-2,0,-2,1
53764,-1269,-7618,-2264,-2,0,-2,1
53769,-1275,-7618,-2258,-2,0,-2,1
53774,-1276,-7620,-2251,-2,1,-2,1
53779,-1272,-7619,-2247,-2,1,-2,1
53784,-1271,-7618,-2248,-2,1,-2,1
53789,-1266,-7620,-2252,-2,1,-2,1
53794,-1267,-7621,-2254,-2,2,-2,1
53799,-1264,-7622,-2255,-2,2,-2,1
53804,-1261,-7621,-2251,-2,2,-2,1
53809,-1258,-7619,-2250,-2,2,-2,1
53814,-1255,-7619,-2245,-2,2,-2,1
53819,-1252,-7618,-2239,-2,2,-2,1
53824,-1248,-7619,-2239,-2,2,-2,1
53829,-1241,-7617,-2239,-2,2,-2,1
53834,-1240,-7619,-2242,-2,1,-2,1
53839,-1234,-7617,-2245,-2,0,-2,1
53844,-1229,-7618,-2250,-2,0,-2,1
53849,-1231,-7619,-2261,-2,1,-2,1
53854,-1221,-7619,-2253,-2,1,-2,1
53859,-1217,-7619,-2237,-2,1,-2,1
53864,-1220,-7616,-2228,-2,1,-2,1
53869,-1226,-7615,-2229,-2,0,-2,1
53874,-1226,-7614,-2227,-2,0,-2,1
53879,-1238,-7617,-2222,-2,1,-2,1
53884,-1248,-7615,-2226,-2,1,-2,1
53889,-1248,-7615,-2226,-2,2,-2,1
53894,-1243,-7611,-2231,-2,2,-2,1
53899,-1233,-7611,-2239,-2,2,-2,1
53904,-1220,-7615,-2243,-2,1,-2,1
53909,-1210,-7619,-2241,-2,1,-2,1
53914,-1201,-7619,-2239,-2,0,-2,1
53919,-1198,-7621,-2231,-2,0,-2,1
53924,-1201,-7623,-2224,-2,0,-2,1
53929,-1211,-7627,-2220,-2,-1,-2,1
53934,-1226,-7632,-2216,-2,-1,-2,1
53939,-1250,-7627,-2211,-2,-1,-2,1
53944,-1262,-7624,-2210,-2,0,-2,1
53949,-1272,-7624,-2201,-2,0,-2,1
53954,-1285,-7624,-2201,-2,0,-2,1
53959,-1284,-7625,-2204,-2,1,-2,1
53964,-1277,-7626,-2207,-2,2,-2,1
53969,-1271,-7625,-2216,-2,1,-2,1
53974,-1270,-7623,-2225,-2,1,-2,1
53979,-1275,-7626,-2237,-2,1,-2,1
53984,-1285,-7627,-2241,-2,2,-2,1
53989,-1298,-7623,-2239,-2,3,-2,1
53994,-1299,-7624,-2231,-2,3,-2,1
53999,-1301,-7626,-2222,-2,3,-2,1
54004,-1308,-7627,-2222,-2,3,-2,1
54009,-1303,-7622,-2217,-2,2,-2,1
54014,-1303,-7620,-2219,-2,2,-2,1
54019,-1300,-7619,-2223,-2,3,-2,1
54024,-1291,-7618,-2223,-2,3,-2,1
54029,-1287,-7617,-2215,-2,4,-2,1
54034,-1289,-7620,-2217,-2,4,-2,1
54039,-1286,-7615,-2212,-2,3,-2,1
54044,-1284,-7612,-2200,-2,3,-2,1
54049,-1288,-7614,-2189,-2,3,-2,1
54054,-1281,-7609,-2175,-2,5,-2,1
54059,-1278,-7610,-2157,-2,8,-1,1
54064,-1264,-7611,-2148,-2,9,-1,1
54068,-1250,-7614,-2148,-2,9,-1,1
54074,-1233,-7615,-2152,-2,7,-1,1
54078,-1222,-7615,-2166,-2,5,-1,1
54084,-1213,-7615,-2191,-2,5,-1,1
54088,-1194,-7613,-2207,-2,5,-1,1
54093,-1182,-7616,-2220,-2,6,-1,1
54099,-1178,-7615,-2225,-2,5,-1,1
54104,-1182,-7616,-2222,-3,4,-1,1
54109,-1196,-7617,-2214,-2,4,-1,1
54113,-1222,-7617,-2194,-2,5,-1,1
54118,-1246,-7614,-2178,-3,8,-1,1
54123,-1260,-7616,-2172,-3,12,-1,1
54128,-1276,-7615,-2165,-3,13,-1,1
54133,-1296,-7609,-2174,-3,15,-1,1
54138,-1299,-7609,-2182,-3,19,-1,1
54143,-1284,-7612,-2194,-3,22,-1,1
54148,-1256,-7611,-2200,-3,24,0,1
54153,-1214,-7606,-2199,-3,24,0,1
54158,-1186,-7605,-2215,-3,24,0,1
54163,-1158,-7613,-2231,-3,25,0,1
54168,-1127,-7613,-2241,-3,25,-1,1
54173,-1119,-7604,-2248,-3,23,-1,1
54178,-1114,-7607,-2263,-3,22,-1,1
54183,-1122,-7611,-2273,-3,21,0,1
54188,-1133,-7606,-2291,-3,21,0,1
54193,-1127,-7604,-2299,-3,21,0,1
54198,-1118,-7602,-2312,-3,20,0,1
54203,-1102,-7597,-2324,-3,20,0,1
54208,-1073,-7597,-2335,-3,22,0,1
54213,-1039,-7596,-2335,-3,22,0,1
54218,-1017,-7591,-2336,-3,23,0,1
54223,-995,-7590,-2325,-3,25,0,1
54228,-987,-7591,-2301,-3,27,0,1
54233,-980,-7591,-2290,-3,28,0,1
54238,-958,-7586,-2292,-3,26,0,1
54243,-949,-7586,-2308,-3,21,0,1
54248,-943,-7577,-2369,-3,15,0,1
54253,-925,-7577,-2418,-3,11,0,1
54258,-901,-7582,-2469,-3,10,0,1
54263,-865,-7584,-2506,-3,9,0,1
54268,-819,-7583,-2517,-3,7,0,1
54273,-801,-7584,-2509,-3,4,0,1
54278,-807,-7581,-2497,-3,1,-1,1
54283,-825,-7576,-2473,-3,0,-1,1
54288,-857,-7574,-2445,-3,0,0,1
54293,-888,-7571,-2427,-3,-1,0,1
54298,-915,-7573,-2423,-2,-1,0,1
54303,-941,-7575,-2439,-2,-1,0,1
54308,-963,-7575,-2474,-2,-1,0,1
54313,-982,-7573,-2510,-2,-1,0,1
54318,-984,-7572,-2544,-3,0,0,1
54323,-975,-7573,-2564,-3,-1,0,1
54328,-965,-7573,-2569,-3,-1,0,1
54333,-953,-7574,-2557,-3,0,0,1
54338,-951,-7573,-2528,-3,0,0,1
54343,-969,-7570,-2504,-2,-1,0,1
54348,-1002,-7570,-2482,-2,-1,0,1
54353,-1034,-7567,-2466,-2,1,0,1
54358,-1059,-7569,-2460,-2,2,0,1
54363,-1074,-7568,-2473,-2,3,0,1
54368,-1077,-7569,-2491,-2,3,0,1
54373,-1087,-7568,-2525,-2,4,0,1
54378,-1105,-7566,-2560,-2,5,0,1
54383,-1129,-7571,-2576,-2,6,0,1
54388,-1174,-7572,-2582,-2,8,0,1
54393,-1230,-7567,-2566,-2,11,0,1
54398,-1280,-7567,-2535,-3,15,0,1
54403,-1310,-7559,-2488,-3,16,0,1
54408,-1317,-7556,-2456,-2,17,0,1
54413,-1296,-7558,-2434,-2,17,0,1
54418,-1264,-7562,-2421,-2,15,0,1
54423,-1226,-7562,-2434,-2,12,0,1
54428,-1177,-7563,-2468,-2,10,0,1
54433,-1156,-7562,-2496,-2,9,0,1
54438,-1150,-7562,-2515,-2,10,0,1
54443,-1121,-7560,-2532,-2,11,0,1
54448,-1107,-7564,-2507,-2,9,0,1
54453,-1112,-7563,-2483,-3,7,0,1
54458,-1115,-7559,-2469,-2,8,0,1
54463,-1113,-7563,-2431,-2,10,0,1
54468,-1113,-7560,-2414,-2,10,0,1
54473,-1122,-7560,-2412,-2,10,0,1
54478,-1131,-7562,-2413,-2,11,0,1
54483,-1133,-7557,-2436,-2,11,0,1
54488,-1157,-7561,-2447,-2,12,0,1
54493,-1173,-7556,-2483,-3,14,0,1
54498,-1168,-7554,-2493,-3,17,0,1
54503,-1181,-7556,-2491,-3,20,0,1
54508,-1187,-7549,-2485,-3,21,0,1
54513,-1158,-7544,-2482,-3,19,0,1
54518,-1131,-7546,-2483,-2,13,0,1
54523,-1108,-7548,-2507,-2,5,0,1
54528,-1103,-7548,-2536,-2,2,-1,1
54533,-1083,-7549,-2559,-2,4,-1,1
54538,-1048,-7546,-2567,-2,6,-1,1
54543,-1033,-7546,-2561,-3,6,-1,1
54548,-1022,-7543,-2542,-3,5,-1,1
54553,-1015,-7543,-2521,-3,3,-1,1
54558,-1028,-7550,-2502,-3,2,-1,1
54563,-1034,-7548,-2490,-2,2,-1,1
54568,-1033,-7546,-2488,-2,2,-1,1
54573,-1033,-7544,-2489,-2,2,-1,1
54578,-1026,-7541,-2500,-2,1,-1,1
54583,-1019,-7538,-2525,-2,0,-1,1
54588,-1016,-7536,-2554,-2,-1,-1,1
54593,-1019,-7536,-2580,-2,-3,-1,1
54598,-1029,-7537,-2598,-2,-4,-1,1
54603,-1050,-7538,-2604,-2,-5,-1,1
54608,-1067,-7541,-2592,-2,-4,-1,1
54613,-1096,-7539,-2574,-3,-1,-1,1
54618,-1097,-7540,-2531,-3,1,-1,1
54623,-1085,-7538,-2498,-2,2,-1,1
54628,-1082,-7541,-2469,-2,1,-1,1
54633,-1070,-7538,-2458,-2,1,-1,1
54638,-1073,-7540,-2464,-2,2,-1,1
54643,-1081,-7538,-2490,-2,4,-1,1
54648,-1078,-7534,-2532,-2,4,-1,1
54653,-1086,-7533,-2567,-2,3,-1,1
54658,-1103,-7531,-2596,-2,3,-1,1
54663,-1124,-7527,-2613,-3,4,-1,1
54668,-1142,-7530,-2617,-3,7,-1,1
54673,-1158,-7538,-2607,-3,8,-1,1
54678,-1175,-7538,-2590,-2,7,-1,1
54683,-1179,-7536,-2573,-2,5,-1,1
54688,-1192,-7536,-2557,-2,4,-1,1
54693,-1201,-7534,-2553,-2,6,-1,1
54698,-1190,-7528,-2559,-2,9,-1,1
54703,-1184,-7528,-2567,-2,11,-1,1
54708,-1221,-7534,-2566,-2,12,-1,1
54713,-1228,-7532,-2587,-2,15,-1,1
54718,-1249,-7533,-2590,-2,17,-1,1
54723,-1293,-7532,-2593,-2,19,-1,1
54728,-1304,-7526,-2587,-3,23,-1,1
54733,-1293,-7521,-2593,-3,28,-1,1
54738,-1278,-7531,-2580,-2,28,-1,1
54743,-1255,-7520,-2578,-2,29,-1,1
54748,-1260,-7516,-2593,-3,34,-1,1
54753,-1231,-7512,-2586,-3,41,-1,1
54758,-1165,-7513,-2578,-3,45,0,1
54763,-1110,-7514,-2563,-3,44,0,1
54768,-1040,-7514,-2551,-3,41,0,1
54773,-976,-7514,-2545,-3,40,0,1
54778,-918,-7514,-2552,-3,38,-1,1
54783,-862,-7521,-2565,-3,36,-1,1
54788,-813,-7520,-2594,-3,33,-1,1
54793,-774,-7512,-2621,-2,29,-1,1
54798,-731,-7505,-2651,-2,26,-1,1
54802,-688,-7502,-2689,-2,20,-1,1
54808,-646,-7505,-2720,-2,14,-1,1
54812,-615,-7508,-2752,-2,7,-1,1
54818,-599,-7512,-2774,-2,2,-2,1
54822,-601,-7516,-2781,-2,0,-2,1
54827,-625,-7519,-2784,-2,-1,-2,1
54832,-651,-7511,-2771,-2,-1,-2,1
54837,-685,-7508,-2750,-2,-3,-2,1
54842,-733,-7508,-2741,-2,-5,-2,1
54847,-774,-7508,-2734,-2,-5,-2,1
54852,-802,-7512,-2729,-2,-4,-2,1
54857,-818,-7510,-2731,-2,-3,-2,1
54862,-825,-7509,-2731,-2,-2,-2,1
54867,-810,-7510,-2734,-2,-2,-2,1
54872,-797,-7507,-2744,-2,-3,-2,1
54877,-791,-7509,-2748,-2,-5,-2,1
54882,-790,-7509,-2758,-2,-5,-2,1
54887,-804,-7514,-2769,-2,-5,-2,1
54892,-830,-7514,-2767,-2,-5,-2,1
54897,-868,-7515,-2763,-2,-4,-2,1
54902,-908,-7519,-2757,-2,-3,-2,1
54907,-947,-7518,-2752,-2,-1,-2,1
54912,-969,-7516,-2743,-2,1,-2,1
54917,-973,-7517,-2737,-2,2,-2,1
54922,-965,-7517,-2738,-2,3,-2,1
54927,-949,-7512,-2742,-2,3,-2,1
54932,-931,-7513,-2753,-2,4,-2,1
54937,-917,-7513,-2766,-2,5,-2,1
54942,-904,-7513,-2778,-2,5,-2,1
54947,-903,-7515,-2784,-2,5,-2,1
54952,-903,-7512,-2780,-2,5,-2,1
54957,-900,-7510,-2778,-2,5,-2,1
54962,-898,-7511,-2769,-2,5,-2,1
54967,-889,-7512,-2757,-2,5,-2,1
54972,-868,-7512,-2746,-2,5,-2,1
54977,-846,-7512,-2738,-1,4,-2,1
54982,-825,-7511,-2730,-1,3,-2,1
54987,-809,-7509,-2718,-1,3,-2,1
54992,-799,-7509,-2708,-2,3,-2,1
54997,-791,-7510,-2691,-2,3,-2,1
55002,-788,-7511,-2671,-2,4,-2,1
55007,-786,-7512,-2650,-2,6,-2,1
55012,-788,-7508,-2635,-2,8,-2,1
55017,-780,-7509,-2616,-2,10,-2,1
55022,-761,-7510,-2595,-2,10,-2,1
55027,-744,-7512,-2593,-2,9,-2,1
55032,-718,-7515,-2602,-2,8,-2,1
55037,-690,-7512,-2614,-2,7,-2,1
55042,-667,-7510,-2645,-2,6,-1,1
55047,-642,-7512,-2669,-2,6,-2,1
55052,-629,-7519,-2676,-2,5,-2,1
55057,-634,-7516,-2682,-2,5,-2,1
55062,-636,-7515,-2657,-2,5,-1,1
55067,-648,-7515,-2626,-2,7,-1,1
55072,-649,-7516,-2591,-2,7,-1,1
55077,-648,-7517,-2558,-2,6,-1,1
55082,-663,-7516,-2551,-2,5,-1,1
55087,-678,-7517,-2563,-2,5,-1,1
55092,-694,-7518,-2585,-2,5,-1,1
55097,-724,-7519,-2625,-2,6,-1,1
55102,-751,-7518,-2659,-2,8,-1,1
55107,-786,-7513,-2684,-2,10,-1,1
55112,-822,-7512,-2694,-2,12,-1,1
55117,-851,-7510,-2695,-2,13,-1,1
55122,-855,-7508,-2689,-2,13,-1,1
55127,-843,-7506,-2673,-2,11,-1,1
55132,-824,-7505,-2669,-2,7,-1,1
55137,-806,-7508,-2671,-2,6,-1,1
55142,-781,-7513,-2690,-2,6,-2,1
55147,-745,-7515,-2722,-2,5,-2,1
55152,-732,-7518,-2749,-2,2,-2,1
55157,-744,-7516,-2794,-2,-2,-2,1
55162,-776,-7514,-2828,-2,-3,-2,1
55167,-810,-7513,-2838,-2,-2,-2,1
55172,-846,-7510,-2820,-2,-1,-2,1
55177,-873,-7509,-2785,-2,0,-2,1
55182,-885,-7509,-2746,-2,0,-2,1
55187,-889,-7515,-2708,-2,1,-2,1
55192,-888,-7514,-2685,-1,1,-2,1
55197,-868,-7511,-2684,-1,2,-2,1
55202,-845,-7508,-2696,-1,2,-2,1
55207,-818,-7507,-2723,-1,2,-2,1
55212,-797,-7507,-2755,-1,1,-2,1
55217,-781,-7506,-2781,-2,1,-2,1
55222,-774,-7505,-2790,-2,2,-2,1
55227,-779,-7506,-2781,-2,2,-2,1
55232,-788,-7506,-2762,-2,2,-2,1
55237,-795,-7506,-2738,-2,2,-2,1
55242,-804,-7508,-2713,-2,2,-2,1
55247,-808,-7509,-2690,-1,3,-2,1
55252,-799,-7508,-2675,-1,3,-2,1
55257,-783,-7512,-2675,-1,3,-2,1
55262,-763,-7514,-2682,-1,2,-2,1
55267,-743,-7516,-2697,-1,2,-2,1
55272,-726,-7515,-2707,-2,2,-2,1
55277,-714,-7514,-2706,-2,2,-2,1
55282,-707,-7511,-2702,-2,2,-2,1
55287,-712,-7514,-2693,-2,1,-2,1
55292,-722,-7516,-2686,-2,1,-2,1
55297,-737,-7513,-2682,-2,0,-2,1
55302,-750,-7511,-2686,-1,0,-2,1
55307,-754,-7510,-2695,-1,1,-2,1
55312,-758,-7511,-2711,-1,1,-2,1
55317,-759,-7509,-2729,-1,0,-2,1
55322,-758,-7510,-2749,-1,0,-2,1
55327,-756,-7512,-2761,-2,1,-2,1
55332,-758,-7511,-2764,-2,1,-2,1
55337,-763,-7510,-2764,-2,1,-2,1
55342,-774,-7509,-2761,-1,1,-2,1
55347,-779,-7512,-2751,-1,1,-2,1
55352,-785,-7511,-2749,-1,1,-2,1
55357,-790,-7511,-2750,-1,1,-2,1
55362,-789,-7509,-2752,-1,1,-2,1
55367,-784,-7507,-2762,-1,1,-2,1
55372,-784,-7506,-2768,-1,2,-3,1
55377,-787,-7509,-2773,-1,1,-3,1
55382,-791,-7511,-2779,-1,2,-3,1
55387,-796,-7515,-2773,-1,2,-3,1
55392,-800,-7517,-2757,-1,3,-3,1
55397,-802,-7516,-2748,-1,3,-3,1
55402,-797,-7516,-2743,-1,3,-3,1
55407,-788,-7515,-2740,-1,3,-3,1
55412,-782,-7512,-2750,-1,2,-3,1
55417,-775,-7510,-2752,-1,2,-3,1
55422,-768,-7510,-2752,-1,2,-3,1
55427,-762,-7512,-2754,-1,2,-3,1
55432,-754,-7511,-2749,-1,2,-3,1
55437,-749,-7512,-2740,-1,2,-3,1
55442,-744,-7513,-2728,-1,2,-3,1
55447,-732,-7514,-2712,-1,3,-3,1
55452,-721,-7516,-2697,-1,3,-3,1
55457,-707,-7519,-2680,-1,3,-3,1
55462,-692,-7520,-2669,-1,3,-3,1
55467,-674,-7518,-2661,-1,3,-3,1
55472,-654,-7517,-2653,-1,2,-3,1
55477,-635,-7519,-2645,-1,2,-3,1
55482,-621,-7520,-2639,-1,1,-3,1
55487,-614,-7517,-2633,-1,1,-3,1
55492,-612,-7515,-2624,-1,1,-3,1
55497,-613,-7514,-2612,-1,1,-3,1
55502,-616,-7513,-2597,-2,1,-2,1
55507,-620,-7514,-2582,-2,1,-2,1
55512,-623,-7519,-2571,-2,2,-2,1
55517,-626,-7521,-2569,-2,2,-2,1
55522,-631,-7521,-2573,-1,2,-2,1
55527,-640,-7517,-2590,-2,2,-2,1
55531,-653,-7517,-2610,-2,1,-2,1
55537,-667,-7516,-2630,-2,2,-2,1
55541,-679,-7515,-2646,-2,2,-2,1
55547,-685,-7517,-2659,-2,2,-2,1
55551,-690,-7517,-2669,-2,1,-2,1
55556,-690,-7518,-2677,-2,1,-2,1
55561,-693,-7521,-2678,-2,1,-2,1
55566,-694,-7522,-2680,-2,1,-2,1
55571,-692,-7520,-2682,-2,1,-3,1
55576,-686,-7522,-2680,-2,1,-2,1
55581,-685,-7524,-2683,-2,1,-3,1
55586,-683,-7523,-2685,-2,2,-2,1
55591,-682,-7521,-2690,-2,2,-2,1
55596,-679,-7519,-2698,-2,2,-2,1
55601,-677,-7515,-2700,-2,3,-2,1
55606,-674,-7513,-2701,-2,3,-2,1
55611,-667,-7512,-2697,-2,3,-2,1
55616,-659,-7512,-2689,-2,3,-2,1
55621,-647,-7513,-2678,-2,3,-2,1
55626,-632,-7514,-2672,-2,4,-2,1
55631,-619,-7514,-2670,-2,3,-2,1
55636,-599,-7516,-2675,-2,3,-2,1
55641,-584,-7514,-2683,-2,2,-2,1
55646,-581,-7515,-2692,-2,1,-2,1
55651,-580,-7514,-2702,-2,0,-2,1
55656,-578,-7514,-2704,-2,1,-2,1
55661,-577,-7513,-2697,-2,1,-2,1
55666,-588,-7513,-2684,-2,1,-2,1
55671,-592,-7512,-2673,-2,1,-2,1
55676,-592,-7512,-2662,-2,1,-2,1
55681,-593,-7513,-2656,-2,1,-2,1
55686,-593,-7512,-2658,-2,1,-2,1
55691,-596,-7514,-2659,-2,1,-2,1
55696,-596,-7517,-2657,-2,2,-2,1
55701,-593,-7518,-2661,-2,2,-2,1
55706,-588,-7517,-2668,-2,2,-2,1
55711,-586,-7518,-2672,-2,2,-2,1
55716,-590,-7520,-2678,-2,2,-2,1
55721,-597,-7518,-2682,-2,2,-2,1
55726,-612,-7521,-2677,-2,2,-2,1
55731,-638,-7519,-2667,-2,3,-2,1
55736,-655,-7516,-2663,-2,5,-2,1
55741,-653,-7517,-2657,-2,6,-2,1
55746,-650,-7512,-2672,-2,4,-2,1
55751,-649,-7516,-2691,-2,1,-2,1
55756,-661,-7517,-2727,-2,1,-2,1
55761,-656,-7520,-2745,-2,2,-2,1
55766,-644,-7515,-2739,-2,4,-2,1
55771,-641,-7513,-2745,-2,5,-2,1
55776,-626,-7519,-2722,-2,3,-2,1
55781,-629,-7520,-2701,-2,1,-2,1
55786,-645,-7520,-2683,-2,1,-2,1
55791,-651,-7520,-2671,-2,2,-2,1
55796,-661,-7522,-2661,-2,3,-2,1
55801,-672,-7520,-2664,-2,4,-2,1
55806,-674,-7519,-2672,-2,4,-2,1
55811,-671,-7522,-2681,-2,5,-2,1
55816,-663,-7522,-2686,-2,5,-2,1
55821,-646,-7518,-2700,-2,5,-2,1
55826,-631,-7518,-2707,-2,4,-2,1
55831,-615,-7521,-2697,-2,2,-2,1
55836,-607,-7517,-2702,-2,2,-2,1
55841,-599,-7516,-2690,-2,2,-2,1
55846,-587,-7519,-2676,-2,1,-2,1
55851,-596,-7515,-2681,-2,-1,-2,1
55856,-608,-7516,-2681,-2,-1,-2,1
55861,-613,-7518,-2682,-2,0,-2,1
55866,-622,-7519,-2684,-2,0,-2,1
55871,-625,-7515,-2682,-2,0,-2,1
55876,-628,-7516,-2677,-2,0,-2,1
55881,-628,-7517,-2670,-2,0,-2,1
55886,-624,-7519,-2669,-2,0,-2,1
55891,-620,-7518,-2667,-2,0,-2,1
55896,-615,-7518,-2669,-2,0,-2,1
55901,-611,-7518,-2681,-2,-1,-2,1
55906,-619,-7517,-2696,-2,-1,-2,1
55911,-633,-7514,-2709,-2,-1,-2,1
55916,-649,-7515,-2725,-2,-1,-2,1
55921,-663,-7514,-2733,-2,-1,-2,1
55926,-676,-7512,-2742,-2,-1,-2,1
55931,-688,-7509,-2746,-2,-1,-2,1
55936,-695,-7510,-2744,-2,0,-2,1
55941,-703,-7508,-2738,-2,0,-2,1
55946,-702,-7508,-2734,-2,0,-2,1
55951,-701,-7506,-2726,-2,1,-2,1
55956,-697,-7504,-2729,-2,0,-2,1
55961,-695,-7506,-2737,-2,0,-2,1
55966,-694,-7509,-2750,-2,0,-2,1
55971,-694,-7508,-2761,-2,0,-2,1
55976,-698,-7510,-2772,-2,0,-2,1
55981,-706,-7510,-2776,-2,1,-2,1
55986,-710,-7510,-2772,-2,0,-2,1
55991,-712,-7510,-2767,-2,0,-2,1
55996,-706,-7508,-2761,-2,0,-2,1
56001,-700,-7508,-2748,-2,0,-2,1
56006,-692,-7509,-2742,-2,1,-2,1
56011,-687,-7508,-2740,-2,1,-2,1
56016,-687,-7507,-2741,-2,1,-2,1
56021,-707,-7513,-2760,-2,1,-2,1
56026,-734,-7513,-2775,-2,2,-3,1
56031,-729,-7506,-2781,-2,3,-2,1
56036,-729,-7506,-2777,-2,2,-2,1
56041,-714,-7509,-2759,-2,3,-2,1
56046,-675,-7511,-2727,-2,4,-2,1
56051,-637,-7518,-2697,-2,5,-2,1
56056,-610,-7519,-2684,-2,5,-2,1
56061,-599,-7517,-2683,-2,4,-2,1
56066,-600,-7515,-2695,-2,3,-2,1
56071,-595,-7514,-2714,-2,2,-2,1
56076,-601,-7510,-2750,-2,2,-2,1
56081,-595,-7508,-2771,-2,3,-2,1
56086,-583,-7509,-2783,-2,2,-2,1
56091,-585,-7512,-2799,-2,2,-2,1
56096,-601,-7512,-2793,-2,2,-2,1
56101,-617,-7504,-2788,-2,4,-2,1
56106,-615,-7505,-2774,-2,4,-2,1
56111,-609,-7510,-2750,-2,3,-2,1
56116,-603,-7509,-2753,-2,1,-2,1
56121,-599,-7506,-2744,-2,0,-2,1
56126,-585,-7506,-2744,-2,1,-2,1
56131,-581,-7504,-2758,-2,1,-2,1
56136,-587,-7508,-2775,-2,1,-2,1
56141,-596,-7509,-2789,-1,0,-2,1
56146,-618,-7509,-2797,-2,0,-2,1
56151,-634,-7510,-2798,-2,1,-2,1
56156,-642,-7510,-2788,-2,1,-2,1
56161,-643,-7510,-2769,-2,1,-2,1
56166,-639,-7508,-2754,-2,1,-2,1
56171,-636,-7511,-2740,-1,2,-2,1
56176,-637,-7513,-2726,-1,2,-2,1
56181,-642,-7512,-2717,-2,3,-2,1
56186,-631,-7507,-2722,-1,3,-2,1
56191,-625,-7508,-2718,-1,3,-2,1
56196,-622,-7508,-2730,-2,2,-2,1
56201,-613,-7509,-2743,-2,2,-2,1
56206,-603,-7511,-2746,-2,2,-2,1
56211,-593,-7512,-2751,-2,2,-2,1
56216,-592,-7508,-2752,-2,1,-2,1
56221,-596,-7508,-2742,-2,0,-2,1
56226,-601,-7507,-2732,-2,0,-2,1
56231,-604,-7508,-2717,-2,1,-2,1
56236,-603,-7512,-2704,-2,1,-2,1
56241,-598,-7508,-2698,-2,1,-2,1
56246,-593,-7508,-2693,-2,1,-2,1
56251,-585,-7509,-2696,-2,1,-2,1
56256,-579,-7509,-2702,-2,1,-2,1
56261,-575,-7509,-2708,-2,0,-2,1
56266,-573,-7508,-2714,-2,0,-2,1
56271,-569,-7508,-2707,-2,0,-2,1
56276,-564,-7508,-2700,-2,0,-2,1
56281,-560,-7510,-2696,-2,0,-2,1
56286,-565,-7513,-2685,-2,0,-2,1
56291,-569,-7513,-2680,-2,0,-2,1
56295,-584,-7512,-2679,-2,0,-2,1
56301,-598,-7509,-2686,-2,1,-2,1
56305,-595,-7509,-2691,-2,2,-2,1
56311,-589,-7510,-2699,-2,2,-2,1
56315,-583,-7513,-2710,-2,1,-2,1
56321,-570,-7511,-2719,-2,2,-2,1
56325,-579,-7509,-2716,-2,3,-2,1
56331,-582,-7508,-2720,-2,5,-2,1
56335,-572,-7511,-2712,-2,6,-2,1
56340,-594,-7517,-2709,-2,4,-2,1
56346,-611,-7515,-2724,-2,3,-2,1
56350,-610,-7515,-2724,-2,3,-2,1
56355,-609,-7515,-2721,-2,4,-2,1
56360,-586,-7512,-2713,-2,3,-2,1
56365,-559,-7512,-2702,-2,3,-2,1
56370,-531,-7514,-2697,-2,2,-2,1
56375,-507,-7513,-2696,-2,1,-2,1
56380,-497,-7512,-2696,-2,1,-2,1
56385,-496,-7511,-2701,-2,0,-2,1
56390,-502,-7507,-2703,-2,0,-2,1
56395,-515,-7504,-2708,-2,1,-2,1
56400,-529,-7501,-2702,-2,1,-2,1
56405,-544,-7502,-2697,-2,2,-2,1
56410,-560,-7503,-2691,-2,3,-2,1
56415,-566,-7503,-2685,-2,4,-2,1
56420,-560,-7505,-2681,-2,4,-2,1
56425,-554,-7511,-2675,-2,4,-2,1
56430,-556,-7507,-2686,-2,4,-2,1
56435,-566,-7509,-2688,-2,5,-2,1
56440,-576,-7513,-2703,-2,7,-2,1
56445,-581,-7505,-2729,-2,7,-2,1
56450,-574,-7504,-2738,-2,5,-2,1
56455,-580,-7504,-2755,-2,2,-2,1
56460,-587,-7503,-2774,-2,1,-2,1
56465,-591,-7505,-2777,-2,3,-2,1
56470,-592,-7505,-2772,-2,4,-2,1
56475,-586,-7503,-2762,-2,4,-2,1
56480,-583,-7504,-2749,-2,3,-2,1
56485,-585,-7506,-2740,-2,2,-2,1
56490,-588,-7511,-2736,-2,2,-2,1
56495,-597,-7515,-2726,-2,4,-2,1
56500,-600,-7513,-2726,-2,7,-2,1
56505,-596,-7510,-2729,-2,10,-2,1
56510,-583,-7512,-2741,-2,8,-2,1
56515,-580,-7511,-2760,-2,6,-2,1
56520,-580,-7510,-2777,-2,3,-2,1
56525,-580,-7510,-2791,-2,2,-2,1
56530,-583,-7509,-2799,-2,3,-2,1
56535,-575,-7507,-2792,-2,4,-2,1
56540,-561,-7506,-2775,-2,4,-2,1
56545,-555,-7507,-2756,-2,3,-2,1
56550,-550,-7507,-2736,-2,2,-2,1
56555,-548,-7507,-2727,-2,2,-2,1
56560,-548,-7506,-2724,-2,2,-2,1
56565,-545,-7504,-2740,-2,2,-2,1
56570,-545,-7503,-2763,-2,1,-2,1
56575,-550,-7505,-2787,-2,1,-2,1
56580,-559,-7507,-2809,-2,1,-2,1
56585,-564,-7507,-2814,-2,2,-2,1
56590,-573,-7507,-2808,-2,2,-2,1
56595,-590,-7508,-2804,-2,2,-2,1
56600,-603,-7507,-2786,-2,3,-2,1
56605,-609,-7508,-2764,-2,3,-2,1
56610,-613,-7505,-2748,-2,4,-2,1
56615,-594,-7502,-2725,-2,5,-2,1
56620,-575,-7503,-2721,-2,4,-2,1
56625,-551,-7505,-2725,-2,4,-2,1
56630,-527,-7502,-2731,-2,3,-2,1
56635,-516,-7500,-2753,-2,3,-2,1
56640,-511,-7501,-2775,-2,3,-2,1
56645,-516,-7505,-2782,-2,3,-2,1
56650,-523,-7504,-2786,-2,4,-2,1
56655,-523,-7502,-2782,-2,4,-2,1
56660,-523,-7502,-2768,-2,3,-2,1
56665,-533,-7499,-2758,-2,3,-2,1
56670,-541,-7499,-2746,-2,3,-2,1
56675,-546,-7496,-2748,-2,4,-2,1
56680,-546,-7498,-2749,-2,5,-2,1
56685,-541,-7502,-2747,-2,5,-2,1
56690,-536,-7506,-2755,-2,6,-2,1
56695,-522,-7505,-2748,-2,7,-2,1
56700,-495,-7503,-2744,-2,8,-2,1
56705,-466,-7505,-2741,-2,8,-2,1
56710,-439,-7503,-2727,-2,5,-2,1
56715,-426,-7504,-2729,-2,4,-2,1
56720,-423,-7505,-2728,-2,4,-2,1
56725,-432,-7502,-2733,-2,5,-2,1
56730,-449,-7500,-2744,-2,4,-2,1
56735,-471,-7499,-2760,-2,3,-2,1
56740,-491,-7499,-2777,-2,3,-2,1
56745,-503,-7497,-2795,-2,4,-2,1
56750,-503,-7496,-2804,-2,4,-2,1
56755,-493,-7497,-2820,-2,3,-2,1
56760,-485,-7495,-2825,-2,0,-2,1
56765,-495,-7497,-2823,-2,-2,-2,1
56770,-515,-7496,-2818,-2,-2,-2,1
56775,-526,-7496,-2802,-2,0,-2,1
56780,-531,-7499,-2773,-2,1,-2,1
56785,-524,-7503,-2748,-2,1,-2,1
56790,-517,-7503,-2724,-2,1,-2,1
56795,-504,-7503,-2710,-2,1,-2,1
56800,-488,-7503,-2707,-2,2,-2,1
56805,-472,-7500,-2710,-2,2,-2,1
56810,-459,-7502,-2732,-2,2,-2,1
56815,-452,-7505,-2753,-2,2,-2,1
56820,-457,-7501,-2781,-2,1,-2,1
56825,-461,-7502,-2803,-2,1,-2,1
56830,-468,-7502,-2805,-2,1,-2,1
56835,-474,-7500,-2805,-2,0,-2,1
56840,-480,-7498,-2795,-2,0,-2,1
56845,-482,-7500,-2785,-2,-1,-2,1
56850,-487,-7500,-2776,-2,-2,-2,1
56855,-492,-7498,-2776,-2,-2,-2,1
56860,-492,-7496,-2786,-2,-2,-2,1
56865,-495,-7493,-2795,-2,-2,-2,1
56870,-491,-7495,-2806,-2,-2,-2,1
56875,-487,-7496,-2815,-2,-2,-2,1
56880,-480,-7497,-2818,-2,-2,-2,1
56885,-473,-7499,-2818,-2,-2,-2,1
56890,-472,-7498,-2807,-2,-2,-2,1
56895,-472,-7496,-2793,-2,-2,-2,1
56900,-478,-7496,-2785,-2,-2,-2,1
56905,-486,-7497,-2783,-2,-1,-2,1
56910,-498,-7496,-2784,-2,-1,-2,1
56915,-502,-7493,-2783,-2,0,-2,1
56920,-502,-7492,-2790,-2,0,-2,1
56925,-499,-7490,-2797,-2,0,-2,1
56930,-493,-7489,-2809,-2,0,-2,1
56935,-481,-7490,-2819,-2,0,-2,1
56940,-473,-7491,-2822,-2,-1,-2,1
56945,-470,-7493,-2826,-2,-1,-2,1
56950,-473,-7493,-2827,-2,-1,-2,1
56955,-470,-7491,-2832,-2,-1,-2,1
56960,-478,-7490,-2821,-2,-1,-2,1
56965,-488,-7489,-2811,-2,-1,-2,1
56970,-488,-7491,-2801,-2,-1,-2,1
56975,-492,-7494,-2787,-2,-1,-2,1
56980,-494,-7496,-2782,-2,-2,-2,1
56985,-490,-7494,-2784,-2,-2,-2,1
56990,-487,-7496,-2794,-2,-2,-2,1
56995,-479,-7496,-2806,-2,-2,-2,1
57000,-473,-7495,-2824,-2,-2,-2,1
57005,-467,-7491,-2837,-2,-3,-2,1
57010,-472,-7486,-2840,-2,-4,-2,1
57015,-487,-7488,-2844,-2,-4,-2,1
57020,-501,-7488,-2839,-2,-4,-2,1
57025,-522,-7490,-2824,-2,-3,-2,1
57029,-543,-7491,-2814,-2,-4,-2,1
57035,-559,-7492,-2808,-2,-4,-2,1
57040,-571,-7494,-2805,-2,-3,-2,1
57045,-576,-7494,-2818,-2,-2,-2,1
57050,-573,-7494,-2835,-2,-2,-2,1
57055,-560,-7493,-2850,-2,-2,-2,1
57059,-550,-7491,-2856,-2,-2,-2,1
57064,-537,-7492,-2851,-2,-2,-2,1
57069,-524,-7494,-2844,-2,-2,-2,1
57074,-510,-7497,-2829,-2,-3,-2,1
57079,-503,-7497,-2813,-2,-3,-2,1
57084,-503,-7496,-2794,-2,-3,-2,1
57089,-502,-7496,-2777,-2,-3,-2,1
57094,-500,-7496,-2762,-2,-3,-2,1
57099,-500,-7494,-2753,-2,-2,-2,1
57104,-501,-7490,-2747,-2,-2,-2,1
57109,-503,-7492,-2748,-2,-2,-2,1
57114,-510,-7494,-2757,-2,-2,-2,1
57119,-523,-7493,-2771,-2,-1,-2,1
57124,-530,-7495,-2784,-2,-1,-2,1
57129,-539,-7500,-2798,-2,-1,-2,1
57134,-545,-7497,-2806,-2,-1,-2,1
57139,-547,-7493,-2807,-2,-1,-2,1
57144,-547,-7493,-2798,-2,-1,-2,1
57149,-545,-7489,-2801,-2,-1,-2,1
57154,-551,-7482,-2804,-2,-2,-2,1
57159,-561,-7481,-2811,-2,-2,-2,1
57164,-564,-7480,-2827,-2,-3,-2,1
57169,-563,-7479,-2836,-2,-4,-2,1
57174,-572,-7478,-2840,-2,-4,-2,1
57179,-571,-7481,-2834,-2,-3,-2,1
57184,-567,-7483,-2816,-2,-2,-2,1
57189,-563,-7485,-2795,-2,-1,-2,1
57194,-558,-7485,-2767,-2,-2,-2,1
57199,-557,-7489,-2751,-2,-1,-2,1
57204,-552,-7486,-2745,-2,-1,-2,1
57209,-542,-7484,-2744,-2,0,-2,1
57214,-550,-7484,-2755,-2,1,-2,1
57219,-557,-7484,-2780,-2,3,-2,1
57224,-527,-7487,-2796,-2,3,-2,1
57229,-520,-7488,-2816,-2,-1,-2,1
57234,-526,-7481,-2836,-2,-3,-2,1
57239,-515,-7476,-2840,-2,-3,-2,1
57244,-509,-7483,-2838,-2,-1,-2,1
57249,-501,-7483,-2833,-2,-1,-2,1
57254,-506,-7482,-2821,-2,-2,-2,1
57259,-522,-7484,-2813,-2,-3,-3,1
57264,-545,-7486,-2804,-2,-4,-2,1
57269,-566,-7486,-2799,-2,-3,-2,1
57274,-586,-7488,-2808,-2,-2,-2,1
57279,-600,-7484,-2824,-2,-1,-2,1
57284,-610,-7482,-2842,-2,-2,-3,1
57289,-624,-7484,-2872,-2,-2,-3,1
57294,-641,-7484,-2897,-2,-2,-3,1
57299,-646,-7478,-2908,-2,-2,-3,1
57304,-646,-7479,-2901,-2,-2,-3,1
57309,-638,-7481,-2878,-2,-1,-2,1
57314,-626,-7482,-2840,-2,0,-2,1
57319,-613,-7482,-2792,-2,1,-3,1
57324,-602,-7486,-2749,-2,2,-3,1
57329,-586,-7490,-2716,-2,3,-2,1
57334,-575,-7491,-2705,-2,2,-2,1
57339,-568,-7494,-2720,-2,2,-2,1
57344,-551,-7491,-2746,-2,2,-2,1
57349,-535,-7491,-2770,-2,2,-2,1
57354,-516,-7494,-2798,-2,3,-2,1
57359,-493,-7496,-2809,-2,3,-2,1
57364,-478,-7492,-2805,-2,2,-2,1
57369,-469,-7490,-2793,-2,0,-2,1
57374,-468,-7487,-2775,-2,0,-2,1
57379,-473,-7487,-2751,-2,1,-2,1
57384,-481,-7488,-2724,-2,1,-2,1
57389,-491,-7485,-2705,-2,1,-2,1
57394,-501,-7481,-2698,-2,0,-2,1
57399,-504,-7483,-2703,-2,-1,-2,1
57404,-507,-7480,-2722,-2,0,-2,1
57409,-502,-7480,-2737,-2,0,-2,1
57414,-491,-7481,-2760,-2,0,-2,1
57419,-484,-7484,-2786,-2,-1,-2,1
57424,-486,-7486,-2805,-2,-2,-2,1
57429,-494,-7485,-2819,-2,-2,-2,1
57434,-501,-7486,-2814,-2,-1,-2,1
57439,-514,-7485,-2802,-2,0,-2,1
57444,-529,-7485,-2789,-2,0,-2,1
57449,-544,-7485,-2772,-2,1,-2,1
57454,-559,-7484,-2765,-2,2,-2,1
57459,-568,-7481,-2762,-2,3,-2,1
57464,-571,-7480,-2761,-2,5,-2,1
57469,-562,-7479,-2760,-2,6,-2,1
57474,-542,-7477,-2767,-2,6,-2,1
57479,-523,-7474,-2773,-2,6,-2,1
57484,-503,-7474,-2781,-2,5,-2,1
57489,-490,-7474,-2789,-2,5,-2,1
57494,-485,-7472,-2798,-2,5,-2,1
57499,-487,-7472,-2802,-2,4,-2,1
57504,-493,-7471,-2807,-2,4,-2,1
57509,-507,-7476,-2811,-2,4,-2,1
57514,-521,-7480,-2812,-2,5,-2,1
57519,-534,-7482,-2818,-2,6,-2,1
57524,-541,-7483,-2816,-2,6,-2,1
57529,-551,-7481,-2814,-2,7,-2,1
57534,-547,-7477,-2824,-2,7,-2,1
57539,-540,-7472,-2832,-2,7,-2,1
57544,-537,-7475,-2845,-2,6,-2,1
57549,-532,-7472,-2863,-2,6,-2,1
57554,-527,-7470,-2883,-2,6,-2,1
57559,-527,-7470,-2901,-2,5,-2,1
57564,-532,-7473,-2915,-2,4,-2,1
57569,-543,-7474,-2924,-2,4,-2,1
57574,-551,-7474,-2930,-2,3,-2,1
57579,-559,-7478,-2920,-2,4,-2,1
57584,-563,-7474,-2903,-2,4,-2,1
57589,-559,-7471,-2886,-2,5,-2,1
57594,-544,-7472,-2866,-2,4,-2,1
57599,-534,-7472,-2861,-2,3,-2,1
57604,-526,-7473,-2866,-2,2,-2,1
57609,-518,-7475,-2876,-2,2,-2,1
57614,-507,-7474,-2900,-2,2,-2,1
57619,-500,-7474,-2912,-2,3,-2,1
57624,-492,-7470,-2920,-2,3,-2,1
57629,-493,-7471,-2920,-2,2,-2,1
57634,-502,-7471,-2903,-2,2,-2,1
57639,-522,-7469,-2888,-2,2,-2,1
57644,-549,-7471,-2866,-2,3,-2,1
57649,-568,-7470,-2840,-2,5,-2,1
57654,-575,-7468,-2814,-2,8,-2,1
57659,-565,-7466,-2780,-2,10,-2,1
57664,-542,-7460,-2763,-2,10,-2,1
57669,-527,-7457,-2753,-2,10,-2,1
57674,-520,-7455,-2758,-2,11,-2,1
57679,-510,-7463,-2784,-2,13,-2,1
57684,-489,-7462,-2813,-2,13,-2,1
57689,-467,-7454,-2850,-2,12,-2,1
57694,-446,-7452,-2888,-2,9,-2,1
57699,-426,-7455,-2915,-2,6,-2,1
57704,-412,-7458,-2934,-2,5,-2,1
57709,-403,-7459,-2937,-2,4,-2,1
57714,-400,-7456,-2934,-2,3,-2,1
57719,-403,-7453,-2921,-2,2,-2,1
57724,-412,-7454,-2903,-2,1,-2,1
57729,-425,-7456,-2890,-2,0,-2,1
57734,-438,-7458,-2879,-2,1,-2,1
57739,-443,-7458,-2880,-2,2,-2,1
57744,-446,-7462,-2882,-2,3,-2,1
57749,-454,-7460,-2891,-2,5,-2,1
57754,-455,-7459,-2895,-2,7,-2,1
57759,-450,-7459,-2898,-2,10,-2,1
57764,-434,-7462,-2893,-2,8,-2,1
57769,-418,-7462,-2880,-2,5,-2,1
57774,-419,-7467,-2889,-2,3,-2,1
57779,-418,-7469,-2883,-2,2,-2,1
57784,-422,-7467,-2880,-2,2,-2,1
57789,-427,-7461,-2885,-2,2,-2,1
57794,-431,-7460,-2886,-2,2,-2,1
57799,-435,-7464,-2887,-2,2,-2,1
57804,-440,-7460,-2883,-2,1,-2,1
57809,-440,-7460,-2884,-2,0,-2,1
57814,-438,-7460,-2887,-2,0,-2,1
57819,-444,-7456,-2891,-2,0,-2,1
57823,-457,-7458,-2899,-2,1,-3,1
57828,-463,-7455,-2910,-2,1,-3,1
57833,-469,-7452,-2910,-2,0,-2,1
57838,-481,-7456,-2912,-2,0,-2,1
57843,-480,-7453,-2902,-2,1,-2,1
57848,-471,-7457,-2876,-2,3,-2,1
57853,-469,-7457,-2856,-2,5,-2,1
57858,-450,-7459,-2825,-2,7,-2,1
57863,-445,-7459,-2800,-2,9,-2,1
57868,-438,-7460,-2800,-2,9,-2,1
57873,-428,-7462,-2810,-2,10,-2,1
57878,-418,-7462,-2824,-2,9,-2,1
57883,-407,-7459,-2850,-2,7,-2,1
57888,-408,-7462,-2880,-2,5,-2,1
57893,-409,-7465,-2899,-2,4,-2,1
57898,-412,-7459,-2914,-2,4,-2,1
57903,-415,-7460,-2917,-2,5,-2,1
57908,-418,-7460,-2908,-2,5,-2,1
57913,-414,-7459,-2888,-2,6,-2,1
57918,-412,-7457,-2869,-2,6,-2,1
57923,-401,-7455,-2847,-2,6,-2,1
57928,-384,-7458,-2833,-2,6,-2,1
57933,-368,-7466,-2828,-2,6,-2,1
57938,-351,-7472,-2834,-2,6,-2,1
57943,-338,-7469,-2839,-2,5,-2,1
57948,-330,-7466,-2845,-2,6,-2,1
57953,-317,-7470,-2847,-2,6,-2,1
57958,-309,-7471,-2848,-2,6,-2,1
57963,-296,-7470,-2841,-2,5,-2,1
57968,-286,-7466,-2835,-2,4,-2,1
57973,-281,-7465,-2842,-2,3,-2,1
57978,-282,-7465,-2855,-2,2,-2,1
57983,-288,-7462,-2872,-2,1,-2,1
57988,-296,-7461,-2897,-2,1,-2,1
57993,-305,-7463,-2910,-2,1,-2,1
57998,-311,-7464,-2928,-2,1,-2,1
58003,-315,-7464,-2939,-2,1,-2,1
58008,-322,-7463,-2943,-2,0,-2,1
58013,-327,-7464,-2940,-2,0,-2,1
58018,-332,-7461,-2933,-2,0,-2,1
58023,-332,-7465,-2918,-2,1,-2,1
58028,-323,-7460,-2907,-2,2,-2,1
58033,-316,-7460,-2890,-2,1,-2,1
58038,-316,-7460,-2883,-2,0,-2,1
58043,-323,-7458,-2890,-2,-1,-2,1
58048,-332,-7458,-2898,-2,0,-2,1
58053,-344,-7458,-2911,-2,0,-2,1
58058,-356,-7459,-2928,-2,1,-2,1
58063,-365,-7458,-2944,-2,1,-2,1
58068,-370,-7462,-2956,-2,1,-2,1
58073,-371,-7461,-2960,-2,1,-2,1
58078,-369,-7457,-2953,-2,2,-2,1
58083,-367,-7458,-2946,-2,2,-2,1
58088,-372,-7457,-2926,-2,2,-2,1
58093,-377,-7455,-2904,-2,4,-2,1
58098,-385,-7452,-2882,-2,6,-2,1
58103,-384,-7452,-2872,-2,8,-2,1
58108,-384,-7458,-2869,-2,8,-2,1
58113,-375,-7454,-2874,-2,8,-2,1
58118,-363,-7447,-2897,-2,7,-2,1
58123,-353,-7448,-2918,-1,7,-2,1
58128,-332,-7450,-2964,-1,7,-2,1
58133,-308,-7453,-2999,-1,7,-2,1
58138,-275,-7452,-3018,-2,6,-2,1
58143,-257,-7450,-3023,-2,3,-2,1
58148,-245,-7450,-2999,-2,1,-2,1
58153,-239,-7448,-2958,-2,1,-2,1
58158,-237,-7447,-2909,-2,1,-2,1
58163,-239,-7456,-2867,-2,1,-2,1
58168,-248,-7460,-2834,-2,1,-2,1
58173,-256,-7455,-2828,-2,1,-2,1
58178,-260,-7454,-2834,-1,1,-2,1
58183,-263,-7458,-2852,-1,1,-2,1
58188,-260,-7461,-2882,-2,1,-2,1
58193,-257,-7461,-2905,-2,2,-2,1
58198,-247,-7456,-2910,-2,3,-2,1
58203,-229,-7457,-2916,-2,3,-2,1
58208,-221,-7459,-2914,-2,2,-2,1
58213,-224,-7461,-2912,-2,2,-2,1
58218,-232,-7456,-2913,-2,1,-2,1
58223,-248,-7461,-2914,-1,1,-2,1
58228,-276,-7468,-2920,-2,1,-2,1
58233,-296,-7466,-2924,-2,1,-2,1
58238,-309,-7465,-2925,-2,1,-2,1
58243,-308,-7466,-2927,-2,1,-2,1
58248,-299,-7461,-2928,-2,1,-2,1
58253,-280,-7455,-2941,-1,1,-2,1
58258,-253,-7460,-2945,-1,0,-2,1
58263,-234,-7463,-2943,-2,-2,-2,1
58268,-230,-7459,-2947,-2,-2,-2,1
58273,-228,-7458,-2931,-2,-2,-2,1
58278,-230,-7458,-2912,-2,-1,-2,1
58283,-234,-7458,-2887,-2,-1,-2,1
58288,-242,-7456,-2870,-2,-2,-2,1
58293,-253,-7458,-2853,-2,-2,-2,1
58298,-266,-7461,-2839,-2,-1,-2,1
58303,-270,-7459,-2836,-2,0,-2,1
58308,-273,-7459,-2838,-2,0,-2,1
58313,-277,-7458,-2853,-2,-1,-2,1
58318,-278,-7454,-2877,-2,-2,-2,1
58323,-276,-7454,-2897,-2,-1,-2,1
58328,-267,-7459,-2909,-2,0,-2,1
58333,-250,-7457,-2919,-2,0,-2,1
58338,-247,-7457,-2910,-2,-1,-2,1
58343,-250,-7457,-2904,-2,-2,-2,1
58348,-257,-7459,-2895,-2,-3,-2,1
58353,-276,-7462,-2884,-2,-3,-2,1
58358,-285,-7460,-2882,-2,-2,-2,1
58363,-295,-7460,-2874,-2,-1,-2,1
58368,-308,-7461,-2871,-2,-1,-2,1
58373,-313,-7460,-2875,-2,-2,-2,1
58378,-319,-7457,-2879,-2,-2,-2,1
58383,-320,-7455,-2893,-2,-1,-2,1
58388,-314,-7453,-2902,-2,-1,-2,1
58393,-312,-7453,-2906,-2,-1,-2,1
58398,-309,-7456,-2911,-2,-1,-2,1
58403,-309,-7455,-2913,-2,-2,-2,1
58408,-310,-7450,-2922,-2,-2,-2,1
58413,-304,-7452,-2917,-2,-1,-2,1
58418,-301,-7454,-2911,-2,0,-2,1
58423,-294,-7455,-2906,-2,-1,-2,1
58428,-287,-7458,-2900,-2,-2,-2,1
58433,-289,-7463,-2902,-2,-2,-2,1
58438,-293,-7463,-2900,-2,-2,-2,1
58443,-307,-7463,-2897,-2,-2,-2,1
58448,-318,-7463,-2913,-2,-2,-2,1
58453,-328,-7458,-2922,-2,-2,-2,1
58458,-337,-7461,-2922,-2,-1,-2,1
58463,-337,-7459,-2920,-2,0,-2,1
58468,-331,-7459,-2920,-2,0,-2,1
58473,-326,-7462,-2914,-2,0,-2,1
58478,-328,-7462,-2913,-1,-1,-2,1
58483,-329,-7460,-2914,-1,-2,-2,1
58488,-331,-7461,-2917,-2,-2,-2,1
58493,-338,-7462,-2916,-2,-1,-2,1
58498,-337,-7459,-2913,-2,-1,-2,1
58503,-331,-7461,-2908,-2,-1,-2,1
58508,-332,-7459,-2903,-2,-1,-2,1
58513,-322,-7460,-2902,-1,-2,-2,1
58517,-313,-7459,-2903,-1,-2,-2,1
58523,-307,-7460,-2910,-1,-3,-2,1
58528,-293,-7462,-2912,-2,-4,-2,1
58533,-285,-7462,-2912,-2,-5,-2,1
58538,-271,-7482,-2907,-2,-6,-2,1
58542,-266,-7478,-2877,-2,-8,-3,1
58548,-266,-7445,-2853,-2,-12,-3,1
58552,-280,-7448,-2851,-2,-14,-3,1
58558,-309,-7471,-2844,-1,-12,-3,1
58562,-343,-7466,-2861,-1,-8,-2,1
58568,-366,-7456,-2873,-1,-3,-2,1
58572,-377,-7466,-2890,-1,1,-2,1
58577,-387,-7465,-2915,-1,1,-2,1
58583,-393,-7461,-2924,-2,-1,-2,1
58587,-397,-7465,-2939,-2,-3,-2,1
58592,-399,-7462,-2935,-2,-3,-2,1
58597,-399,-7455,-2936,-1,-2,-2,1
58602,-393,-7457,-2938,-1,0,-2,1
58607,-381,-7461,-2927,-1,0,-2,1
58612,-376,-7461,-2922,-1,0,-2,1
58617,-378,-7465,-2907,-2,-1,-2,1
58622,-372,-7464,-2892,-2,-2,-2,1
58627,-373,-7462,-2892,-1,-2,-2,1
58632,-370,-7465,-2885,-1,-2,-2,1
58637,-373,-7464,-2885,-1,-2,-2,1
58642,-371,-7464,-2875,-2,-2,-2,1
58647,-371,-7466,-2865,-2,-1,-2,1
58652,-381,-7463,-2859,-2,-2,-2,1
58657,-388,-7462,-2838,-2,-3,-2,1
58662,-397,-7463,-2828,-1,-3,-2,1
58667,-402,-7461,-2828,-1,-3,-2,1
58672,-405,-7458,-2836,-2,-2,-2,1
58677,-402,-7458,-2844,-2,-1,-2,1
58682,-394,-7459,-2843,-2,-1,-2,1
58687,-387,-7458,-2845,-2,-1,-2,1
58692,-378,-7463,-2843,-2,-1,-2,1
58697,-372,-7462,-2833,-2,-1,-2,1
58702,-364,-7462,-2827,-2,-1,-2,1
58707,-352,-7463,-2812,-2,-1,-2,1
58712,-345,-7463,-2803,-2,-2,-2,1
58717,-334,-7462,-2794,-2,-2,-2,1
58722,-318,-7464,-2787,-2,-3,-2,1
58727,-311,-7465,-2793,-2,-4,-2,1
58732,-308,-7465,-2799,-2,-5,-2,1
58737,-307,-7465,-2803,-2,-6,-2,1
58742,-311,-7465,-2811,-2,-7,-2,1
58747,-328,-7466,-2820,-2,-8,-2,1
58752,-349,-7467,-2836,-2,-7,-2,1
58757,-367,-7465,-2850,-2,-7,-2,1
58762,-388,-7463,-2861,-2,-6,-2,1
58767,-410,-7462,-2866,-2,-6,-2,1
58772,-427,-7466,-2868,-2,-5,-2,1
58777,-449,-7465,-2858,-2,-5,-2,1
58782,-462,-7463,-2843,-2,-5,-2,1
58787,-470,-7463,-2828,-2,-6,-2,1
58792,-484,-7466,-2819,-2,-6,-2,1
58797,-491,-7470,-2813,-2,-6,-2,1
58802,-499,-7467,-2817,-2,-5,-2,1
58807,-501,-7464,-2825,-2,-4,-2,1
58812,-499,-7464,-2841,-2,-3,-2,1
58817,-502,-7469,-2865,-2,-3,-2,1
58822,-504,-7468,-2891,-2,-2,-2,1
58827,-503,-7464,-2919,-2,-2,-2,1
58832,-497,-7466,-2939,-2,-1,-2,1
58837,-486,-7467,-2946,-2,0,-2,1
58842,-475,-7466,-2929,-2,0,-2,1
58847,-459,-7468,-2902,-2,1,-2,1
58852,-446,-7468,-2865,-2,1,-2,1
58857,-435,-7468,-2825,-2,1,-2,1
58862,-429,-7469,-2799,-2,1,-2,1
58867,-429,-7466,-2793,-2,0,-2,1
58872,-430,-7464,-2809,-2,0,-2,1
58877,-438,-7463,-2845,-2,0,-2,1
58882,-442,-7462,-2890,-2,0,-2,1
58887,-444,-7461,-2929,-2,0,-2,1
58892,-440,-7461,-2956,-2,0,-2,1
58897,-438,-7461,-2970,-2,0,-2,1
58902,-435,-7461,-2972,-2,0,-2,1
58907,-435,-7459,-2962,-2,-1,-2,1
58912,-438,-7459,-2945,-2,-1,-2,1
58917,-441,-7459,-2925,-2,0,-2,1
58922,-442,-7462,-2903,-2,0,-2,1
58927,-442,-7461,-2879,-2,1,-2,1
58932,-440,-7463,-2857,-2,1,-2,1
58937,-439,-7465,-2842,-2,1,-2,1
58942,-433,-7463,-2834,-2,1,-2,1
58947,-432,-7460,-2831,-2,2,-2,1
58952,-434,-7461,-2834,-2,2,-2,1
58957,-439,-7458,-2846,-2,2,-2,1
58962,-451,-7459,-2867,-2,1,-2,1
58967,-470,-7461,-2897,-2,0,-2,1
58972,-492,-7460,-2929,-2,1,-2,1
58977,-507,-7458,-2950,-2,1,-2,1
58982,-517,-7457,-2963,-2,2,-2,1
58987,-518,-7456,-2956,-2,2,-2,1
58992,-510,-7456,-2937,-2,1,-2,1
58997,-493,-7457,-2915,-2,1,-2,1
59002,-477,-7458,-2893,-2,1,-2,1
59007,-467,-7458,-2877,-2,1,-2,1
59012,-459,-7461,-2859,-2,1,-2,1
59017,-455,-7460,-2849,-2,0,-2,1
59022,-455,-7460,-2846,-2,0,-2,1
59027,-457,-7461,-2845,-2,0,-2,1
59032,-454,-7463,-2851,-2,1,-2,1
59037,-455,-7462,-2856,-2,1,-2,1
59042,-459,-7459,-2863,-2,1,-2,1
59047,-457,-7459,-2865,-2,0,-2,1
59052,-455,-7459,-2867,-2,0,-2,1
59057,-452,-7457,-2865,-2,0,-2,1
59062,-450,-7455,-2859,-2,1,-2,1
59067,-445,-7456,-2852,-2,1,-2,1
59072,-441,-7455,-2853,-2,0,-2,1
59077,-440,-7457,-2855,-2,0,-2,1
59082,-437,-7455,-2858,-2,0,-2,1
59087,-432,-7452,-2868,-2,0,-2,1
59092,-432,-7453,-2871,-2,0,-2,1
59097,-435,-7452,-2878,-2,0,-2,1
59102,-439,-7453,-2882,-2,0,-3,1
59107,-450,-7454,-2881,-2,0,-2,1
59112,-458,-7454,-2880,-2,0,-2,1
59117,-461,-7452,-2875,-2,0,-2,1
59122,-461,-7452,-2873,-2,0,-2,1
59127,-453,-7449,-2873,-2,1,-2,1
59132,-439,-7446,-2878,-2,1,-2,1
59137,-426,-7446,-2888,-2,1,-2,1
59142,-413,-7442,-2903,-2,0,-2,1
59147,-407,-7440,-2914,-2,0,-2,1
59152,-408,-7444,-2920,-2,-1,-3,1
59157,-409,-7445,-2929,-2,-1,-3,1
59162,-418,-7445,-2932,-2,-1,-3,1
59167,-430,-7445,-2926,-2,0,-3,1
59172,-438,-7447,-2925,-2,0,-3,1
59177,-446,-7449,-2919,-2,0,-3,1
59182,-453,-7449,-2912,-2,0,-2,1
59187,-456,-7449,-2906,-2,1,-2,1
59192,-457,-7446,-2908,-2,1,-2,1
59197,-456,-7442,-2915,-2,1,-2,1
59202,-453,-7441,-2923,-2,1,-2,1
59207,-448,-7441,-2933,-2,1,-2,1
59212,-440,-7444,-2935,-2,1,-2,1
59217,-425,-7446,-2935,-2,1,-2,1
59222,-412,-7443,-2928,-2,1,-2,1
59227,-403,-7440,-2916,-2,1,-2,1
59232,-401,-7440,-2906,-2,1,-3,1
59237,-400,-7441,-2893,-2,1,-3,1
59242,-402,-7444,-2886,-2,1,-2,1
59247,-402,-7446,-2881,-2,1,-2,1
59252,-400,-7445,-2881,-2,1,-2,1
59257,-395,-7447,-2884,-2,1,-2,1
59262,-389,-7447,-2893,-2,0,-2,1
59267,-381,-7449,-2900,-2,0,-2,1
59271,-374,-7450,-2904,-2,0,-2,1
59277,-370,-7453,-2903,-2,0,-2,1
59281,-369,-7456,-2901,-2,0,-2,1
59287,-374,-7456,-2901,-2,-1,-2,1
59292,-382,-7458,-2901,-2,-1,-2,1
59297,-385,-7459,-2895,-2,0,-2,1
59302,-388,-7457,-2897,-2,-1,-2,1
59306,-394,-7453,-2904,-2,-1,-2,1
59311,-400,-7453,-2915,-2,-1,-2,1
59317,-401,-7447,-2925,-2,-1,-2,1
59321,-405,-7447,-2931,-2,-1,-2,1
59326,-411,-7446,-2934,-2,-1,-2,1
59332,-418,-7445,-2935,-2,0,-2,1
59336,-426,-7444,-2930,-2,0,-2,1
59341,-431,-7443,-2928,-2,0,-2,1
59346,-428,-7445,-2919,-2,1,-2,1
59351,-426,-7453,-2910,-2,0,-2,1
59356,-426,-7452,-2902,-2,1,-2,1
59361,-415,-7452,-2884,-2,1,-2,1
59366,-402,-7451,-2868,-2,2,-2,1
59371,-390,-7449,-2864,-2,1,-2,1
59376,-382,-7451,-2859,-2,1,-2,1
59381,-375,-7451,-2865,-2,1,-2,1
59386,-366,-7451,-2864,-2,0,-2,1
59391,-360,-7452,-2869,-2,0,-2,1
59396,-356,-7451,-2876,-2,0,-2,1
59401,-357,-7448,-2875,-2,0,-2,1
59406,-357,-7447,-2869,-2,0,-2,1
59411,-357,-7446,-2854,-2,0,-2,1
59416,-355,-7447,-2842,-2,0,-2,1
59421,-352,-7449,-2835,-2,0,-2,1
59426,-353,-7450,-2827,-2,0,-2,1
59431,-359,-7447,-2829,-2,-1,-2,1
59436,-366,-7446,-2836,-2,-1,-2,1
59441,-380,-7448,-2850,-2,-1,-2,1
59446,-394,-7449,-2865,-2,-1,-2,1
59451,-403,-7448,-2875,-2,0,-2,1
59456,-405,-7446,-2885,-2,0,-2,1
59461,-407,-7446,-2884,-2,0,-2,1
59466,-412,-7445,-2879,-2,0,-2,1
59471,-416,-7447,-2878,-2,-1,-2,1
59476,-418,-7446,-2879,-2,0,-2,1
59481,-418,-7443,-2877,-2,0,-2,1
59486,-421,-7444,-2873,-2,0,-2,1
59491,-420,-7446,-2868,-2,0,-2,1
59496,-420,-7449,-2869,-2,0,-2,1
59501,-421,-7450,-2869,-2,0,-2,1
59506,-418,-7450,-2871,-2,0,-2,1
59511,-412,-7452,-2874,-2,0,-2,1
59516,-409,-7455,-2885,-2,0,-2,1
59521,-409,-7455,-2900,-2,-1,-2,1
59526,-413,-7454,-2910,-2,-1,-2,1
59531,-420,-7454,-2918,-2,-1,-2,1
59536,-430,-7452,-2927,-2,-1,-2,1
59541,-441,-7453,-2933,-2,-1,-2,1
59546,-452,-7451,-2934,-2,-1,-2,1
59551,-460,-7448,-2931,-2,-1,-2,1
59556,-467,-7447,-2928,-2,0,-2,1
59561,-467,-7446,-2932,-2,0,-2,1
59566,-468,-7450,-2934,-2,1,-2,1
59571,-462,-7450,-2935,-2,1,-2,1
59576,-460,-7451,-2937,-2,1,-2,1
59581,-456,-7447,-2933,-2,1,-2,1
59586,-449,-7446,-2930,-2,1,-2,1
59591,-441,-7447,-2927,-2,1,-2,1
59596,-431,-7447,-2927,-2,1,-2,1
59601,-427,-7447,-2935,-2,1,-2,1
59606,-426,-7446,-2942,-2,1,-2,1
59611,-428,-7444,-2949,-2,0,-2,1
59616,-432,-7445,-2956,-2,0,-2,1
59621,-438,-7445,-2958,-2,0,-2,1
59626,-442,-7443,-2961,-2,0,-2,1
59631,-442,-7444,-2961,-2,0,-2,1
59636,-441,-7443,-2956,-2,0,-2,1
59641,-445,-7441,-2949,-2,0,-2,1
59646,-446,-7442,-2943,-2,0,-2,1
59651,-446,-7444,-2934,-2,0,-2,1
59656,-446,-7446,-2929,-2,0,-2,1
59661,-446,-7446,-2928,-2,0,-2,1
59666,-448,-7447,-2923,-2,0,-2,1
59671,-446,-7447,-2916,-2,0,-2,1
59676,-444,-7447,-2909,-2,0,-2,1
59681,-443,-7447,-2907,-2,0,-2,1
59686,-443,-7447,-2909,-2,0,-2,1
59691,-445,-7448,-2912,-2,0,-2,1
59696,-447,-7449,-2910,-2,0,-2,1
59701,-448,-7451,-2903,-2,1,-2,1
59706,-451,-7448,-2897,-2,1,-2,1
59711,-454,-7445,-2892,-2,1,-2,1
59716,-454,-7444,-2888,-2,1,-2,1
59721,-453,-7446,-2887,-2,1,-2,1
59726,-450,-7449,-2887,-2,1,-2,1
59731,-449,-7450,-2888,-2,1,-2,1
59736,-444,-7450,-2889,-2,2,-2,1
59741,-444,-7446,-2893,-2,2,-2,1
59746,-446,-7444,-2891,-2,1,-2,1
59751,-445,-7446,-2897,-2,1,-2,1
59756,-443,-7447,-2905,-2,1,-2,1
59761,-441,-7448,-2910,-2,1,-2,1
59766,-437,-7447,-2915,-2,1,-2,1
59771,-432,-7446,-2918,-2,1,-2,1
59776,-429,-7447,-2919,-2,1,-2,1
59781,-426,-7446,-2918,-2,1,-2,1
59786,-426,-7447,-2914,-2,1,-2,1
59791,-427,-7447,-2906,-2,0,-2,1
59796,-431,-7448,-2897,-2,0,-2,1
59801,-435,-7446,-2893,-2,0,-2,1
59806,-433,-7447,-2889,-2,1,-2,1
59811,-431,-7444,-2882,-2,1,-2,1
59816,-427,-7441,-2875,-2,2,-2,1
59821,-421,-7439,-2868,-2,2,-2,1
59826,-415,-7438,-2864,-2,1,-2,1
59831,-412,-7439,-2866,-2,1,-2,1
59836,-408,-7437,-2866,-2,1,-2,1
59841,-406,-7438,-2874,-2,1,-2,1
59846,-402,-7439,-2877,-2,1,-2,1
59851,-403,-7439,-2884,-2,1,-2,1
59856,-411,-7441,-2893,-2,1,-2,1
59861,-413,-7439,-2905,-2,1,-2,1
59866,-418,-7439,-2909,-2,1,-2,1
59871,-424,-7442,-2909,-2,1,-2,1
59876,-429,-7444,-2907,-2,1,-2,1
59881,-434,-7445,-2909,-2,1,-2,1
59886,-435,-7444,-2913,-2,1,-2,1
59891,-436,-7446,-2916,-2,1,-2,1
59896,-434,-7448,-2919,-2,1,-2,1
59901,-432,-7448,-2923,-1,1,-2,1
59906,-431,-7450,-2932,-1,1,-2,1
59911,-434,-7449,-2945,-1,1,-2,1
59916,-437,-7448,-2954,-1,1,-2,1
59921,-440,-7448,-2964,-1,1,-2,1
59926,-444,-7446,-2965,-1,1,-2,1
59931,-447,-7446,-2968,-1,1,-2,1
59936,-448,-7445,-2964,-1,1,-2,1
59941,-446,-7445,-2959,-1,1,-2,1
59946,-439,-7445,-2951,-1,1,-2,1
59951,-430,-7449,-2937,-1,1,-2,1
59956,-430,-7449,-2925,-1,1,-2,1
59961,-427,-7446,-2916,-1,1,-2,1
59966,-424,-7448,-2913,-1,1,-2,1
59971,-422,-7450,-2912,-1,1,-2,1
59976,-416,-7450,-2910,-1,1,-2,1
59981,-415,-7450,-2909,-1,2,-2,1
59986,-415,-7451,-2911,-1,2,-2,1
59991,-410,-7452,-2914,-1,2,-2,1
59996,-409,-7452,-2915,-1,2,-2,1
60001,-407,-7452,-2915,-1,1,-2,1
60006,-405,-7450,-2911,-1,1,-2,1
60011,-400,-7449,-2908,-1,1,-2,1
60016,-394,-7451,-2911,-1,1,-2,1
60021,-390,-7450,-2915,-1,1,-2,1
60026,-387,-7450,-2924,-1,1,-2,1
60030,-388,-7453,-2932,-1,1,-2,1
60036,-396,-7450,-2939,-1,1,-2,1
60041,-406,-7451,-2940,-1,1,-2,1
60046,-415,-7451,-2941,-1,1,-2,1
60050,-422,-7452,-2937,-1,2,-2,1
60056,-422,-7455,-2935,-1,2,-2,1
60061,-420,-7457,-2929,-1,2,-2,1
60066,-417,-7457,-2925,-1,2,-2,1
60070,-409,-7456,-2926,-1,2,-2,1
60075,-400,-7450,-2934,-1,2,-2,1
60081,-391,-7450,-2945,-1,2,-2,1
60085,-385,-7452,-2954,-1,2,-2,1
60090,-379,-7451,-2961,-1,2,-2,1
60096,-373,-7454,-2958,-1,2,-2,1
60100,-374,-7457,-2949,-1,2,-2,1
60106,-377,-7457,-2941,-1,2,-2,1
60110,-386,-7458,-2930,-1,2,-2,1
60115,-395,-7459,-2914,-1,2,-2,1
60120,-399,-7458,-2898,-1,2,-2,1
60125,-396,-7456,-2887,-1,2,-2,1
60130,-388,-7455,-2884,-1,3,-2,1
60135,-373,-7452,-2881,-1,3,-2,1
60140,-360,-7454,-2870,-1,3,-2,1
60145,-349,-7455,-2864,-1,3,-2,1
60150,-339,-7457,-2858,-1,3,-2,1
60155,-334,-7459,-2849,-1,3,-2,1
60160,-329,-7459,-2840,-1,2,-2,1
60165,-330,-7458,-2832,-1,2,-2,1
60170,-335,-7458,-2818,-1,2,-2,1
60175,-339,-7460,-2804,-1,2,-2,1
60180,-343,-7460,-2799,-1,2,-2,1
60185,-343,-7456,-2794,-1,2,-2,1
60190,-339,-7456,-2795,-1,2,-2,1
60195,-333,-7456,-2802,-1,2,-2,1
60200,-331,-7455,-2809,-1,2,-2,1
