millis,ax,ay,az,gx,gy,gz,label
24259,-6718,-378,-3830,0,-1,-1,0
24264,-6717,-377,-3829,0,-1,-1,1
24269,-6718,-379,-3829,0,-1,-1,1
24274,-6719,-380,-3828,-1,-1,-1,1
24279,-6719,-382,-3825,-1,0,-1,1
24284,-6718,-385,-3821,-1,-1,-1,1
24289,-6718,-386,-3817,-1,-1,0,1
24294,-6715,-388,-3815,-1,0,0,1
24299,-6710,-389,-3814,-1,-1,-1,1
24304,-6708,-390,-3815,0,-1,-1,1
24309,-6710,-390,-3819,0,-1,-1,1
24314,-6714,-388,-3823,0,-1,0,1
24319,-6718,-390,-3823,0,-1,-1,1
24324,-6718,-387,-3821,0,0,-1,1
24329,-6719,-386,-3815,0,0,-1,1
24334,-6721,-384,-3819,0,-1,-1,1
24339,-6720,-382,-3816,0,0,-1,1
24344,-6717,-380,-3813,0,-1,-1,1
24349,-6717,-380,-3815,0,-1,0,1
24354,-6716,-384,-3818,0,-1,0,1
24359,-6716,-386,-3825,0,-1,-1,1
24364,-6718,-386,-3827,0,-1,-1,1
24369,-6719,-387,-3824,0,-1,-1,1
24374,-6719,-386,-3821,0,0,-1,1
24379,-6721,-384,-3821,0,0,-1,1
24384,-6723,-382,-3822,0,-1,-1,1
24389,-6724,-384,-3820,0,0,-1,1
24394,-6725,-386,-3815,0,-1,-1,1
24399,-6727,-388,-3812,0,-1,-1,1
24404,-6723,-388,-3814,0,-1,-1,1
24409,-6718,-388,-3814,0,-1,-1,1
24414,-6718,-387,-3820,-1,0,-1,1
24419,-6717,-389,-3819,0,0,-1,1
24424,-6717,-392,-3819,0,-1,-1,1
24429,-6717,-391,-3820,0,-1,-1,1
24434,-6716,-390,-3818,0,-1,-1,1
24439,-6719,-389,-3821,0,-1,0,1
24444,-6721,-388,-3818,-1,-1,-1,1
24449,-6722,-389,-3818,0,0,-1,1
24454,-6722,-388,-3817,0,0,-1,1
24459,-6721,-387,-3819,0,0,-1,1
24464,-6717,-387,-3820,0,-1,-1,1
24469,-6719,-385,-3822,0,-1,-1,1
24474,-6716,-383,-3824,0,-1,-1,1
24479,-6714,-383,-3827,0,0,0,1
24484,-6713,-382,-3831,0,-1,-1,1
24489,-6710,-384,-3834,0,0,0,1
24494,-6711,-384,-3838,0,0,0,1
24499,-6712,-384,-3841,-1,-1,-1,1
24504,-6713,-383,-3838,0,-1,-1,1
24509,-6713,-384,-3836,0,-1,-1,1
24514,-6713,-382,-3836,0,-1,0,1
24519,-6714,-379,-3839,0,-1,-1,1
24524,-6716,-379,-3841,0,-1,-1,1
24529,-6716,-378,-3842,0,-1,-1,1
24534,-6717,-383,-3836,0,-1,-1,1
24539,-6714,-385,-3832,0,-1,-1,1
24544,-6713,-384,-3831,0,-1,-1,1
24549,-6713,-381,-3829,0,-1,-1,1
24554,-6712,-381,-3830,0,-1,-1,1
24559,-6712,-381,-3837,0,0,0,1
24564,-6710,-380,-3835,-1,-1,-1,1
24569,-6707,-382,-3833,-1,-1,0,1
24574,-6705,-384,-3828,0,-1,0,1
24579,-6703,-383,-3827,0,-1,0,1
24584,-6705,-382,-3825,0,0,-1,1
24589,-6707,-379,-3830,0,-1,-1,1
24594,-6709,-380,-3832,0,-1,-1,1
24599,-6710,-383,-3831,0,-1,0,1
24604,-6711,-382,-3829,0,-1,-1,1
24609,-6712,-386,-3836,0,-1,-1,1
24614,-6714,-385,-3836,0,-1,-1,1
24619,-6714,-384,-3837,0,-1,-1,1
24624,-6709,-384,-3839,0,-1,-1,1
24629,-6706,-385,-3842,-1,-1,-1,1
24634,-6703,-384,-3840,0,0,-1,1
24639,-6705,-383,-3844,-1,-1,-1,1
24644,-6703,-382,-3845,0,-1,-1,1
24649,-6703,-383,-3846,0,-1,-1,1
24654,-6703,-383,-3843,0,-1,-1,1
24659,-6704,-384,-3845,0,-1,0,1
24664,-6704,-385,-3844,0,-1,0,1
24669,-6704,-387,-3842,0,-1,-1,1
24674,-6705,-388,-3844,0,-1,-1,1
24679,-6706,-389,-3845,0,-1,-1,1
24684,-6703,-389,-3845,0,-1,0,1
24689,-6706,-389,-3843,-1,-1,0,1
24694,-6707,-387,-3843,0,-1,0,1
24699,-6708,-387,-3844,-1,-1,-1,1
24704,-6707,-388,-3840,0,-1,-1,1
24709,-6709,-387,-3839,-1,-1,0,1
24714,-6709,-385,-3838,-1,-1,-1,1
24719,-6711,-385,-3839,0,-1,0,1
24724,-6716,-387,-3836,0,-1,-1,1
24729,-6715,-387,-3838,0,-1,0,1
24734,-6717,-386,-3836,0,-1,0,1
24739,-6718,-383,-3836,-1,0,-1,1
24744,-6719,-383,-3834,-1,0,-1,1
24749,-6716,-380,-3834,-1,-1,-1,1
24754,-6717,-382,-3834,-1,-1,-1,1
24759,-6717,-383,-3827,0,-1,-1,1
24764,-6715,-384,-3829,-1,-1,-1,1
24769,-6714,-388,-3826,-1,-1,0,1
24774,-6715,-390,-3826,-1,0,-1,1
24779,-6715,-385,-3830,0,-1,-1,1
24784,-6715,-383,-3830,0,-1,-1,1
24789,-6715,-384,-3830,0,-1,-1,1
24794,-6717,-384,-3832,0,-1,0,1
24799,-6717,-382,-3832,0,-1,-1,1
24804,-6715,-381,-3832,0,0,-1,1
24809,-6713,-379,-3831,0,-1,-1,1
24814,-6711,-380,-3832,0,-1,0,1
24819,-6717,-379,-3832,0,-1,0,1
24824,-6719,-382,-3830,0,-1,-1,1
24829,-6718,-384,-3831,0,-1,-1,1
24834,-6718,-383,-3833,0,-1,-1,1
24839,-6719,-384,-3835,0,-1,-1,1
24844,-6718,-382,-3835,-1,-1,-1,1
24849,-6721,-381,-3835,-1,0,-1,1
24854,-6720,-379,-3835,-1,0,0,1
24859,-6717,-377,-3836,0,-1,0,1
24864,-6715,-376,-3837,0,-1,0,1
24869,-6714,-378,-3840,-1,-1,-1,1
24874,-6713,-381,-3839,-1,-1,-1,1
24879,-6715,-381,-3838,-1,-1,-1,1
24884,-6717,-382,-3835,0,0,-1,1
24889,-6720,-384,-3838,0,0,0,1
24894,-6723,-385,-3844,0,-1,-1,1
24899,-6725,-386,-3844,-1,-1,-1,1
24904,-6725,-385,-3841,0,0,0,1
24909,-6723,-386,-3841,0,0,-1,1
24914,-6722,-388,-3838,-1,-1,-1,1
24919,-6719,-388,-3834,0,-1,-1,1
24924,-6717,-386,-3833,-1,-1,-1,1
24929,-6719,-383,-3836,0,0,-1,1
24934,-6722,-384,-3836,0,-1,0,1
24939,-6723,-383,-3840,0,-1,0,1
24944,-6722,-383,-3835,-1,-1,-1,1
24949,-6721,-380,-3838,0,-1,-1,1
24954,-6719,-377,-3839,0,-1,0,1
24959,-6717,-378,-3842,0,-1,0,1
24964,-6715,-381,-3845,0,0,-1,1
24969,-6716,-378,-3846,0,0,-1,1
24974,-6716,-378,-3845,0,0,-1,1
24979,-6717,-379,-3846,0,0,-1,1
24984,-6715,-380,-3847,0,0,-1,1
24989,-6716,-381,-3844,0,0,-1,1
24994,-6716,-379,-3847,0,-1,-1,1
24999,-6716,-380,-3848,0,0,-1,1
25004,-6718,-377,-3847,0,-1,0,1
25009,-6724,-377,-3843,0,-1,0,1
25014,-6724,-378,-3840,0,-1,0,1
25019,-6725,-376,-3838,0,-1,-1,1
25024,-6727,-378,-3833,0,-1,0,1
25029,-6724,-377,-3831,0,-1,0,1
25034,-6722,-376,-3831,-1,0,0,1
25039,-6722,-377,-3829,-1,0,0,1
25044,-6721,-378,-3828,-1,-1,-1,1
25049,-6719,-379,-3832,0,-1,-1,1
25054,-6717,-379,-3833,-1,0,0,1
25059,-6719,-380,-3833,-1,-1,-1,1
25064,-6721,-382,-3836,-1,-1,0,1
25069,-6719,-381,-3836,-1,-1,-1,1
25074,-6720,-381,-3836,-1,0,-1,1
25079,-6721,-380,-3839,0,-1,0,1
25084,-6722,-384,-3839,0,-1,0,1
25089,-6722,-382,-3843,0,-1,0,1
25094,-6721,-382,-3841,-1,-1,-1,1
25099,-6720,-382,-3841,-1,-1,0,1
25104,-6721,-383,-3840,-1,-1,0,1
25109,-6719,-384,-3837,0,0,0,1
25114,-6718,-385,-3831,0,0,0,1
25119,-6718,-385,-3824,-1,-1,0,1
25124,-6718,-387,-3824,0,-1,-1,1
25129,-6718,-388,-3826,-1,-1,-1,1
25134,-6718,-390,-3831,0,-1,0,1
25139,-6719,-389,-3832,-1,-1,-1,1
25144,-6719,-390,-3830,-1,-1,-1,1
25149,-6718,-391,-3823,-1,-1,-1,1
25154,-6718,-393,-3823,0,-1,-1,1
25159,-6719,-392,-3826,0,-1,-1,1
25164,-6721,-390,-3834,0,-1,-1,1
25169,-6717,-388,-3833,0,0,-1,1
25174,-6713,-388,-3833,0,-1,0,1
25179,-6710,-389,-3837,0,0,-1,1
25184,-6710,-389,-3840,0,0,-1,1
25189,-6713,-390,-3843,0,-1,0,1
25194,-6713,-392,-3842,-1,-1,-1,1
25199,-6715,-391,-3840,0,-1,-1,1
25204,-6714,-387,-3843,0,0,-1,1
25209,-6713,-385,-3843,0,-1,-1,1
25214,-6709,-383,-3847,-1,-1,0,1
25219,-6707,-382,-3846,0,-1,-1,1
25224,-6708,-381,-3842,-1,-1,0,1
25229,-6712,-383,-3840,-1,-1,-1,1
25234,-6713,-385,-3829,0,-1,0,1
25239,-6713,-386,-3827,0,-1,0,1
25244,-6712,-388,-3826,0,-1,-1,1
25249,-6710,-387,-3827,-1,0,-1,1
25254,-6710,-385,-3828,-1,0,-1,1
25259,-6712,-381,-3833,-1,0,-1,1
25264,-6713,-380,-3832,0,-1,-1,1
25269,-6712,-377,-3836,0,-1,-1,1
25274,-6712,-376,-3835,0,-1,-1,1
25279,-6714,-379,-3836,0,-1,-1,1
25284,-6717,-381,-3831,0,-1,-1,1
25289,-6717,-381,-3836,0,-1,-1,1
25294,-6717,-383,-3841,-1,0,0,1
25299,-6716,-385,-3838,0,-1,0,1
25304,-6714,-384,-3835,0,-1,-1,1
25309,-6713,-384,-3836,0,-1,-1,1
25314,-6715,-383,-3834,0,-1,0,1
25319,-6713,-384,-3832,0,0,-1,1
25324,-6712,-386,-3830,0,0,-1,1
25329,-6712,-390,-3831,-1,-1,-1,1
25334,-6713,-390,-3829,0,-1,-1,1
25339,-6714,-389,-3828,0,-1,-1,1
25344,-6711,-386,-3829,-1,-1,-1,1
25349,-6710,-385,-3832,0,-1,-1,1
25354,-6709,-384,-3838,0,-1,-1,1
25359,-6711,-384,-3838,0,-1,-1,1
25364,-6710,-387,-3829,0,0,-1,1
25368,-6712,-384,-3827,0,0,0,1
25374,-6714,-383,-3827,0,-1,-1,1
25379,-6714,-384,-3825,0,-1,0,1
25384,-6714,-382,-3823,0,0,0,1
25389,-6713,-383,-3819,0,0,0,1
25394,-6710,-384,-3821,0,0,-1,1
25399,-6712,-384,-3826,-1,0,-1,1
25404,-6714,-383,-3831,0,0,-1,1
25409,-6716,-382,-3828,-1,-1,-1,1
25414,-6716,-381,-3828,0,-1,-1,1
25419,-6716,-379,-3831,0,0,-1,1
25424,-6716,-378,-3829,0,0,-1,1
25429,-6714,-376,-3831,0,-1,-1,1
25434,-6715,-378,-3830,0,0,0,1
25439,-6713,-379,-3828,0,0,-1,1
25444,-6715,-380,-3826,0,0,0,1
25449,-6719,-380,-3824,0,-1,0,1
25454,-6720,-380,-3829,0,-1,0,1
25459,-6723,-381,-3833,-1,-1,-1,1
25464,-6725,-381,-3835,0,-1,-1,1
25469,-6725,-379,-3834,0,-1,-1,1
25474,-6724,-380,-3832,0,-1,-1,1
25479,-6722,-380,-3831,0,0,-1,1
25484,-6723,-379,-3830,0,0,-1,1
25489,-6723,-380,-3835,0,-1,-1,1
25494,-6719,-381,-3835,-1,-1,-1,1
25498,-6717,-381,-3836,-1,-1,-1,1
25504,-6718,-380,-3836,-1,-1,-1,1
25509,-6716,-379,-3835,0,-1,-1,1
25514,-6716,-380,-3833,0,-1,-1,1
25519,-6716,-381,-3835,0,-1,-1,1
25523,-6716,-385,-3832,0,-1,-1,1
25528,-6719,-386,-3829,-1,-1,0,1
25534,-6720,-386,-3833,0,0,0,1
25539,-6721,-382,-3834,0,-1,0,1
25543,-6721,-379,-3835,0,-1,-1,1
25549,-6720,-376,-3836,0,-1,0,1
25553,-6720,-378,-3836,0,-1,-1,1
25559,-6722,-379,-3835,0,-1,0,1
25563,-6724,-378,-3834,0,-1,-1,1
25568,-6725,-377,-3832,0,-1,-1,1
25574,-6723,-378,-3829,0,-1,-1,1
25578,-6722,-382,-3827,0,-1,-1,1
25583,-6721,-380,-3825,0,0,0,1
25589,-6721,-381,-3831,0,-1,0,1
25593,-6717,-381,-3834,0,-1,0,1
25598,-6718,-384,-3835,0,0,0,1
25603,-6718,-384,-3839,0,-1,-1,1
25608,-6719,-384,-3839,-1,-1,-1,1
25613,-6717,-381,-3838,0,-1,-1,1
25619,-6717,-380,-3840,-1,0,0,1
25623,-6715,-378,-3846,-1,0,0,1
25628,-6715,-378,-3847,-1,0,-1,1
25633,-6715,-379,-3848,-1,0,-1,1
25638,-6717,-377,-3850,-1,0,-1,1
25643,-6717,-375,-3847,0,-1,0,1
25648,-6712,-376,-3847,-1,-1,-1,1
25653,-6711,-379,-3850,-1,-1,0,1
25658,-6712,-378,-3847,0,0,-1,1
25663,-6712,-378,-3844,0,0,-1,1
25668,-6715,-382,-3839,0,0,0,1
25674,-6718,-383,-3835,0,0,0,1
25678,-6719,-383,-3837,0,0,-1,1
25683,-6721,-381,-3834,0,0,0,1
25688,-6722,-383,-3829,0,-1,0,1
25694,-6723,-385,-3826,0,0,0,1
25698,-6723,-390,-3829,0,-1,-1,1
25703,-6720,-388,-3831,0,0,-1,1
25708,-6719,-385,-3829,0,-1,-1,1
25713,-6717,-384,-3828,0,-1,0,1
25718,-6718,-381,-3828,0,-1,0,1
25723,-6718,-383,-3828,0,-1,-1,1
25728,-6720,-383,-3831,0,-1,-1,1
25733,-6720,-383,-3831,0,-1,0,1
25738,-6721,-383,-3833,0,-1,0,1
25743,-6719,-382,-3834,0,-1,-1,1
25748,-6719,-381,-3837,0,0,0,1
25753,-6718,-382,-3843,-1,0,0,1
25758,-6720,-388,-3843,0,0,0,1
25763,-6721,-384,-3839,0,0,0,1
25768,-6721,-383,-3836,0,0,-1,1
25773,-6720,-384,-3835,0,-1,-1,1
25778,-6715,-385,-3832,0,-1,-1,1
25783,-6716,-385,-3831,0,0,-1,1
25788,-6716,-386,-3830,0,0,0,1
25793,-6715,-388,-3829,0,-1,0,1
25798,-6714,-388,-3831,0,-1,0,1
25803,-6714,-388,-3834,-1,-1,0,1
25808,-6714,-387,-3830,-1,0,0,1
25813,-6715,-386,-3828,0,0,-1,1
25818,-6715,-386,-3830,0,0,-1,1
25823,-6720,-384,-3832,0,-1,-1,1
25828,-6717,-386,-3827,0,0,-1,1
25833,-6719,-389,-3826,0,0,0,1
25838,-6717,-390,-3829,-1,-1,0,1
25843,-6717,-388,-3832,0,-1,-1,1
25848,-6716,-390,-3834,0,0,-1,1
25853,-6715,-392,-3835,0,0,-1,1
25858,-6715,-393,-3832,0,0,-1,1
25863,-6713,-391,-3827,0,0,-1,1
25868,-6713,-391,-3823,0,0,-1,1
25873,-6714,-389,-3825,-1,-1,0,1
25878,-6716,-387,-3824,-1,0,0,1
25883,-6718,-388,-3823,0,-1,-1,1
25888,-6720,-387,-3827,0,-1,-1,1
25893,-6721,-385,-3828,0,-1,0,1
25898,-6724,-383,-3828,0,-1,0,1
25903,-6722,-384,-3825,-1,0,-1,1
25908,-6721,-383,-3825,-1,-1,-1,1
25913,-6719,-381,-3823,0,0,-1,1
25918,-6718,-379,-3823,-1,-1,-1,1
25923,-6716,-379,-3832,0,-1,0,1
25928,-6718,-380,-3833,-1,-1,-1,1
25933,-6717,-379,-3832,0,-1,0,1
25938,-6717,-380,-3839,0,0,0,1
25943,-6717,-380,-3840,-1,0,-1,1
25948,-6716,-378,-3837,0,-1,-1,1
25953,-6714,-378,-3840,-1,-1,-1,1
25958,-6715,-376,-3839,-1,-1,-1,1
25963,-6715,-376,-3842,0,-1,0,1
25968,-6715,-377,-3840,0,-1,-1,1
25973,-6716,-380,-3841,0,-1,-1,1
25978,-6718,-382,-3835,0,-1,-1,1
25983,-6719,-381,-3829,0,-1,0,1
25988,-6718,-381,-3827,-1,-1,-1,1
25993,-6716,-384,-3825,0,0,-1,1
25998,-6714,-386,-3827,0,0,-1,1
26003,-6713,-387,-3832,0,0,-1,1
26008,-6716,-387,-3834,-1,-1,-1,1
26013,-6718,-388,-3837,-1,0,0,1
26018,-6718,-388,-3839,-1,0,-1,1
26023,-6720,-388,-3840,0,0,-1,1
26028,-6719,-388,-3841,0,0,-1,1
26033,-6719,-390,-3838,0,0,-1,1
26038,-6720,-389,-3835,-1,-1,0,1
26043,-6719,-388,-3834,-1,-1,0,1
26048,-6716,-385,-3831,-1,-1,-1,1
26053,-6711,-386,-3834,0,-1,-1,1
26058,-6709,-384,-3832,0,-1,0,1
26063,-6709,-383,-3831,-1,-1,-1,1
26068,-6706,-383,-3833,0,0,-1,1
26073,-6703,-379,-3832,-1,-1,-1,1
26078,-6703,-381,-3832,0,-1,-1,1
26083,-6703,-380,-3835,-1,-1,0,1
26088,-6704,-380,-3836,0,0,-1,1
26093,-6704,-382,-3836,0,0,-1,1
26098,-6707,-381,-3829,0,-1,0,1
26103,-6709,-382,-3825,0,-1,0,1
26108,-6708,-382,-3829,0,0,0,1
26113,-6708,-379,-3829,0,-1,0,1
26118,-6705,-376,-3832,-1,0,-1,1
26123,-6705,-376,-3831,-1,0,0,1
26128,-6705,-379,-3830,0,0,0,1
26133,-6710,-378,-3833,0,-1,-1,1
26138,-6711,-378,-3832,0,-1,0,1
26143,-6710,-380,-3835,0,0,0,1
26148,-6711,-377,-3831,0,-1,0,1
26153,-6711,-377,-3827,0,-1,0,1
26158,-6715,-378,-3827,0,0,0,1
26163,-6713,-377,-3820,-1,0,-1,1
26168,-6712,-378,-3821,0,-1,-1,1
26173,-6711,-381,-3819,0,-1,0,1
26178,-6707,-385,-3817,0,0,0,1
26183,-6706,-387,-3820,0,-1,-1,1
26188,-6705,-387,-3821,0,0,-1,1
26193,-6707,-385,-3827,0,0,-1,1
26198,-6706,-385,-3831,0,0,0,1
26203,-6707,-385,-3833,0,-1,0,1
26208,-6708,-385,-3835,-1,0,-1,1
26213,-6707,-384,-3835,0,0,0,1
26218,-6709,-384,-3835,0,0,0,1
26223,-6712,-384,-3836,0,-1,0,1
26228,-6714,-386,-3835,-1,0,-1,1
26233,-6714,-385,-3837,-1,0,0,1
26238,-6713,-387,-3835,-1,-1,-1,1
26243,-6712,-389,-3838,-1,-1,0,1
26248,-6712,-384,-3841,0,0,0,1
26253,-6715,-384,-3844,0,0,-1,1
26258,-6718,-382,-3844,-1,0,0,1
26263,-6718,-381,-3844,0,-1,-1,1
26268,-6716,-382,-3847,-1,-1,-1,1
26273,-6714,-383,-3850,-1,0,0,1
26278,-6715,-383,-3851,0,0,-1,1
26283,-6716,-385,-3851,0,0,-1,1
26288,-6716,-386,-3847,0,-1,0,1
26293,-6713,-383,-3847,0,-1,0,1
26298,-6713,-381,-3846,0,-1,-1,1
26303,-6716,-381,-3844,0,-1,-1,1
26308,-6719,-379,-3844,-1,-1,-1,1
26313,-6719,-380,-3841,-1,0,0,1
26318,-6719,-379,-3845,-1,0,-1,1
26323,-6720,-378,-3848,0,0,-1,1
26328,-6718,-377,-3849,0,-1,0,1
26333,-6720,-377,-3846,0,-1,0,1
26338,-6719,-375,-3849,0,-1,-1,1
26343,-6715,-372,-3847,0,-1,0,1
26348,-6713,-371,-3846,0,-1,0,1
26353,-6714,-371,-3844,0,-1,0,1
26358,-6715,-371,-3841,-1,-1,0,1
26363,-6716,-372,-3838,-1,-1,0,1
26368,-6713,-374,-3839,-1,-1,-1,1
26373,-6711,-376,-3838,-1,-1,-1,1
26378,-6709,-379,-3837,0,-1,0,1
26383,-6709,-379,-3840,0,-1,0,1
26388,-6710,-380,-3843,0,-1,0,1
26393,-6712,-377,-3843,0,-1,0,1
26398,-6715,-376,-3847,0,0,-1,1
26403,-6718,-381,-3850,0,0,0,1
26408,-6721,-384,-3850,0,0,0,1
26413,-6718,-386,-3846,-1,-1,-1,1
26418,-6715,-388,-3845,-1,-1,0,1
26423,-6716,-388,-3842,-1,-1,0,1
26428,-6715,-388,-3839,-1,-1,0,1
26433,-6713,-389,-3835,-1,-1,-1,1
26438,-6714,-387,-3837,-1,0,0,1
26443,-6713,-388,-3838,-1,0,0,1
26448,-6712,-387,-3838,0,-1,-1,1
26453,-6714,-387,-3833,-1,-1,0,1
26458,-6714,-388,-3830,-1,-1,0,1
26463,-6712,-385,-3830,0,0,-1,1
26468,-6711,-382,-3829,0,0,-1,1
26473,-6712,-379,-3835,0,-1,-1,1
26478,-6714,-378,-3835,-1,-1,0,1
26483,-6715,-377,-3828,-1,0,-1,1
26488,-6715,-378,-3824,0,0,0,1
26493,-6715,-380,-3824,0,-1,0,1
26498,-6717,-377,-3824,0,0,-1,1
26503,-6717,-376,-3826,-1,0,0,1
26508,-6717,-382,-3825,-1,0,-1,1
26513,-6718,-385,-3825,0,-1,0,1
26518,-6719,-386,-3826,0,-1,-1,1
26523,-6718,-386,-3828,0,-1,-1,1
26528,-6719,-385,-3825,-1,-1,-1,1
26533,-6719,-383,-3831,-1,-1,-1,1
26538,-6716,-380,-3832,-1,-1,-1,1
26543,-6716,-381,-3835,0,-1,0,1
26548,-6716,-385,-3834,0,-1,0,1
26553,-6716,-384,-3835,0,-1,0,1
26558,-6715,-384,-3832,0,0,0,1
26563,-6715,-387,-3830,-1,-1,-1,1
26568,-6715,-387,-3830,0,-1,-1,1
26573,-6715,-383,-3830,0,-1,0,1
26578,-6714,-382,-3832,0,-1,0,1
26583,-6716,-383,-3833,0,-1,-1,1
26588,-6715,-385,-3836,0,-1,-1,1
26593,-6718,-384,-3838,0,-1,-1,1
26598,-6719,-384,-3839,0,-1,-1,1
26603,-6718,-384,-3837,0,-1,-1,1
26608,-6717,-384,-3838,-1,0,-1,1
26613,-6714,-384,-3832,-1,0,-1,1
26618,-6714,-385,-3833,0,-1,0,1
26623,-6715,-386,-3832,0,-1,0,1
26628,-6714,-385,-3828,0,-1,0,1
26633,-6715,-384,-3828,0,-1,-1,1
26638,-6716,-383,-3823,0,-1,-1,1
26643,-6718,-385,-3823,0,-1,0,1
26648,-6719,-389,-3820,0,-1,-1,1
26653,-6722,-389,-3822,0,0,0,1
26658,-6725,-386,-3824,0,0,-1,1
26663,-6726,-385,-3825,0,-1,0,1
26668,-6724,-388,-3823,0,-1,0,1
26673,-6723,-391,-3823,0,0,-1,1
26678,-6724,-394,-3822,-1,-1,-1,1
26683,-6725,-394,-3817,0,-1,-1,1
26688,-6728,-394,-3820,0,-1,-1,1
26693,-6726,-396,-3825,-1,-1,0,1
26698,-6724,-397,-3824,-1,0,-1,1
26703,-6724,-397,-3828,0,-1,-1,1
26708,-6722,-396,-3829,0,-1,-1,1
26713,-6720,-395,-3831,0,-1,-1,1
26718,-6720,-397,-3833,0,0,-1,1
26723,-6719,-393,-3833,0,0,0,1
26728,-6720,-392,-3833,-1,-1,0,1
26733,-6720,-392,-3833,-1,0,0,1
26738,-6723,-390,-3833,0,-1,0,1
26743,-6720,-386,-3831,0,0,0,1
26748,-6719,-385,-3829,-1,-1,-1,1
26753,-6719,-381,-3825,-1,0,-1,1
26758,-6720,-379,-3822,0,-1,-1,1
26763,-6720,-378,-3819,0,-1,-1,1
26768,-6717,-379,-3817,0,-1,-1,1
26773,-6714,-379,-3823,0,0,-1,1
26778,-6714,-378,-3827,0,0,0,1
26783,-6713,-378,-3828,0,-1,0,1
26788,-6714,-377,-3825,0,-1,-1,1
26793,-6714,-379,-3822,-1,-1,-1,1
26798,-6714,-379,-3824,0,-1,0,1
26803,-6711,-381,-3825,-1,-1,0,1
26808,-6708,-379,-3824,-1,-1,0,1
26813,-6709,-379,-3824,0,0,0,1
26818,-6711,-377,-3823,0,0,-1,1
26823,-6714,-379,-3821,0,-1,-1,1
26828,-6715,-381,-3820,-1,-1,0,1
26833,-6716,-382,-3824,0,-1,0,1
26838,-6720,-381,-3828,0,-1,-1,1
26843,-6722,-383,-3831,0,-1,-1,1
26848,-6722,-385,-3833,0,-1,0,1
26853,-6722,-387,-3832,0,-1,0,1
26858,-6721,-390,-3832,0,-1,-1,1
26863,-6721,-390,-3835,0,-1,-1,1
26868,-6719,-390,-3836,0,-1,-1,1
26873,-6720,-389,-3836,0,-1,0,1
26878,-6718,-389,-3837,0,0,0,1
26883,-6717,-387,-3836,-1,-1,0,1
26888,-6717,-386,-3835,0,0,-1,1
26893,-6714,-387,-3832,0,-1,-1,1
26898,-6715,-387,-3835,-1,0,-1,1
26903,-6716,-390,-3833,0,0,-1,1
26908,-6718,-390,-3835,0,0,-1,1
26913,-6719,-388,-3835,-1,-1,-1,1
26918,-6718,-388,-3836,-1,0,-1,1
26923,-6718,-385,-3833,-1,-1,-1,1
26928,-6717,-386,-3832,-1,-1,0,1
26933,-6715,-386,-3836,0,-1,0,1
26938,-6712,-387,-3838,0,-1,-1,1
26943,-6710,-388,-3833,0,-1,0,1
26948,-6708,-386,-3831,0,-1,0,1
26953,-6707,-384,-3830,0,0,-1,1
26958,-6709,-383,-3827,0,-1,-1,1
26963,-6708,-382,-3829,0,0,-1,1
26968,-6711,-384,-3833,0,-1,-1,1
26973,-6716,-382,-3836,0,-1,-1,1
26978,-6718,-381,-3834,0,0,-1,1
26983,-6719,-384,-3835,-1,0,-1,1
26988,-6721,-385,-3839,-1,0,0,1
26993,-6720,-385,-3839,-1,0,-1,1
26998,-6717,-383,-3839,-1,0,-1,1
27003,-6714,-383,-3840,-1,0,0,1
27008,-6714,-381,-3843,-1,0,-1,1
27013,-6717,-385,-3842,0,0,0,1
27018,-6715,-389,-3843,0,0,-1,1
27023,-6715,-393,-3838,0,-1,-1,1
27028,-6715,-394,-3839,0,0,0,1
27033,-6716,-392,-3839,0,-1,0,1
27038,-6719,-391,-3837,0,0,0,1
27043,-6720,-391,-3834,-1,-1,-1,1
27048,-6721,-389,-3831,0,0,-1,1
27053,-6720,-387,-3832,0,0,-1,1
27058,-6719,-382,-3833,0,-1,-1,1
27063,-6717,-379,-3835,0,-1,-1,1
27068,-6715,-380,-3834,0,0,-1,1
27073,-6715,-382,-3836,0,0,-1,1
27078,-6715,-384,-3832,-1,-1,-1,1
27083,-6716,-382,-3833,0,-1,-1,1
27088,-6716,-383,-3833,-1,0,-1,1
27093,-6717,-384,-3835,0,-1,0,1
27098,-6718,-388,-3834,-1,-1,0,1
27103,-6720,-391,-3835,-1,-1,-1,1
27108,-6719,-391,-3833,-1,-1,-1,1
27113,-6719,-390,-3833,-1,0,-1,1
27118,-6717,-387,-3833,-1,0,-1,1
27123,-6715,-384,-3832,-1,-1,-1,1
27128,-6712,-381,-3831,0,-1,-1,1
27133,-6711,-381,-3835,0,0,-1,1
27138,-6710,-385,-3835,0,0,-1,1
27143,-6710,-387,-3830,0,0,-1,1
27148,-6713,-389,-3823,0,-1,-1,1
27153,-6716,-386,-3818,0,-1,-1,1
27158,-6718,-389,-3819,-1,-1,0,1
27163,-6720,-390,-3819,-1,-1,-1,1
27168,-6719,-390,-3820,0,-1,-1,1
27173,-6718,-388,-3822,0,0,-1,1
27178,-6717,-387,-3820,-1,-1,-1,1
27183,-6716,-385,-3824,0,-1,0,1
27188,-6713,-383,-3827,-1,-1,0,1
27193,-6713,-384,-3828,-1,-1,-1,1
27198,-6710,-386,-3832,0,-1,-1,1
27203,-6707,-389,-3835,0,-1,0,1
27208,-6709,-389,-3838,-1,-1,0,1
27213,-6709,-389,-3843,-1,-1,-1,1
27218,-6710,-386,-3845,0,-1,-1,1
27223,-6710,-384,-3846,0,-1,0,1
27228,-6709,-382,-3844,0,0,-1,1
27233,-6710,-383,-3836,0,-1,-1,1
27238,-6712,-384,-3833,-1,-1,-1,1
27243,-6714,-382,-3832,0,0,0,1
27248,-6713,-383,-3831,-1,0,-1,1
27253,-6712,-384,-3828,-1,-1,-1,1
27258,-6710,-379,-3831,-1,0,0,1
27263,-6711,-381,-3833,0,-1,0,1
27268,-6711,-382,-3840,-1,0,-1,1
27273,-6712,-383,-3843,-1,-1,-1,1
27278,-6712,-384,-3844,0,-1,-1,1
27283,-6714,-382,-3838,0,-1,0,1
27288,-6715,-380,-3832,0,0,0,1
27293,-6717,-382,-3831,0,0,0,1
27298,-6712,-382,-3829,0,-1,0,1
27303,-6712,-381,-3827,0,-1,0,1
27308,-6713,-380,-3828,-1,0,0,1
27313,-6713,-379,-3828,0,0,-1,1
27318,-6712,-377,-3827,0,0,0,1
27323,-6711,-375,-3831,-1,-1,-1,1
27328,-6710,-376,-3832,0,-1,-1,1
27333,-6712,-377,-3835,0,0,0,1
27338,-6715,-375,-3832,-1,0,0,1
27343,-6715,-374,-3829,-1,0,0,1
27348,-6713,-374,-3831,0,-1,-1,1
27353,-6712,-379,-3827,-1,-1,0,1
27358,-6713,-382,-3828,-1,-1,0,1
27363,-6713,-384,-3830,-1,-1,-1,1
27368,-6710,-386,-3828,0,-1,-1,1
27373,-6710,-387,-3828,0,-1,0,1
27378,-6711,-389,-3831,0,-1,-1,1
27383,-6709,-390,-3831,0,-1,-1,1
27388,-6712,-393,-3831,-1,0,-1,1
27393,-6712,-391,-3831,-1,-1,-1,1
27398,-6713,-392,-3838,-1,0,-1,1
27403,-6714,-392,-3842,0,-1,0,1
27408,-6718,-390,-3840,0,-1,-1,1
27413,-6721,-391,-3835,0,-1,-1,1
27418,-6720,-390,-3833,-1,-1,-1,1
27423,-6718,-389,-3834,-1,-1,-1,1
27428,-6717,-389,-3834,-1,0,-1,1
27433,-6715,-388,-3833,-1,0,-1,1
27438,-6717,-386,-3832,0,-1,-1,1
27443,-6715,-384,-3828,0,-1,-1,1
27448,-6715,-383,-3824,0,-1,0,1
27453,-6715,-384,-3824,0,-1,-1,1
27458,-6713,-385,-3820,0,0,0,1
27463,-6713,-386,-3817,-1,0,0,1
27468,-6716,-383,-3819,-1,0,0,1
27473,-6716,-382,-3822,0,0,-1,1
27478,-6716,-381,-3820,0,0,0,1
27483,-6714,-381,-3818,0,0,0,1
27488,-6714,-380,-3818,0,-1,-1,1
27493,-6713,-380,-3820,0,-1,-1,1
27498,-6713,-382,-3816,0,0,-1,1
27503,-6712,-382,-3819,0,-1,-1,1
27508,-6711,-383,-3819,-1,-1,0,1
27513,-6713,-382,-3819,0,-1,-1,1
27518,-6716,-382,-3820,-1,-1,-1,1
27523,-6720,-381,-3825,-1,-1,-1,1
27528,-6725,-383,-3827,-1,-1,0,1
27533,-6725,-383,-3824,-1,-1,-1,1
27538,-6723,-386,-3826,0,-1,0,1
27543,-6722,-388,-3830,-1,-1,0,1
27548,-6721,-389,-3830,-1,-1,-1,1
27553,-6721,-389,-3831,-1,-1,-1,1
27558,-6722,-389,-3831,-1,0,0,1
27563,-6717,-391,-3832,-1,-1,0,1
27568,-6714,-391,-3836,0,-1,-1,1
27573,-6714,-387,-3837,0,-1,-1,1
27578,-6715,-384,-3844,0,0,-1,1
27583,-6716,-384,-3844,0,0,-1,1
27588,-6717,-382,-3848,0,-1,-1,1
27593,-6716,-380,-3846,0,0,0,1
27598,-6715,-377,-3844,0,0,0,1
27603,-6715,-377,-3836,0,-1,0,1
27608,-6712,-377,-3829,-1,-1,0,1
27613,-6710,-376,-3828,-1,-1,0,1
27618,-6711,-378,-3827,0,-1,-1,1
27623,-6713,-377,-3825,0,-1,-1,1
27628,-6713,-378,-3828,0,-1,0,1
27633,-6713,-380,-3826,0,-1,-1,1
27638,-6714,-378,-3823,0,0,-1,1
27643,-6716,-377,-3827,0,-1,-1,1
27648,-6715,-377,-3831,0,-1,-1,1
27653,-6714,-377,-3832,-1,-1,0,1
27658,-6714,-377,-3831,-1,0,-1,1
27663,-6713,-379,-3831,0,-1,0,1
27668,-6715,-381,-3833,0,-1,0,1
27673,-6714,-382,-3829,0,-1,-1,1
27678,-6713,-380,-3827,-1,0,-1,1
27683,-6714,-382,-3828,0,0,-1,1
27688,-6713,-388,-3829,-1,0,0,1
27693,-6715,-389,-3833,-1,0,-1,1
27698,-6716,-388,-3831,0,-1,-1,1
27703,-6717,-386,-3834,0,0,-1,1
27708,-6718,-383,-3836,0,0,-1,1
27713,-6719,-381,-3837,0,0,-1,1
27718,-6721,-380,-3840,-1,0,0,1
27723,-6722,-380,-3842,-1,-1,-1,1
27728,-6721,-380,-3845,0,-1,-1,1
27733,-6724,-380,-3846,-1,-1,0,1
27738,-6726,-383,-3846,-1,0,0,1
27743,-6722,-385,-3844,-1,0,-1,1
27748,-6718,-383,-3843,0,-1,-1,1
27753,-6716,-383,-3840,0,-1,-1,1
27758,-6717,-385,-3837,0,-1,-1,1
27763,-6715,-385,-3835,0,-1,-1,1
27768,-6715,-384,-3834,0,-1,-1,1
27773,-6714,-385,-3838,0,0,0,1
27778,-6716,-385,-3840,0,0,-1,1
27783,-6716,-386,-3841,0,-1,-1,1
27788,-6714,-388,-3835,0,0,-1,1
27793,-6712,-388,-3834,0,0,-1,1
27798,-6712,-387,-3834,0,0,0,1
27803,-6711,-385,-3833,0,-1,-1,1
27808,-6711,-386,-3835,0,-1,-1,1
27813,-6711,-388,-3831,0,-1,-1,1
27818,-6713,-389,-3830,0,-1,0,1
27823,-6714,-388,-3830,0,-1,-1,1
27828,-6715,-386,-3833,-1,0,-1,1
27833,-6711,-387,-3834,0,-1,-1,1
27838,-6710,-386,-3836,0,-1,-1,1
27843,-6712,-384,-3840,0,-1,-1,1
27848,-6713,-384,-3839,-1,-1,-1,1
27853,-6713,-383,-3838,-1,-1,-1,1
27858,-6717,-383,-3842,-1,-1,-1,1
27863,-6716,-383,-3841,-1,-1,-1,1
27868,-6715,-383,-3837,-1,0,0,1
27873,-6714,-382,-3835,-1,0,0,1
27878,-6716,-384,-3838,0,0,-1,1
27883,-6718,-385,-3840,0,0,-1,1
27888,-6719,-386,-3838,-1,0,-1,1
27893,-6717,-388,-3841,-1,0,-1,1
27898,-6719,-388,-3840,-1,0,-1,1
27903,-6718,-388,-3843,0,0,-1,1
27908,-6718,-390,-3846,0,-1,-1,1
27913,-6718,-391,-3844,0,0,0,1
27918,-6715,-389,-3840,0,-1,-1,1
27923,-6715,-388,-3840,0,-1,0,1
27928,-6717,-390,-3839,0,-1,0,1
27933,-6717,-391,-3842,0,-1,-1,1
27938,-6719,-393,-3842,0,-1,-1,1
27943,-6720,-392,-3838,-1,0,-1,1
27948,-6723,-389,-3837,0,0,0,1
27953,-6723,-386,-3842,0,-1,-1,1
27958,-6719,-384,-3845,0,-1,-1,1
27963,-6720,-385,-3848,0,-1,0,1
27968,-6720,-386,-3845,0,0,-1,1
27973,-6718,-385,-3844,0,0,0,1
27978,-6718,-385,-3845,0,0,0,1
27983,-6715,-385,-3840,0,0,-1,1
27988,-6712,-385,-3837,-1,-1,0,1
27993,-6712,-386,-3836,-1,-1,0,1
27998,-6711,-385,-3834,0,0,-1,1
28003,-6711,-384,-3840,0,0,-1,1
28008,-6711,-382,-3843,0,-1,-1,1
28013,-6712,-383,-3843,-1,-1,-1,1
28018,-6717,-385,-3845,0,-1,0,1
28023,-6716,-384,-3847,0,-1,-1,1
28028,-6713,-380,-3849,0,-1,0,1
28033,-6712,-379,-3853,-1,-1,-1,1
28038,-6710,-379,-3853,-1,-1,-1,1
28043,-6708,-379,-3851,0,-1,0,1
28048,-6708,-380,-3851,0,-1,-1,1
28053,-6706,-381,-3851,-1,-1,-1,1
28058,-6704,-382,-3847,0,-1,-1,1
28063,-6703,-382,-3842,-1,-1,0,1
28068,-6702,-385,-3841,-1,-1,-1,1
28073,-6705,-386,-3841,-1,-1,0,1
28078,-6709,-388,-3839,0,-1,-1,1
28083,-6712,-390,-3839,0,0,-1,1
28088,-6717,-392,-3838,0,-1,-1,1
28093,-6720,-391,-3843,0,0,-1,1
28098,-6720,-389,-3843,0,0,-1,1
28103,-6723,-389,-3842,-1,-1,0,1
28108,-6724,-390,-3845,-1,-1,-1,1
28113,-6720,-390,-3850,0,-1,0,1
28118,-6719,-388,-3850,-1,-1,-1,1
28123,-6719,-385,-3849,0,-1,0,1
28128,-6717,-386,-3852,0,-1,-1,1
28133,-6714,-388,-3853,0,-1,-1,1
28138,-6716,-389,-3850,0,-1,-1,1
28143,-6716,-388,-3847,0,0,-1,1
28148,-6714,-388,-3844,-1,-1,-1,1
28153,-6716,-387,-3844,0,0,-1,1
28158,-6717,-388,-3842,0,-1,-1,1
28163,-6715,-388,-3838,0,0,-1,1
28168,-6715,-387,-3840,0,-1,-1,1
28173,-6715,-387,-3838,0,-1,0,1
28178,-6717,-383,-3841,-1,0,-1,1
28183,-6715,-383,-3838,0,0,0,1
28188,-6714,-384,-3834,0,0,-1,1
28193,-6711,-384,-3830,0,0,-1,1
28198,-6711,-382,-3832,0,0,0,1
28203,-6715,-384,-3835,0,0,-1,1
28208,-6716,-386,-3833,0,-1,-1,1
28213,-6718,-388,-3832,0,-1,0,1
28218,-6722,-389,-3830,0,-1,0,1
28223,-6724,-393,-3829,-1,-1,0,1
28228,-6725,-391,-3823,-1,0,0,1
28233,-6721,-388,-3832,-1,0,0,1
28238,-6717,-389,-3831,-1,0,0,1
28243,-6718,-386,-3822,-1,0,0,1
28248,-6719,-385,-3822,-1,0,0,1
28253,-6721,-387,-3825,-1,0,-1,1
28258,-6722,-385,-3827,-1,0,0,1
28263,-6723,-383,-3826,-1,-1,0,1
28268,-6723,-384,-3826,0,0,0,1
28273,-6723,-386,-3829,0,0,0,1
28278,-6722,-383,-3825,0,-1,-1,1
28283,-6720,-382,-3828,-1,-1,0,1
28288,-6717,-385,-3829,0,-1,-1,1
28293,-6717,-385,-3835,0,-1,-1,1
28298,-6721,-383,-3835,0,0,0,1
28303,-6716,-383,-3831,0,0,0,1
28308,-6715,-382,-3827,0,0,0,1
28313,-6718,-381,-3830,0,-1,0,1
28318,-6717,-382,-3831,0,-1,0,1
28323,-6718,-383,-3830,0,-1,-1,1
28328,-6716,-384,-3824,0,-1,-1,1
28333,-6718,-386,-3819,0,0,0,1
28338,-6716,-384,-3817,0,0,-1,1
28343,-6716,-383,-3820,0,0,0,1
28348,-6716,-384,-3825,-1,-1,0,1
28353,-6713,-381,-3827,-1,-1,0,1
28358,-6711,-381,-3825,0,-1,-1,1
28363,-6711,-382,-3831,-1,-1,0,1
28368,-6709,-383,-3832,-1,-1,-1,1
28373,-6707,-381,-3835,-1,-1,0,1
28378,-6709,-380,-3834,-1,-1,0,1
28383,-6710,-381,-3828,0,-1,0,1
28388,-6709,-384,-3824,0,-1,-1,1
28393,-6711,-383,-3826,-1,-1,-1,1
28398,-6713,-383,-3830,-1,0,-1,1
28403,-6716,-384,-3834,0,0,0,1
28408,-6716,-384,-3833,-1,-1,0,1
28413,-6718,-384,-3835,-1,0,0,1
28418,-6717,-382,-3836,0,-1,0,1
28423,-6717,-381,-3832,0,-1,0,1
28428,-6717,-381,-3829,0,-1,0,1
28433,-6715,-383,-3827,0,-1,0,1
28438,-6712,-385,-3823,-1,-1,-1,1
28443,-6714,-387,-3822,-1,-1,0,1
28448,-6715,-383,-3821,0,-1,-1,1
28453,-6715,-382,-3819,0,-1,-1,1
28458,-6714,-384,-3823,-1,-1,-1,1
28463,-6714,-383,-3823,0,-1,0,1
28468,-6714,-383,-3825,0,-1,-1,1
28473,-6713,-381,-3825,0,-1,-1,1
28478,-6711,-381,-3826,0,-1,0,1
28483,-6711,-382,-3828,0,0,-1,1
28488,-6711,-380,-3827,-1,-1,-1,1
28493,-6711,-381,-3822,-1,-1,0,1
28498,-6712,-384,-3819,-1,-1,-1,1
28503,-6711,-384,-3818,0,-1,-1,1
28508,-6713,-384,-3823,0,-1,0,1
28513,-6712,-384,-3824,-1,0,0,1
28518,-6715,-381,-3822,0,0,0,1
28523,-6717,-381,-3822,0,0,0,1
28528,-6715,-381,-3827,0,-1,0,1
28533,-6714,-384,-3829,-1,-1,-1,1
28538,-6713,-382,-3831,-1,-1,0,1
28543,-6714,-381,-3828,0,0,-1,1
28548,-6714,-381,-3828,-1,-1,-1,1
28553,-6714,-380,-3830,-1,-1,-1,1
28558,-6717,-377,-3833,-1,-1,0,1
28563,-6717,-379,-3835,-1,-1,0,1
28568,-6717,-380,-3837,0,0,-1,1
28573,-6717,-379,-3840,-1,-1,-1,1
28578,-6717,-378,-3839,0,0,-1,1
28583,-6717,-377,-3837,0,-1,-1,1
28588,-6720,-377,-3837,0,-1,-1,1
28593,-6723,-377,-3838,-1,-1,-1,1
28598,-6721,-380,-3838,0,0,0,1
28603,-6722,-381,-3843,-1,0,0,1
28608,-6722,-382,-3838,-1,0,0,1
28613,-6717,-379,-3835,-1,0,-1,1
28618,-6715,-379,-3832,0,-1,-1,1
28623,-6716,-383,-3834,0,-1,-1,1
28628,-6717,-387,-3832,0,-1,-1,1
28633,-6715,-390,-3835,0,-1,0,1
28638,-6716,-393,-3834,0,-1,0,1
28643,-6717,-395,-3837,0,-1,-1,1
28648,-6717,-393,-3836,-1,0,-1,1
28653,-6717,-393,-3833,0,0,-1,1
28658,-6716,-390,-3832,0,0,-1,1
28663,-6718,-389,-3832,0,0,-1,1
28668,-6717,-390,-3829,0,-1,0,1
28673,-6718,-385,-3830,-1,0,0,1
28678,-6716,-381,-3830,-1,-1,0,1
28683,-6714,-382,-3830,-1,-1,-1,1
28688,-6716,-385,-3830,-1,-1,0,1
28693,-6714,-387,-3834,0,-1,0,1
28698,-6710,-387,-3836,0,-1,-1,1
28703,-6710,-387,-3838,0,-1,0,1
28707,-6710,-389,-3836,0,-1,-1,1
28712,-6710,-389,-3835,0,-1,0,1
28718,-6713,-390,-3836,-1,-1,-1,1
28723,-6710,-391,-3834,0,0,0,1
28728,-6711,-391,-3834,0,0,0,1
28733,-6712,-390,-3829,0,0,0,1
28737,-6711,-389,-3826,0,0,-1,1
28742,-6708,-388,-3825,0,0,-1,1
28748,-6708,-387,-3827,0,0,0,1
28753,-6705,-388,-3829,0,0,-1,1
28758,-6703,-387,-3830,0,0,0,1
28763,-6703,-387,-3829,0,0,0,1
28767,-6705,-387,-3828,0,0,-1,1
28773,-6710,-388,-3825,-1,-1,0,1
28778,-6713,-388,-3825,-1,-1,-1,1
28783,-6713,-386,-3828,0,-1,0,1
28787,-6713,-386,-3835,0,0,-1,1
28792,-6717,-387,-3834,-1,-1,-1,1
28798,-6717,-388,-3832,0,-1,-1,1
28803,-6719,-388,-3834,0,-1,0,1
28808,-6716,-388,-3834,0,-1,0,1
28813,-6716,-388,-3834,0,-1,-1,1
28818,-6714,-386,-3831,0,-1,-1,1
28823,-6711,-384,-3831,-1,-1,0,1
28827,-6710,-383,-3831,0,-1,0,1
28832,-6709,-382,-3831,0,-1,-1,1
28838,-6710,-385,-3829,-1,0,-1,1
28843,-6711,-387,-3826,-1,0,0,1
28848,-6709,-388,-3825,-1,0,0,1
28853,-6711,-386,-3824,-1,0,-1,1
28858,-6711,-388,-3824,0,0,0,1
28863,-6707,-389,-3823,-1,0,0,1
28867,-6705,-389,-3824,-1,0,-1,1
28873,-6706,-389,-3825,-1,0,-1,1
28878,-6706,-387,-3832,0,0,0,1
28883,-6706,-389,-3832,0,0,0,1
28888,-6710,-393,-3836,-1,-1,-1,1
28892,-6712,-392,-3834,0,-1,-1,1
28897,-6711,-391,-3833,0,-1,-1,1
28902,-6715,-387,-3832,0,-1,-1,1
28907,-6717,-387,-3832,0,-1,-1,1
28913,-6715,-389,-3832,0,-1,-1,1
28917,-6716,-387,-3831,0,0,-1,1
28922,-6715,-386,-3833,-1,-1,-1,1
28927,-6714,-385,-3837,-1,-1,0,1
28932,-6710,-382,-3838,-1,-1,-1,1
28937,-6708,-381,-3837,-1,-1,-1,1
28942,-6711,-380,-3837,-1,-1,-1,1
28948,-6712,-380,-3841,0,-1,0,1
28953,-6710,-380,-3846,0,0,-1,1
28957,-6712,-382,-3841,0,0,0,1
28963,-6713,-385,-3840,0,0,-1,1
28967,-6713,-386,-3845,0,-1,-1,1
28972,-6715,-387,-3841,-1,-1,-1,1
28977,-6716,-385,-3840,0,-1,0,1
28983,-6717,-388,-3835,0,-1,-1,1
28987,-6718,-389,-3835,0,-1,-1,1
28992,-6717,-389,-3834,0,-1,0,1
28998,-6716,-389,-3831,-1,-1,-1,1
29002,-6717,-386,-3830,-1,-1,0,1
29007,-6714,-388,-3832,0,-1,-1,1
29012,-6712,-391,-3833,0,0,-1,1
29017,-6714,-389,-3836,0,0,-1,1
29022,-6715,-385,-3836,0,0,-1,1
29027,-6714,-385,-3836,0,-1,0,1
29032,-6716,-386,-3834,0,-1,-1,1
29037,-6715,-384,-3832,0,-1,-1,1
29042,-6717,-383,-3833,0,-1,0,1
29047,-6720,-385,-3837,0,-1,-1,1
29052,-6720,-384,-3830,0,-1,0,1
29057,-6720,-385,-3827,0,-1,-1,1
29062,-6720,-382,-3827,0,-1,0,1
29067,-6720,-382,-3827,0,-1,-1,1
29072,-6722,-385,-3826,0,0,-1,1
29077,-6720,-385,-3828,-1,0,0,1
29082,-6720,-384,-3825,0,0,-1,1
29087,-6718,-386,-3826,0,0,0,1
29092,-6718,-385,-3825,0,0,-1,1
29097,-6715,-387,-3828,0,0,0,1
29102,-6715,-386,-3832,0,0,-1,1
29107,-6715,-386,-3834,-1,-1,0,1
29112,-6715,-384,-3830,0,-1,-1,1
29117,-6717,-385,-3826,0,-1,0,1
29122,-6715,-384,-3825,-1,-1,0,1
29127,-6713,-387,-3822,0,-1,0,1
29132,-6710,-387,-3822,0,-1,-1,1
29137,-6713,-387,-3822,0,0,-1,1
29142,-6715,-389,-3818,0,-1,-1,1
29147,-6717,-390,-3815,0,-1,-1,1
29152,-6719,-389,-3811,0,-1,-1,1
29157,-6721,-389,-3809,0,-1,-1,1
29162,-6725,-387,-3815,0,-1,0,1
29167,-6727,-386,-3816,-1,-1,-1,1
29172,-6727,-385,-3813,-1,-1,-1,1
29177,-6726,-381,-3815,-1,-1,0,1
29182,-6726,-380,-3815,-1,-1,0,1
29187,-6728,-380,-3814,-1,-1,-1,1
29192,-6727,-383,-3822,-1,0,-1,1
29197,-6727,-384,-3826,0,0,-1,1
29202,-6724,-386,-3827,0,0,-1,1
29207,-6725,-387,-3829,-1,0,-1,1
29212,-6726,-387,-3832,-1,0,-1,1
29217,-6728,-388,-3833,-1,0,-1,1
29222,-6729,-386,-3838,-1,-1,0,1
29227,-6727,-388,-3836,-1,-1,-1,1
29232,-6725,-389,-3835,0,0,0,1
29237,-6722,-389,-3836,0,-1,0,1
29242,-6719,-389,-3836,0,-1,-1,1
29247,-6717,-387,-3838,-1,-1,0,1
29252,-6717,-385,-3839,-1,0,-1,1
29257,-6715,-382,-3835,0,-1,-1,1
29262,-6711,-382,-3833,0,0,-1,1
29267,-6712,-380,-3836,0,0,0,1
29272,-6714,-378,-3834,-1,0,0,1
29277,-6714,-376,-3841,0,0,0,1
29282,-6714,-374,-3841,0,-1,0,1
29287,-6713,-374,-3838,0,-1,-1,1
29292,-6714,-373,-3836,0,0,-1,1
29297,-6716,-374,-3841,0,0,-1,1
29302,-6717,-378,-3839,0,0,0,1
29307,-6716,-381,-3835,0,0,0,1
29312,-6713,-382,-3833,-1,-1,0,1
29317,-6712,-384,-3830,-1,-1,-1,1
29322,-6712,-385,-3827,-1,0,0,1
29327,-6715,-389,-3827,-1,-1,-1,1
29332,-6715,-387,-3825,-1,-1,0,1
29337,-6714,-388,-3827,-1,-1,-1,1
29342,-6716,-385,-3827,0,-1,-1,1
29347,-6714,-385,-3830,0,-1,-1,1
29352,-6715,-388,-3831,0,-1,-1,1
29357,-6716,-388,-3834,-1,0,0,1
29362,-6716,-389,-3837,0,0,0,1
29367,-6716,-389,-3833,0,-1,-1,1
29372,-6717,-387,-3831,0,0,0,1
29377,-6716,-388,-3830,0,0,-1,1
29382,-6712,-387,-3834,-1,-1,-1,1
29387,-6713,-388,-3835,-1,-1,0,1
29392,-6714,-386,-3836,-1,-1,0,1
29397,-6716,-385,-3839,0,0,0,1
29402,-6717,-381,-3836,0,-1,-1,1
29407,-6718,-381,-3835,0,-1,0,1
29412,-6718,-381,-3835,0,-1,0,1
29417,-6717,-381,-3836,0,-1,-1,1
29422,-6717,-378,-3836,0,-1,-1,1
29427,-6714,-379,-3837,-1,0,0,1
29432,-6713,-381,-3837,-1,0,-1,1
29437,-6711,-381,-3835,0,-1,-1,1
29442,-6712,-380,-3830,-1,0,-1,1
29447,-6712,-384,-3825,0,-1,-1,1
29452,-6713,-384,-3828,0,-1,0,1
29457,-6713,-382,-3826,-1,-1,0,1
29462,-6714,-381,-3825,-1,-1,-1,1
29467,-6714,-384,-3824,0,-1,-1,1
29472,-6714,-382,-3826,0,0,-1,1
29477,-6717,-382,-3829,-1,0,-1,1
29482,-6716,-384,-3829,-1,-1,0,1
29487,-6714,-385,-3824,-1,0,0,1
29492,-6712,-381,-3822,-1,-1,-1,1
29497,-6710,-381,-3821,-1,0,-1,1
29502,-6713,-381,-3821,-1,0,-1,1
29507,-6714,-380,-3819,-1,-1,-1,1
29512,-6714,-381,-3821,-1,-1,0,1
29517,-6713,-380,-3823,0,-1,0,1
29522,-6714,-379,-3828,0,-1,0,1
29527,-6714,-381,-3827,0,-1,-1,1
29532,-6715,-385,-3823,-1,0,-1,1
29537,-6715,-388,-3825,0,-1,0,1
29542,-6714,-389,-3828,-1,0,0,1
29547,-6715,-388,-3832,-1,-1,-1,1
29552,-6713,-387,-3832,-1,-1,-1,1
29557,-6712,-387,-3836,-1,-1,0,1
29562,-6709,-385,-3840,-1,-1,0,1
29567,-6712,-385,-3842,-1,-1,-1,1
29572,-6711,-384,-3841,-1,-1,-1,1
29577,-6712,-386,-3842,0,-1,-1,1
29582,-6710,-387,-3844,-1,0,-1,1
29587,-6712,-385,-3849,0,0,0,1
29592,-6713,-385,-3849,-1,0,-1,1
29597,-6714,-385,-3845,-1,-1,-1,1
29602,-6712,-388,-3841,0,-1,0,1
29607,-6711,-385,-3839,0,-1,-1,1
29612,-6709,-384,-3842,-1,0,0,1
29617,-6709,-387,-3842,-1,0,0,1
29622,-6709,-385,-3842,-1,0,0,1
29627,-6710,-386,-3848,0,-1,-1,1
29632,-6711,-388,-3855,0,-1,-1,1
29637,-6711,-387,-3857,0,-1,-1,1
29642,-6713,-390,-3856,-1,-1,0,1
29647,-6719,-390,-3856,-1,-1,0,1
29652,-6719,-389,-3855,-1,-1,-1,1
29657,-6719,-387,-3853,0,-1,-1,1
29662,-6715,-388,-3850,-1,-1,-1,1
29667,-6712,-385,-3853,0,-1,0,1
29672,-6711,-381,-3851,-1,-1,0,1
29677,-6710,-378,-3850,0,-1,0,1
29682,-6709,-377,-3850,-1,-1,-1,1
29687,-6708,-378,-3842,-1,0,-1,1
29692,-6709,-381,-3835,0,0,-1,1
29697,-6710,-381,-3833,-1,-1,0,1
29702,-6711,-381,-3831,-1,-1,0,1
29707,-6712,-382,-3831,0,-1,-1,1
29712,-6713,-384,-3830,0,-1,-1,1
29717,-6715,-384,-3831,0,0,0,1
29722,-6716,-384,-3833,-1,0,-1,1
29727,-6715,-385,-3835,-1,-1,-1,1
29732,-6715,-384,-3837,-1,0,0,1
29737,-6716,-383,-3838,-1,-1,-1,1
29742,-6717,-383,-3841,-1,-1,-1,1
29747,-6717,-384,-3847,0,0,-1,1
29752,-6714,-385,-3846,0,0,-1,1
29757,-6716,-387,-3849,0,0,-1,1
29762,-6714,-387,-3843,0,-1,0,1
29767,-6716,-388,-3839,-1,0,-1,1
29772,-6720,-389,-3839,-1,-1,0,1
29777,-6721,-389,-3837,-1,0,-1,1
29782,-6719,-385,-3839,-1,-1,-1,1
29787,-6719,-384,-3838,0,-1,-1,1
29792,-6717,-386,-3841,0,0,-1,1
29797,-6714,-385,-3839,-1,0,0,1
29802,-6713,-384,-3837,-1,0,-1,1
29807,-6713,-384,-3831,-1,-1,-1,1
29812,-6712,-385,-3833,0,-1,-1,1
29817,-6711,-388,-3832,0,-1,0,1
29822,-6708,-390,-3833,0,0,0,1
29827,-6708,-392,-3835,-1,-1,0,1
29832,-6710,-392,-3835,0,-1,-1,1
29837,-6711,-390,-3837,0,0,-1,1
29842,-6711,-388,-3832,-1,-1,-1,1
29847,-6709,-386,-3833,-1,-1,-1,1
29852,-6709,-385,-3835,0,-1,-1,1
29857,-6713,-385,-3834,0,0,0,1
29862,-6716,-386,-3833,-1,-1,-1,1
29867,-6717,-386,-3835,-1,-1,0,1
29872,-6717,-385,-3837,-1,-1,-1,1
29877,-6716,-387,-3835,-1,0,-1,1
29882,-6716,-391,-3839,0,0,0,1
29887,-6714,-391,-3839,0,-1,0,1
29892,-6714,-392,-3835,0,-1,0,1
29897,-6715,-391,-3838,0,-1,-1,1
29902,-6716,-390,-3835,-1,-1,-1,1
29907,-6718,-388,-3831,0,-1,-1,1
29912,-6715,-385,-3832,0,-1,-1,1
29917,-6714,-381,-3834,0,-1,-1,1
29922,-6715,-379,-3838,-1,-1,0,1
29927,-6716,-380,-3841,0,-1,0,1
29932,-6714,-381,-3839,-1,0,-1,1
29937,-6714,-381,-3833,-1,-1,-1,1
29942,-6714,-381,-3833,0,-1,-1,1
29947,-6716,-383,-3830,0,-1,-1,1
29952,-6718,-384,-3829,0,-1,0,1
29957,-6717,-384,-3829,0,-1,-1,1
29962,-6717,-385,-3830,0,-1,-1,1
29967,-6715,-383,-3832,0,-1,-1,1
29972,-6714,-382,-3835,0,-1,0,1
29977,-6712,-380,-3834,0,-1,-1,1
29982,-6712,-380,-3836,-1,-1,-1,1
29987,-6712,-380,-3838,0,-1,0,1
29992,-6712,-380,-3841,-1,-1,-1,1
29997,-6711,-380,-3846,0,-1,-1,1
30002,-6713,-380,-3847,0,-1,0,1
30007,-6715,-380,-3846,0,0,-1,1
30012,-6719,-379,-3848,0,0,-1,1
30017,-6715,-379,-3847,0,0,-1,1
30022,-6716,-375,-3848,0,-1,0,1
30027,-6714,-374,-3845,0,-1,-1,1
30032,-6715,-375,-3840,0,-1,0,1
30037,-6714,-377,-3841,0,-1,0,1
30042,-6715,-381,-3837,0,-1,0,1
30047,-6717,-384,-3841,0,-1,-1,1
30052,-6716,-384,-3844,0,-1,-1,1
30057,-6712,-386,-3844,0,-1,0,1
30062,-6712,-386,-3847,0,-1,-1,1
30067,-6712,-386,-3842,-1,-1,0,1
30072,-6712,-384,-3845,0,-1,0,1
30077,-6713,-384,-3854,0,-1,-1,1
30082,-6715,-383,-3856,0,0,-1,1
30087,-6716,-382,-3854,0,0,0,1
30092,-6718,-381,-3852,0,0,-1,1
30097,-6716,-381,-3849,0,-1,0,1
30102,-6716,-379,-3844,-1,-1,-1,1
30107,-6716,-378,-3839,-1,-1,-1,1
30112,-6716,-377,-3840,0,0,0,1
30117,-6715,-377,-3843,-1,-1,0,1
30122,-6713,-375,-3846,0,0,-1,1
30127,-6710,-375,-3846,0,0,-1,1
30132,-6709,-375,-3843,-1,-1,-1,1
30137,-6710,-376,-3839,0,-1,-1,1
30142,-6714,-377,-3836,-1,-1,-1,1
30147,-6715,-380,-3837,-1,-1,-1,1
30152,-6716,-382,-3842,-1,-1,0,1
30157,-6717,-383,-3845,-1,-1,0,1
30162,-6717,-380,-3843,-1,-1,-1,1
30167,-6719,-378,-3840,-1,-1,0,1
30172,-6719,-377,-3839,-1,0,0,1
30177,-6721,-376,-3836,-1,-1,0,1
30182,-6720,-374,-3835,-1,-1,0,1
30187,-6718,-374,-3830,0,-1,-1,1
30192,-6718,-375,-3828,0,-1,0,1
30197,-6718,-375,-3829,0,0,0,1
30202,-6717,-376,-3833,0,0,-1,1
30207,-6716,-374,-3834,-1,0,-1,1
30212,-6716,-374,-3833,-1,0,0,1
30217,-6715,-376,-3829,0,-1,-1,1
30222,-6715,-378,-3826,0,0,-1,1
30227,-6716,-381,-3822,0,-1,-1,1
30232,-6717,-382,-3826,0,-1,0,1
30237,-6716,-383,-3829,0,0,0,1
30242,-6717,-383,-3830,0,-1,-1,1
30247,-6717,-383,-3831,0,-1,-1,1
30252,-6715,-383,-3837,0,-1,0,1
30257,-6718,-385,-3842,-1,0,-1,1
30262,-6720,-386,-3842,-1,-1,-1,1
30267,-6719,-386,-3848,-1,-1,0,1
30272,-6720,-386,-3853,0,0,-1,1
30277,-6718,-388,-3852,-1,0,0,1
30282,-6717,-388,-3851,-1,-1,0,1
30287,-6720,-385,-3848,-1,0,0,1
30292,-6720,-384,-3846,0,0,0,1
30297,-6720,-383,-3844,0,-1,0,1
30302,-6718,-381,-3842,0,-1,0,1
30307,-6719,-382,-3842,0,-1,-1,1
30312,-6719,-382,-3838,0,0,-1,1
30317,-6716,-382,-3838,0,0,0,1
30322,-6715,-382,-3839,0,-1,0,1
30327,-6716,-385,-3837,0,-1,-1,1
30332,-6717,-387,-3835,0,-1,-1,1
30337,-6719,-387,-3837,0,-1,-1,1
30342,-6720,-387,-3842,0,-1,-1,1
30347,-6720,-386,-3841,-1,-1,-1,1
30352,-6720,-385,-3842,0,0,0,1
30357,-6719,-385,-3841,0,0,0,1
30362,-6719,-385,-3843,0,-1,-1,1
30367,-6719,-384,-3844,0,-1,0,1
30372,-6719,-386,-3842,0,-1,-1,1
30377,-6718,-386,-3839,0,-1,0,1
30382,-6718,-387,-3834,-1,-1,-1,1
30387,-6719,-387,-3826,0,-1,-1,1
30392,-6719,-384,-3831,0,-1,0,1
30397,-6717,-380,-3835,0,-1,-1,1
30402,-6717,-379,-3839,-1,-1,0,1
30407,-6719,-379,-3840,-1,-1,-1,1
30412,-6718,-378,-3840,-1,-1,-1,1
30417,-6719,-378,-3835,-1,-1,0,1
30422,-6720,-380,-3834,-1,-1,0,1
30427,-6722,-380,-3835,0,-1,-1,1
30432,-6723,-380,-3831,0,-1,0,1
30437,-6722,-380,-3829,0,-1,-1,1
30442,-6721,-380,-3827,-1,-1,-1,1
30447,-6721,-384,-3829,0,-1,-1,1
30452,-6721,-382,-3833,0,-1,0,1
30457,-6719,-383,-3832,0,0,-1,1
30462,-6718,-383,-3836,0,-1,0,1
30467,-6716,-384,-3832,0,-1,-1,1
30472,-6717,-387,-3832,0,-1,0,1
30477,-6713,-387,-3830,0,-1,-1,1
30482,-6711,-387,-3835,0,-1,-1,1
30487,-6710,-385,-3834,0,-1,0,1
30492,-6710,-385,-3838,0,-1,-1,1
30497,-6712,-387,-3836,-1,-1,0,1
30502,-6712,-387,-3832,0,0,0,1
30507,-6712,-388,-3836,0,0,-1,1
30512,-6715,-386,-3843,0,-1,-1,1
30517,-6715,-386,-3844,0,-1,0,1
30522,-6716,-387,-3842,0,-1,0,1
30527,-6721,-386,-3838,0,0,-1,1
30532,-6724,-385,-3839,0,0,-1,1
30537,-6725,-388,-3839,0,-1,0,1
30542,-6726,-391,-3839,0,0,-1,1
30547,-6726,-391,-3839,0,0,0,1
30552,-6724,-390,-3836,-1,0,0,1
30557,-6723,-388,-3838,0,0,-1,1
30562,-6723,-385,-3842,0,0,-1,1
30567,-6719,-384,-3840,0,-1,-1,1
30572,-6717,-384,-3842,0,0,-1,1
30577,-6719,-385,-3842,0,0,-1,1
30582,-6718,-385,-3844,0,-1,-1,1
30587,-6716,-389,-3839,0,-1,0,1
30592,-6717,-389,-3840,0,-1,-1,1
30597,-6717,-389,-3838,-1,-1,0,1
30602,-6717,-386,-3838,0,-1,-1,1
30607,-6719,-386,-3842,0,0,0,1
30612,-6718,-385,-3841,0,0,-1,1
30617,-6718,-386,-3833,0,0,-1,1
30622,-6715,-383,-3829,0,-1,-1,1
30627,-6714,-383,-3830,0,-1,-1,1
30632,-6716,-382,-3829,-1,-1,-1,1
30637,-6717,-382,-3829,0,-1,-1,1
30642,-6716,-381,-3829,-1,-1,-1,1
30647,-6718,-381,-3828,0,-1,-1,1
30652,-6721,-384,-3829,0,0,-1,1
30657,-6721,-382,-3832,0,-1,-1,1
30662,-6722,-384,-3836,0,-1,-1,1
30667,-6723,-382,-3836,0,0,0,1
30672,-6721,-380,-3831,0,0,0,1
30677,-6716,-380,-3829,-1,0,-1,1
30682,-6715,-381,-3830,0,-1,0,1
30687,-6715,-381,-3826,-1,0,-1,1
30692,-6715,-382,-3827,-1,0,0,1
30697,-6715,-385,-3826,0,-1,-1,1
30702,-6716,-384,-3828,0,-1,-1,1
30707,-6716,-385,-3828,0,-1,-1,1
30712,-6712,-388,-3828,0,-1,-1,1
30717,-6710,-388,-3825,0,-1,0,1
30722,-6710,-388,-3826,0,-1,-1,1
30727,-6709,-388,-3829,-1,-1,-1,1
30732,-6712,-388,-3832,0,-1,0,1
30737,-6714,-390,-3837,0,-1,-1,1
30742,-6715,-389,-3837,-1,0,-1,1
30747,-6716,-385,-3834,-1,-1,-1,1
30752,-6716,-385,-3832,0,0,-1,1
30757,-6717,-385,-3830,0,0,-1,1
30762,-6715,-384,-3831,-1,-1,-1,1
30767,-6715,-384,-3835,0,-1,0,1
30772,-6713,-383,-3829,-1,-1,0,1
30777,-6711,-384,-3829,0,-1,-1,1
30782,-6712,-382,-3831,0,0,0,1
30787,-6713,-383,-3832,0,-1,0,1
30792,-6714,-383,-3836,0,-1,-1,1
30797,-6715,-384,-3838,0,-1,-1,1
30802,-6716,-384,-3839,0,-1,-1,1
30807,-6715,-385,-3836,0,-1,-1,1
30812,-6711,-385,-3831,0,-1,-1,1
30817,-6709,-383,-3829,-1,-1,-1,1
30822,-6710,-382,-3825,0,-1,-1,1
30827,-6710,-382,-3826,0,-1,0,1
30832,-6710,-382,-3827,0,-1,-1,1
30837,-6711,-384,-3826,-1,-1,-1,1
30842,-6711,-383,-3828,0,-1,-1,1
30847,-6714,-383,-3832,0,-1,-1,1
30852,-6713,-381,-3835,0,-1,-1,1
30857,-6713,-382,-3840,0,-1,-1,1
30862,-6712,-379,-3844,-1,-1,0,1
30867,-6713,-379,-3845,0,-1,0,1
30872,-6711,-380,-3839,0,-1,-1,1
30877,-6710,-382,-3837,0,0,-1,1
30882,-6711,-382,-3840,0,0,0,1
30887,-6710,-384,-3842,0,0,-1,1
30892,-6710,-385,-3839,-1,-1,0,1
30897,-6710,-385,-3832,-1,-1,0,1
30902,-6712,-384,-3828,0,-1,-1,1
30907,-6713,-385,-3824,0,-1,-1,1
30912,-6713,-385,-3825,0,0,-1,1
30917,-6713,-383,-3826,-1,0,-1,1
30922,-6713,-384,-3824,0,0,-1,1
30927,-6715,-385,-3830,-1,0,-1,1
30932,-6713,-384,-3836,-1,0,-1,1
30937,-6713,-381,-3835,-1,-1,0,1
30942,-6714,-381,-3832,-1,-1,-1,1
30947,-6714,-381,-3830,-1,0,-1,1
30952,-6712,-382,-3831,0,0,-1,1
30957,-6712,-386,-3829,-1,-1,-1,1
30962,-6711,-385,-3826,-1,-1,-1,1
30967,-6711,-385,-3824,-1,-1,-1,1
30972,-6709,-387,-3825,0,-1,-1,1
30977,-6711,-387,-3827,0,0,0,1
30982,-6709,-386,-3831,0,0,0,1
30987,-6708,-385,-3831,0,0,0,1
30992,-6707,-388,-3824,-1,-1,-1,1
30997,-6708,-388,-3820,-1,-1,-1,1
31002,-6709,-389,-3822,0,-1,-1,1
31007,-6708,-388,-3825,0,-1,-1,1
31012,-6708,-387,-3825,-1,-1,-1,1
31017,-6710,-388,-3828,0,-1,0,1
31022,-6710,-388,-3823,-1,0,-1,1
31027,-6709,-389,-3826,0,-1,-1,1
31032,-6710,-392,-3829,0,-1,-1,1
31037,-6712,-390,-3831,0,0,-1,1
31042,-6713,-386,-3825,-1,0,-1,1
31047,-6711,-386,-3822,0,0,0,1
31052,-6713,-384,-3823,0,0,-1,1
31057,-6716,-388,-3822,0,0,-1,1
31062,-6715,-388,-3819,0,0,-1,1
31067,-6714,-389,-3816,0,0,-1,1
31072,-6712,-387,-3817,-1,-1,-1,1
31077,-6711,-388,-3818,-1,-1,-1,1
31082,-6710,-387,-3820,0,-1,0,1
31087,-6710,-384,-3820,0,-1,0,1
31092,-6712,-382,-3826,0,-1,-1,1
31097,-6712,-383,-3829,0,0,-1,1
31102,-6715,-381,-3827,0,0,-1,1
31107,-6716,-384,-3824,0,0,0,1
31112,-6715,-384,-3826,0,0,-1,1
31117,-6717,-385,-3829,-1,0,-1,1
31122,-6718,-385,-3828,0,-1,-1,1
31127,-6720,-385,-3827,0,-1,-1,1
31132,-6717,-386,-3829,0,0,-1,1
31137,-6715,-385,-3827,0,0,0,1
31142,-6715,-385,-3829,0,-1,0,1
31147,-6715,-385,-3834,0,0,0,1
31152,-6715,-381,-3835,-1,0,0,1
31157,-6715,-381,-3835,-1,-1,-1,1
31162,-6713,-383,-3839,-1,0,-1,1
31167,-6713,-383,-3837,0,0,-1,1
31172,-6714,-383,-3834,-1,-1,-1,1
31177,-6715,-385,-3837,-1,-1,-1,1
31182,-6717,-387,-3837,0,-1,0,1
31187,-6715,-388,-3839,-1,0,0,1
31192,-6714,-388,-3837,0,0,0,1
31197,-6711,-389,-3831,0,-1,-1,1
31202,-6712,-390,-3823,0,0,-1,1
31207,-6714,-392,-3823,0,0,-1,1
31212,-6716,-392,-3820,0,-1,-1,1
31217,-6715,-391,-3820,0,-1,-1,1
31222,-6714,-391,-3826,0,-1,0,1
31227,-6715,-391,-3827,0,-1,-1,1
31232,-6716,-392,-3825,0,-1,-1,1
31237,-6717,-389,-3825,-1,-1,0,1
31242,-6720,-388,-3822,0,-1,-1,1
31247,-6721,-388,-3820,0,0,-1,1
31252,-6721,-386,-3826,0,0,-1,1
31257,-6720,-387,-3827,0,0,-1,1
31262,-6717,-387,-3830,0,-1,-1,1
31267,-6716,-386,-3835,0,-1,-1,1
31272,-6714,-385,-3836,0,-1,0,1
31277,-6713,-384,-3838,-1,0,-1,1
31282,-6712,-385,-3837,0,-1,-1,1
31287,-6711,-386,-3834,-1,0,0,1
31292,-6709,-386,-3831,-1,-1,-1,1
31297,-6711,-385,-3829,-1,-1,-1,1
31302,-6714,-382,-3827,0,-1,-1,1
31307,-6714,-380,-3825,-1,-1,-1,1
31312,-6712,-380,-3830,-1,-1,-1,1
31317,-6711,-378,-3836,-1,-1,0,1
31322,-6711,-378,-3832,-1,-1,0,1
31327,-6712,-376,-3836,0,0,0,1
31332,-6716,-376,-3836,-1,0,-1,1
31337,-6719,-376,-3835,-1,-1,-1,1
31342,-6719,-376,-3835,-1,-1,-1,1
31347,-6719,-377,-3835,-1,-1,-1,1
31352,-6718,-378,-3842,-1,-1,-1,1
31357,-6719,-380,-3845,0,0,-1,1
31362,-6716,-380,-3840,0,-1,0,1
31367,-6717,-380,-3838,0,0,-1,1
31372,-6714,-380,-3840,-1,0,-1,1
31377,-6713,-377,-3839,0,0,-1,1
31382,-6712,-380,-3837,-1,-1,0,1
31387,-6713,-382,-3837,-1,0,-1,1
31392,-6714,-381,-3834,-1,-1,0,1
31397,-6715,-383,-3834,-1,0,-1,1
31402,-6713,-385,-3833,0,0,-1,1
31407,-6713,-386,-3834,0,0,0,1
31412,-6715,-385,-3826,0,-1,0,1
31417,-6713,-384,-3827,0,-1,-1,1
31422,-6713,-384,-3826,0,-1,-1,1
31427,-6712,-382,-3825,-1,-1,-1,1
31432,-6710,-379,-3825,-1,0,0,1
31437,-6710,-382,-3826,-1,0,0,1
31442,-6709,-382,-3826,-1,-1,0,1
31447,-6707,-382,-3825,0,0,-1,1
31452,-6708,-384,-3828,0,0,0,1
31457,-6710,-384,-3828,0,0,-1,1
31462,-6713,-382,-3829,-1,-1,-1,1
31467,-6716,-380,-3829,0,-1,0,1
31472,-6716,-378,-3827,-1,-1,-1,1
31477,-6715,-376,-3824,-1,-1,0,1
31482,-6713,-377,-3824,0,-1,0,1
31487,-6712,-379,-3828,-1,-1,-1,1
31492,-6716,-380,-3831,-1,0,-1,1
31497,-6716,-382,-3835,0,-1,-1,1
31502,-6718,-382,-3832,0,-1,0,1
31507,-6715,-383,-3831,0,-1,-1,1
31512,-6716,-386,-3833,0,0,-1,1
31517,-6716,-386,-3837,-1,-1,0,1
31522,-6715,-386,-3837,0,0,-1,1
31527,-6717,-386,-3838,-1,-1,-1,1
31532,-6716,-386,-3841,-1,-1,-1,1
31537,-6715,-388,-3838,0,0,-1,1
31542,-6716,-387,-3837,-1,0,-1,1
31547,-6714,-386,-3837,-1,0,0,1
31552,-6712,-386,-3842,-1,-1,0,1
31557,-6712,-386,-3839,0,-1,0,1
31562,-6710,-386,-3837,0,0,0,1
31567,-6707,-385,-3838,0,0,-1,1
31572,-6704,-385,-3838,0,-1,-1,1
31577,-6703,-385,-3839,-1,0,-1,1
31582,-6705,-389,-3839,0,0,-1,1
31587,-6708,-392,-3841,0,-1,-1,1
31592,-6706,-390,-3841,0,-1,0,1
31597,-6706,-391,-3845,0,-1,0,1
31602,-6709,-390,-3846,0,-1,-1,1
31607,-6711,-389,-3842,0,-1,-1,1
31612,-6711,-391,-3844,-1,-1,-1,1
31617,-6712,-391,-3845,-1,0,-1,1
31622,-6712,-388,-3846,-1,0,-1,1
31627,-6710,-386,-3845,-1,0,-1,1
31632,-6713,-385,-3844,0,0,-1,1
31637,-6715,-383,-3838,0,0,-1,1
31641,-6715,-384,-3841,0,-1,-1,1
31647,-6713,-387,-3842,-1,-1,-1,1
31652,-6710,-385,-3839,0,-1,-1,1
31657,-6710,-381,-3841,-1,0,-1,1
31662,-6711,-383,-3844,0,-1,0,1
31667,-6715,-384,-3846,-1,0,-1,1
31672,-6717,-383,-3847,-1,0,-1,1
31677,-6718,-384,-3841,-1,0,0,1
31682,-6715,-386,-3838,-1,-1,-1,1
31686,-6717,-388,-3836,-1,-1,-1,1
31692,-6716,-390,-3837,-1,-1,-1,1
31697,-6718,-388,-3836,0,0,-1,1
31702,-6721,-386,-3838,0,0,0,1
31707,-6723,-384,-3834,0,0,-1,1
31712,-6721,-384,-3837,0,-1,0,1
31717,-6721,-384,-3843,0,0,0,1
31722,-6725,-384,-3844,0,0,-1,1
31727,-6724,-385,-3843,0,-1,0,1
31732,-6723,-384,-3848,0,0,-1,1
31737,-6721,-384,-3848,0,-1,-1,1
31741,-6718,-385,-3843,0,-1,0,1
31747,-6721,-387,-3839,0,0,-1,1
31752,-6719,-387,-3839,0,0,0,1
31756,-6719,-387,-3841,0,-1,0,1
31761,-6717,-385,-3842,0,-1,0,1
31766,-6714,-385,-3839,-1,0,0,1
31772,-6715,-384,-3842,0,-1,0,1
31777,-6717,-384,-3840,0,0,-1,1
31781,-6719,-386,-3838,0,0,-1,1
31786,-6716,-388,-3837,0,-1,-1,1
31791,-6713,-387,-3830,0,0,-1,1
31796,-6709,-386,-3829,0,0,-1,1
31802,-6705,-385,-3824,0,-1,-1,1
31807,-6707,-384,-3824,0,0,0,1
31812,-6707,-384,-3822,0,0,0,1
31816,-6709,-382,-3821,0,-1,0,1
31821,-6712,-383,-3819,0,-1,0,1
31826,-6713,-382,-3823,-1,-1,0,1
31831,-6715,-382,-3825,0,-1,0,1
31837,-6715,-379,-3827,0,-1,-1,1
31841,-6714,-380,-3826,0,-1,-1,1
31847,-6713,-382,-3825,-1,0,-1,1
31852,-6715,-384,-3828,0,-1,0,1
31856,-6715,-386,-3828,-1,0,0,1
31862,-6716,-387,-3827,0,0,-1,1
31867,-6712,-386,-3824,0,0,-1,1
31871,-6710,-385,-3825,-1,0,-1,1
31876,-6711,-385,-3824,-1,-1,-1,1
31881,-6712,-385,-3819,-1,0,-1,1
31887,-6711,-386,-3821,0,0,-1,1
31892,-6713,-387,-3825,-1,-1,-1,1
31896,-6714,-389,-3827,0,-1,-1,1
31901,-6716,-390,-3828,0,-1,-1,1
31906,-6717,-387,-3829,0,-1,0,1
31911,-6718,-383,-3833,-1,-1,-1,1
31916,-6719,-381,-3839,-1,-1,-1,1
31921,-6720,-380,-3839,0,-1,0,1
31926,-6719,-383,-3838,0,-1,-1,1
31931,-6720,-384,-3835,0,-1,-1,1
31937,-6718,-383,-3830,0,-1,0,1
31941,-6715,-382,-3829,0,-1,-1,1
31946,-6712,-382,-3830,-1,-1,-1,1
31951,-6711,-384,-3830,0,-1,0,1
31956,-6709,-385,-3831,0,0,-1,1
31961,-6711,-384,-3835,0,0,-1,1
31966,-6714,-384,-3838,0,-1,-1,1
31971,-6717,-386,-3840,0,0,-1,1
31976,-6721,-384,-3840,0,-1,-1,1
31981,-6720,-386,-3840,0,0,0,1
31987,-6719,-390,-3843,0,0,-1,1
31991,-6718,-388,-3845,-1,0,0,1
31996,-6718,-386,-3844,-1,0,-1,1
32001,-6716,-382,-3839,-1,0,-1,1
32006,-6715,-383,-3834,-1,0,-1,1
32011,-6718,-381,-3834,-1,0,-1,1
32016,-6720,-379,-3831,-1,-1,-1,1
32021,-6719,-378,-3829,-1,-1,-1,1
32026,-6719,-378,-3829,0,-1,-1,1
32031,-6717,-380,-3828,0,-1,-1,1
32036,-6718,-381,-3828,0,-1,-1,1
32041,-6716,-382,-3830,0,0,0,1
32046,-6715,-379,-3833,-1,0,-1,1
32051,-6714,-379,-3827,-1,-1,-1,1
32056,-6715,-379,-3827,0,-1,-1,1
32061,-6714,-378,-3824,-1,0,0,1
32066,-6712,-380,-3822,-1,0,-1,1
32071,-6711,-383,-3825,0,-1,-1,1
32076,-6711,-382,-3827,0,-1,-1,1
32081,-6708,-383,-3829,-1,0,-1,1
32086,-6709,-382,-3828,0,-1,-1,1
32091,-6709,-380,-3828,0,0,-1,1
32096,-6712,-379,-3828,0,0,-1,1
32101,-6713,-379,-3827,-1,0,0,1
32106,-6712,-381,-3824,0,0,-1,1
32111,-6711,-380,-3821,0,-1,-1,1
32116,-6710,-381,-3814,0,0,-1,1
32121,-6711,-383,-3813,0,0,-1,1
32126,-6712,-382,-3819,-1,-1,-1,1
32131,-6714,-380,-3830,-1,0,-1,1
32136,-6713,-381,-3828,-1,0,-1,1
32141,-6712,-382,-3829,-1,0,-1,1
32146,-6712,-382,-3827,0,0,0,1
32151,-6712,-382,-3824,0,-1,-1,1
32156,-6708,-385,-3829,0,-1,-1,1
32161,-6709,-385,-3827,0,0,0,1
32166,-6711,-385,-3827,-1,0,-1,1
32171,-6712,-384,-3827,0,0,-1,1
32176,-6710,-383,-3830,-1,0,-1,1
32181,-6709,-383,-3830,0,0,-1,1
32186,-6710,-383,-3833,0,0,-1,1
32191,-6710,-385,-3833,0,0,-1,1
32196,-6709,-385,-3833,0,-1,-1,1
32201,-6710,-384,-3833,0,0,-1,1
32206,-6712,-387,-3832,0,-1,-1,1
32211,-6712,-387,-3833,0,-1,-1,1
32216,-6713,-384,-3837,0,-1,-1,1
32221,-6716,-381,-3842,-1,0,-1,1
32226,-6716,-381,-3849,-1,0,-1,1
32231,-6716,-385,-3851,0,-1,-1,1
32236,-6717,-388,-3851,0,-1,0,1
32241,-6714,-388,-3856,-1,-1,-1,1
32246,-6713,-386,-3855,-1,-1,-1,1
32251,-6710,-384,-3855,-1,-1,-1,1
32256,-6711,-383,-3855,0,-1,0,1
32261,-6711,-385,-3855,0,-1,0,1
32266,-6712,-382,-3855,0,0,-1,1
32271,-6713,-380,-3851,0,-1,-1,1
32276,-6713,-379,-3846,-1,-1,0,1
32281,-6716,-379,-3848,-1,-1,-1,1
32286,-6717,-380,-3845,0,-1,0,1
32291,-6716,-379,-3845,0,-1,0,1
32296,-6715,-381,-3842,0,-1,-1,1
32301,-6714,-383,-3843,0,0,-1,1
32306,-6714,-383,-3843,-1,-1,-1,1
32311,-6712,-382,-3841,-1,-1,0,1
32316,-6710,-384,-3838,0,-1,0,1
32321,-6711,-386,-3835,0,-1,-1,1
32326,-6711,-385,-3831,-1,-1,-1,1
32331,-6712,-385,-3830,0,0,0,1
32336,-6714,-384,-3836,0,0,-1,1
32341,-6715,-385,-3835,0,0,-1,1
32346,-6716,-384,-3834,0,0,-1,1
32351,-6716,-384,-3830,0,-1,0,1
32356,-6715,-383,-3833,0,0,0,1
32361,-6715,-380,-3837,0,-1,0,1
32366,-6714,-380,-3840,0,-1,-1,1
32371,-6712,-382,-3836,0,0,-1,1
32376,-6713,-385,-3839,0,0,-1,1
32381,-6714,-386,-3842,-1,-1,-1,1
32386,-6715,-384,-3846,-1,-1,-1,1
32391,-6715,-386,-3844,-1,0,-1,1
32396,-6717,-387,-3842,0,-1,-1,1
32401,-6716,-387,-3841,0,0,-1,1
32406,-6717,-386,-3842,-1,0,-1,1
32411,-6719,-388,-3845,0,0,-1,1
32416,-6719,-388,-3844,0,-1,-1,1
32421,-6718,-389,-3844,0,0,0,1
32426,-6718,-389,-3841,0,-1,-1,1
32431,-6712,-390,-3841,0,0,-1,1
32436,-6711,-390,-3840,-1,0,0,1
32441,-6713,-392,-3840,0,0,-1,1
32446,-6713,-389,-3838,-1,-1,-1,1
32451,-6714,-393,-3838,-1,-1,-1,1
32456,-6716,-393,-3843,0,-1,-1,1
32461,-6720,-392,-3839,-1,-1,-1,1
32466,-6721,-392,-3837,0,0,0,1
32471,-6721,-390,-3835,0,-1,-1,1
32476,-6718,-390,-3831,0,-1,0,1
32481,-6717,-389,-3826,0,-1,-1,1
32486,-6716,-386,-3826,0,-1,-1,1
32491,-6714,-388,-3824,0,-1,-1,1
32496,-6714,-386,-3824,0,-1,-1,1
32501,-6712,-383,-3831,0,-1,-1,1
32506,-6707,-381,-3834,-1,-1,-1,1
32511,-6708,-380,-3831,0,-1,0,1
32516,-6709,-378,-3833,0,-1,0,1
32521,-6714,-378,-3833,-1,0,0,1
32526,-6716,-379,-3836,-1,0,0,1
32531,-6714,-381,-3837,-1,0,-1,1
32536,-6715,-381,-3835,-1,0,-1,1
32541,-6716,-380,-3836,0,0,-1,1
32546,-6714,-379,-3831,0,-1,0,1
32551,-6715,-382,-3831,0,-1,-1,1
32556,-6716,-386,-3830,-1,-1,-1,1
32561,-6716,-387,-3837,-1,-1,-1,1
32566,-6715,-389,-3834,0,0,-1,1
32571,-6715,-389,-3837,0,0,0,1
32576,-6717,-387,-3833,0,0,0,1
32581,-6715,-386,-3828,0,0,-1,1
32586,-6717,-385,-3827,0,-1,-1,1
32591,-6718,-388,-3838,0,-1,-1,1
32596,-6723,-388,-3844,0,-1,-1,1
32601,-6720,-391,-3843,-1,-1,-1,1
32606,-6718,-392,-3838,-1,-1,-1,1
32611,-6716,-392,-3836,-1,0,0,1
32616,-6715,-390,-3835,-1,-1,-1,1
32621,-6713,-388,-3833,-1,-1,-1,1
32626,-6711,-386,-3835,0,0,0,1
32631,-6709,-384,-3835,0,0,-1,1
32636,-6708,-383,-3834,0,-1,0,1
32641,-6711,-386,-3830,-1,0,-1,1
32646,-6713,-387,-3829,0,-1,-1,1
32651,-6717,-388,-3829,0,0,-1,1
32656,-6721,-388,-3830,0,0,-1,1
32661,-6720,-388,-3831,0,0,-1,1
32666,-6720,-387,-3831,0,-1,0,1
32671,-6718,-385,-3832,0,0,-1,1
32676,-6717,-385,-3832,0,0,0,1
32681,-6718,-383,-3833,0,0,-1,1
32686,-6718,-382,-3836,0,-1,-1,1
32691,-6715,-381,-3830,0,-1,-1,1
32696,-6714,-382,-3827,0,-1,-1,1
32701,-6716,-383,-3828,0,0,-1,1
32706,-6719,-382,-3835,0,0,-1,1
32711,-6721,-380,-3840,0,0,-1,1
32716,-6721,-380,-3845,0,-1,-1,1
32721,-6718,-381,-3845,-1,-1,0,1
32726,-6717,-384,-3846,-1,-1,0,1
32731,-6718,-387,-3849,-1,-1,-1,1
32736,-6716,-385,-3848,0,-1,-1,1
32741,-6715,-385,-3851,0,0,-1,1
32746,-6715,-387,-3849,-1,0,-1,1
32751,-6715,-391,-3847,-1,-1,-1,1
32756,-6714,-394,-3841,0,-1,-1,1
32761,-6714,-392,-3840,-1,-1,0,1
32766,-6714,-392,-3837,0,-1,-1,1
32771,-6713,-391,-3838,-1,-1,0,1
32776,-6712,-391,-3842,0,-1,0,1
32781,-6714,-389,-3841,0,-1,0,1
32786,-6713,-389,-3841,-1,-1,0,1
32791,-6715,-389,-3838,0,-1,-1,1
32796,-6717,-389,-3843,0,0,0,1
32801,-6719,-393,-3842,-1,-1,0,1
32806,-6720,-394,-3839,-1,-1,-1,1
32811,-6721,-391,-3832,-1,0,0,1
32816,-6720,-391,-3826,-1,0,-1,1
32821,-6717,-389,-3829,-1,-1,0,1
32826,-6714,-390,-3828,-1,-1,0,1
32831,-6715,-388,-3829,-1,-1,-1,1
32836,-6716,-387,-3829,0,-1,-1,1
32841,-6716,-386,-3829,0,0,-1,1
32846,-6714,-386,-3831,0,0,-1,1
32851,-6713,-383,-3830,0,0,-1,1
32856,-6715,-382,-3828,0,0,-1,1
32861,-6716,-382,-3825,0,-1,0,1
32866,-6718,-380,-3826,-1,-1,-1,1
32871,-6720,-383,-3824,0,-1,0,1
32876,-6718,-380,-3820,0,-1,-1,1
32881,-6718,-380,-3820,0,-1,-1,1
32886,-6717,-381,-3824,0,-1,-1,1
32891,-6713,-380,-3831,0,-1,-1,1
32896,-6714,-383,-3831,-1,-1,-1,1
32901,-6715,-385,-3829,-1,-1,-1,1
32906,-6716,-386,-3828,-1,0,-1,1
32911,-6719,-387,-3830,0,0,-1,1
32916,-6721,-387,-3828,0,-1,-1,1
32921,-6720,-387,-3826,0,0,-1,1
32926,-6718,-383,-3827,0,0,-1,1
32931,-6715,-383,-3830,-1,-1,0,1
32936,-6710,-386,-3836,-1,-1,0,1
32941,-6712,-386,-3834,0,-1,-1,1
32946,-6712,-387,-3831,0,-1,-1,1
32951,-6710,-388,-3830,-1,0,-1,1
32956,-6710,-390,-3832,0,0,-1,1
32961,-6712,-391,-3835,0,0,-1,1
32966,-6715,-390,-3841,-1,-1,-1,1
32971,-6716,-389,-3841,-1,-1,-1,1
32976,-6715,-388,-3841,-1,-1,0,1
32981,-6713,-389,-3836,0,-1,-1,1
32986,-6709,-388,-3833,0,-1,-1,1
32991,-6709,-387,-3831,0,0,-1,1
32996,-6710,-389,-3833,0,-1,-1,1
33001,-6714,-388,-3837,0,-1,-1,1
33006,-6716,-390,-3833,0,0,-1,1
33011,-6714,-389,-3832,0,-1,0,1
33016,-6712,-388,-3832,0,-1,-1,1
33021,-6713,-387,-3831,0,0,-1,1
33026,-6713,-388,-3830,0,-1,-1,1
33031,-6717,-389,-3829,0,0,-1,1
33036,-6716,-390,-3830,-1,0,-1,1
33041,-6714,-389,-3831,0,0,0,1
33046,-6716,-384,-3831,0,-1,-1,1
33051,-6715,-383,-3832,0,-1,-1,1
33056,-6710,-381,-3827,-1,-1,-1,1
33061,-6707,-383,-3827,0,-1,-1,1
33066,-6704,-386,-3828,0,-1,-1,1
33071,-6705,-390,-3828,-1,-1,-1,1
33076,-6707,-389,-3830,-1,-1,-1,1
33081,-6707,-390,-3833,-1,-1,-1,1
33086,-6709,-389,-3834,0,-1,-1,1
33091,-6712,-387,-3834,0,-1,-1,1
33096,-6715,-387,-3834,0,0,-1,1
33101,-6716,-386,-3837,0,0,-1,1
33106,-6716,-388,-3839,0,0,-1,1
33111,-6717,-388,-3840,0,0,0,1
33116,-6718,-388,-3842,-1,-1,-1,1
33121,-6715,-385,-3844,0,0,-1,1
33126,-6712,-385,-3843,0,0,-1,1
33131,-6711,-385,-3843,0,0,-1,1
33136,-6709,-385,-3841,0,0,-1,1
33141,-6708,-386,-3844,0,-1,-1,1
33146,-6710,-386,-3840,0,0,-1,1
33151,-6711,-382,-3840,0,-1,-1,1
33156,-6713,-384,-3838,0,0,0,1
33161,-6716,-383,-3838,-1,-1,0,1
33166,-6717,-381,-3838,-1,0,-1,1
33171,-6718,-382,-3839,0,0,-1,1
33176,-6715,-383,-3837,0,0,-1,1
33181,-6713,-381,-3837,0,0,0,1
33186,-6711,-382,-3838,0,-1,-1,1
33191,-6711,-381,-3840,0,-1,-1,1
33196,-6710,-381,-3836,0,-1,-1,1
33201,-6713,-381,-3835,0,-1,-1,1
33206,-6717,-381,-3836,0,-1,0,1
33211,-6718,-379,-3840,0,-1,-1,1
33216,-6717,-381,-3840,0,0,-1,1
33221,-6717,-380,-3843,0,0,0,1
33226,-6718,-381,-3848,0,0,-1,1
33231,-6718,-383,-3850,0,0,0,1
33236,-6719,-383,-3846,0,-1,-1,1
33241,-6718,-385,-3842,0,-1,-1,1
33246,-6716,-386,-3840,0,-1,-1,1
33251,-6717,-388,-3840,0,-1,-1,1
33256,-6718,-389,-3841,0,-1,-1,1
33261,-6717,-389,-3843,0,-1,0,1
33266,-6716,-393,-3847,0,-1,-1,1
33271,-6717,-394,-3843,-1,-1,0,1
33276,-6718,-397,-3847,-1,-1,-1,1
33281,-6718,-394,-3852,-1,-1,-1,1
33286,-6715,-391,-3852,-1,-1,-1,1
33291,-6716,-388,-3852,0,-1,-1,1
33296,-6719,-389,-3856,-1,-1,-1,1
33301,-6721,-388,-3853,-1,0,0,1
33306,-6720,-386,-3848,-1,0,0,1
33311,-6720,-386,-3847,-1,-1,-1,1
33316,-6721,-386,-3848,-1,0,-1,1
33321,-6718,-388,-3848,0,-1,0,1
33326,-6717,-389,-3841,0,-1,-1,1
33331,-6714,-387,-3834,0,-1,-1,1
33336,-6712,-388,-3831,0,0,-1,1
33341,-6712,-388,-3830,0,-1,-1,1
33346,-6714,-389,-3835,-1,-1,0,1
33351,-6714,-387,-3840,0,-1,-1,1
33356,-6719,-385,-3840,0,0,-1,1
33361,-6719,-386,-3840,0,0,-1,1
33366,-6718,-386,-3837,0,0,-1,1
33371,-6717,-387,-3839,0,0,-1,1
33376,-6715,-386,-3836,0,-1,-1,1
33381,-6713,-385,-3832,-1,-1,-1,1
33386,-6710,-383,-3829,0,-1,-1,1
33391,-6710,-382,-3830,-1,-1,-1,1
33396,-6707,-381,-3833,0,-1,-1,1
33401,-6709,-380,-3834,-1,-1,0,1
33406,-6711,-380,-3834,0,0,-1,1
33411,-6712,-382,-3835,0,0,-1,1
33416,-6714,-381,-3834,0,0,-1,1
33421,-6716,-384,-3835,0,-1,-1,1
33426,-6715,-384,-3835,0,-1,0,1
33431,-6716,-382,-3837,0,0,-1,1
33436,-6716,-382,-3834,0,-1,0,1
33441,-6713,-384,-3835,0,0,0,1
33446,-6711,-381,-3834,0,0,-1,1
33451,-6709,-379,-3834,0,0,-1,1
33456,-6710,-379,-3830,0,0,-1,1
33461,-6711,-379,-3832,0,0,-1,1
33466,-6711,-377,-3833,0,0,-1,1
33471,-6710,-376,-3834,0,0,-1,1
33476,-6708,-375,-3836,0,-1,-1,1
33481,-6711,-375,-3834,0,-1,-1,1
33486,-6712,-377,-3835,0,-1,0,1
33491,-6712,-378,-3834,0,-1,-1,1
33496,-6712,-379,-3838,-1,-1,-1,1
33501,-6712,-382,-3838,-1,-1,-1,1
33506,-6712,-386,-3838,0,-1,-1,1
33511,-6711,-387,-3834,0,-1,-1,1
33516,-6711,-387,-3836,0,-1,-1,1
33521,-6708,-386,-3838,0,-1,-1,1
33526,-6710,-391,-3840,0,0,-1,1
33531,-6711,-392,-3841,0,0,-1,1
33536,-6711,-389,-3839,0,0,-1,1
33541,-6711,-383,-3842,-1,0,-1,1
33546,-6713,-381,-3846,0,-1,-1,1
33551,-6715,-382,-3849,0,-1,0,1
33556,-6714,-387,-3850,0,-1,-1,1
33561,-6713,-387,-3853,0,-1,-1,1
33566,-6712,-387,-3854,0,-1,0,1
33571,-6709,-387,-3851,0,-1,-1,1
33576,-6705,-385,-3851,0,0,-1,1
33581,-6703,-386,-3853,0,0,-1,1
33586,-6699,-387,-3856,0,-1,-1,1
33591,-6700,-388,-3853,0,-1,-1,1
33596,-6705,-389,-3850,0,-1,-1,1
33601,-6709,-390,-3845,0,0,-1,1
33606,-6709,-389,-3846,0,-1,0,1
33611,-6711,-390,-3844,0,-1,-1,1
33616,-6713,-391,-3844,0,-1,0,1
33621,-6710,-391,-3844,0,-1,-1,1
33626,-6709,-389,-3842,0,-1,-1,1
33631,-6705,-387,-3843,0,0,-1,1
33636,-6704,-386,-3840,0,-1,0,1
33641,-6704,-385,-3838,0,-1,-1,1
33646,-6702,-385,-3836,0,0,-1,1
33651,-6706,-387,-3840,0,0,-1,1
33656,-6709,-386,-3839,0,0,-1,1
33661,-6713,-384,-3841,0,-1,-1,1
33666,-6714,-385,-3839,0,-1,0,1
33671,-6714,-385,-3841,0,0,-1,1
33676,-6713,-384,-3841,0,0,-1,1
33681,-6713,-384,-3842,0,-1,-1,1
33686,-6714,-385,-3839,0,-1,-1,1
33691,-6712,-387,-3836,-1,0,-1,1
33696,-6711,-387,-3831,-1,0,-1,1
33701,-6711,-388,-3830,0,0,-1,1
33706,-6709,-386,-3829,0,-1,-1,1
33711,-6708,-388,-3830,0,-1,0,1
33716,-6713,-387,-3826,0,0,-1,1
33721,-6716,-386,-3831,0,0,-1,1
33726,-6720,-386,-3829,0,-1,-1,1
33731,-6721,-387,-3826,0,0,0,1
33736,-6718,-388,-3826,-1,-1,-1,1
33741,-6718,-390,-3825,-1,-1,-1,1
33746,-6718,-390,-3829,0,-1,-1,1
33751,-6721,-387,-3835,0,0,-1,1
33756,-6720,-387,-3834,-1,-1,-1,1
33761,-6721,-388,-3833,-1,0,-1,1
33766,-6722,-389,-3837,-1,0,0,1
33771,-6722,-388,-3839,-1,0,0,1
33776,-6721,-387,-3839,-1,-1,-1,1
33781,-6721,-385,-3836,0,-1,-1,1
33786,-6720,-385,-3835,0,0,-1,1
33791,-6720,-384,-3832,0,-1,-1,1
33796,-6718,-385,-3829,0,0,0,1
33801,-6717,-383,-3831,0,-1,-1,1
33806,-6717,-384,-3831,0,-1,0,1
33811,-6716,-385,-3833,0,-1,-1,1
33816,-6720,-388,-3830,0,-1,-1,1
33821,-6719,-392,-3830,0,-1,-1,1
33826,-6717,-394,-3830,0,-1,-1,1
33831,-6717,-394,-3829,-1,-1,-1,1
33836,-6716,-392,-3827,-1,-1,0,1
33841,-6714,-389,-3831,0,0,-1,1
33846,-6715,-387,-3835,0,-1,-1,1
33851,-6713,-389,-3833,0,0,-1,1
33856,-6709,-391,-3832,0,-1,-1,1
33861,-6709,-390,-3831,0,-1,0,1
33866,-6709,-391,-3835,0,-1,-1,1
33871,-6710,-392,-3835,0,-1,-1,1
33876,-6709,-391,-3836,0,-1,-1,1
33881,-6710,-387,-3834,-1,-1,0,1
33886,-6708,-386,-3834,-1,-1,-1,1
33891,-6705,-385,-3833,0,-1,-1,1
33896,-6707,-381,-3833,0,-1,-1,1
33901,-6704,-380,-3836,0,-1,-1,1
33906,-6706,-378,-3837,-1,-1,-1,1
33911,-6710,-380,-3838,-1,-1,-1,1
33916,-6713,-382,-3837,-1,-1,-1,1
33921,-6715,-382,-3836,0,-1,-1,1
33926,-6717,-381,-3835,-1,-1,-1,1
33931,-6718,-384,-3838,-1,-1,0,1
33936,-6716,-385,-3834,0,-1,-1,1
33941,-6714,-383,-3836,0,-1,-1,1
33946,-6709,-384,-3840,0,-1,-1,1
33951,-6709,-382,-3838,0,0,-1,1
33956,-6711,-379,-3842,0,-1,-1,1
33961,-6711,-380,-3841,0,-1,-1,1
33966,-6715,-377,-3845,0,-1,-1,1
33971,-6718,-377,-3847,-1,-1,-1,1
33976,-6719,-381,-3843,0,-1,-1,1
33981,-6720,-382,-3841,0,0,-1,1
33986,-6720,-381,-3842,-1,-1,-1,1
33991,-6716,-380,-3842,0,0,-1,1
33996,-6714,-383,-3841,0,0,0,1
34001,-6714,-383,-3835,-1,0,0,1
34006,-6712,-383,-3835,-1,-1,0,1
34011,-6712,-385,-3838,-1,0,-1,1
34016,-6709,-384,-3844,0,-1,-1,1
34021,-6708,-383,-3845,-1,-1,-1,1
34026,-6711,-385,-3851,0,0,-1,1
34031,-6711,-385,-3853,0,0,-1,1
34036,-6712,-385,-3849,-1,-1,0,1
34041,-6715,-384,-3849,-1,0,-1,1
34046,-6718,-382,-3846,-1,-1,-1,1
34051,-6718,-383,-3845,0,-1,-1,1
34056,-6718,-384,-3843,0,-1,-1,1
34061,-6719,-385,-3844,0,0,0,1
34066,-6718,-384,-3841,0,-1,-1,1
34071,-6717,-386,-3841,0,-1,-1,1
34076,-6718,-385,-3838,0,-1,-1,1
34081,-6718,-386,-3837,0,-1,-1,1
34086,-6717,-384,-3836,0,-1,0,1
34091,-6717,-384,-3832,0,-1,-1,1
34096,-6716,-384,-3826,0,-1,-1,1
34101,-6719,-383,-3829,0,-1,-1,1
34106,-6719,-384,-3829,0,0,0,1
34111,-6720,-383,-3825,0,0,-1,1
34116,-6722,-383,-3822,-1,0,-1,1
34121,-6723,-382,-3825,0,0,-1,1
34126,-6721,-378,-3822,0,0,0,1
34131,-6717,-380,-3818,0,-1,-1,1
34136,-6715,-384,-3821,0,-1,-1,1
34141,-6717,-385,-3822,0,-1,-1,1
34146,-6719,-386,-3826,0,-1,-1,1
34151,-6721,-386,-3824,0,-1,-1,1
34156,-6723,-383,-3824,-1,0,-1,1
34161,-6722,-382,-3826,0,0,-1,1
34166,-6719,-383,-3825,0,-1,-1,1
34171,-6718,-381,-3826,0,-1,-1,1
34176,-6716,-379,-3830,0,0,-1,1
34181,-6715,-380,-3832,0,-1,0,1
34186,-6717,-382,-3832,0,-1,-1,1
34191,-6713,-384,-3832,0,0,0,1
34196,-6711,-385,-3838,-1,0,-1,1
34201,-6711,-386,-3839,0,0,-1,1
34206,-6713,-387,-3839,-1,-1,-1,1
34211,-6718,-386,-3841,0,-1,-1,1
34216,-6720,-387,-3842,0,-1,-1,1
34221,-6721,-388,-3846,0,-1,-1,1
34226,-6721,-384,-3843,0,-1,0,1
34231,-6719,-387,-3835,0,-1,0,1
34236,-6716,-389,-3833,-1,-1,-1,1
34241,-6716,-386,-3834,0,-1,-1,1
34246,-6715,-385,-3832,0,0,-1,1
34251,-6714,-387,-3829,0,-1,-1,1
34256,-6715,-389,-3829,0,0,-1,1
34261,-6712,-389,-3831,0,0,0,1
34266,-6714,-388,-3840,0,-1,-1,1
34271,-6714,-387,-3840,-1,0,-1,1
34276,-6713,-387,-3840,-1,-1,-1,1
34281,-6715,-387,-3843,-1,-1,-1,1
34286,-6717,-387,-3844,0,-1,0,1
34291,-6718,-384,-3842,0,-1,-1,1
34296,-6719,-381,-3845,-1,-1,-1,1
34301,-6718,-380,-3848,-1,-1,-1,1
34306,-6716,-378,-3848,-1,-1,-1,1
34311,-6715,-377,-3850,-1,-1,0,1
34316,-6716,-377,-3853,0,-1,-1,1
34321,-6713,-379,-3849,0,-1,-1,1
34326,-6713,-380,-3845,0,0,-1,1
34331,-6713,-380,-3844,0,0,-1,1
34336,-6712,-382,-3839,0,-1,-1,1
34341,-6714,-384,-3839,0,-1,-1,1
34346,-6716,-385,-3843,0,0,-1,1
34351,-6718,-386,-3842,0,0,0,1
34356,-6716,-387,-3839,0,-1,-1,1
34361,-6716,-387,-3838,-1,-1,-1,1
34366,-6715,-385,-3839,-1,-1,-1,1
34371,-6715,-381,-3843,0,0,-1,1
34376,-6712,-380,-3840,0,0,-1,1
34381,-6714,-379,-3837,0,0,0,1
34386,-6714,-380,-3843,0,0,0,1
34391,-6713,-380,-3843,0,-1,0,1
34396,-6715,-382,-3839,0,0,-1,1
34400,-6715,-383,-3837,0,-1,0,1
34406,-6716,-384,-3837,0,0,-1,1
34411,-6719,-384,-3838,0,-1,-1,1
34416,-6717,-384,-3842,-1,-1,-1,1
34421,-6715,-384,-3838,0,-1,-1,1
34426,-6713,-385,-3839,-1,-1,0,1
34431,-6712,-387,-3843,0,-1,0,1
34436,-6712,-391,-3843,0,-1,0,1
34440,-6713,-392,-3843,0,-1,0,1
34446,-6715,-391,-3840,0,-1,0,1
34451,-6718,-388,-3838,0,-1,-1,1
34456,-6718,-388,-3836,0,0,0,1
34460,-6720,-391,-3836,0,-1,0,1
34465,-6719,-391,-3837,0,-1,-1,1
34470,-6720,-390,-3837,0,-1,-1,1
34475,-6722,-389,-3835,-1,0,-1,1
34480,-6721,-386,-3831,-1,0,-1,1
34485,-6719,-385,-3834,0,-1,0,1
34490,-6719,-384,-3833,-1,-1,0,1
34495,-6717,-383,-3834,-1,-1,-1,1
34500,-6714,-383,-3831,-1,-1,-1,1
34506,-6711,-386,-3833,-1,0,0,1
34511,-6711,-390,-3831,0,-1,0,1
34516,-6709,-394,-3823,0,-1,-1,1
34521,-6711,-394,-3820,0,0,0,1
34526,-6711,-390,-3818,0,0,0,1
34531,-6711,-387,-3822,-1,-1,0,1
34535,-6712,-385,-3829,0,0,0,1
34541,-6713,-385,-3833,0,0,-1,1
34546,-6713,-386,-3833,0,-1,-1,1
34550,-6715,-388,-3835,-1,0,0,1
34556,-6716,-391,-3837,-1,-1,0,1
34561,-6715,-390,-3839,0,-1,0,1
34565,-6709,-389,-3836,-1,-1,-1,1
34571,-6708,-387,-3836,0,-1,-1,1
34576,-6706,-386,-3838,-1,-1,0,1
34581,-6706,-383,-3838,0,0,0,1
34586,-6707,-382,-3841,0,0,-1,1
34590,-6707,-381,-3840,0,-1,-1,1
34595,-6706,-384,-3839,0,-1,0,1
34601,-6707,-384,-3839,0,0,0,1
34605,-6708,-388,-3838,0,-1,-1,1
34610,-6707,-387,-3843,0,0,-1,1
34616,-6711,-385,-3844,0,0,-1,1
34620,-6711,-388,-3841,-1,-1,-1,1
34626,-6712,-387,-3836,-1,-1,-1,1
34630,-6711,-387,-3833,-1,-1,-1,1
34635,-6711,-388,-3836,0,0,-1,1
34640,-6713,-390,-3841,0,0,0,1
34645,-6714,-390,-3835,-1,-1,-1,1
34651,-6713,-388,-3834,0,0,-1,1
34655,-6712,-389,-3836,0,-1,-1,1
34660,-6715,-393,-3834,0,0,-1,1
34665,-6714,-390,-3830,0,-1,0,1
34670,-6717,-389,-3828,0,0,-1,1
34675,-6715,-387,-3831,0,-1,-1,1
34680,-6712,-385,-3832,-1,0,-1,1
34685,-6713,-386,-3829,-1,-1,-1,1
34690,-6714,-386,-3827,-1,-1,0,1
34695,-6716,-385,-3826,-1,0,-1,1
34700,-6716,-384,-3826,-1,0,-1,1
34705,-6715,-383,-3829,0,-1,-1,1
34710,-6716,-385,-3827,0,-1,-1,1
34715,-6718,-387,-3823,0,-1,-1,1
34720,-6719,-388,-3823,0,-1,-1,1
34725,-6716,-390,-3827,0,-1,-1,1
34730,-6716,-391,-3828,0,-1,-1,1
34735,-6715,-393,-3831,0,0,0,1
34740,-6717,-394,-3831,0,0,-1,1
34745,-6717,-393,-3833,0,0,-1,1
34750,-6718,-392,-3832,-1,0,-1,1
34755,-6718,-391,-3834,0,-1,0,1
34760,-6717,-390,-3834,0,-1,-1,1
34765,-6714,-391,-3837,0,0,0,1
34770,-6715,-392,-3840,0,0,-1,1
34775,-6717,-392,-3843,0,-1,0,1
34780,-6720,-390,-3846,0,-1,-1,1
34785,-6721,-389,-3843,0,-1,-1,1
34790,-6723,-389,-3843,0,0,-1,1
34795,-6724,-387,-3844,0,0,-1,1
34800,-6722,-388,-3845,0,0,-1,1
34805,-6719,-386,-3846,0,-1,0,1
34810,-6720,-385,-3842,0,-1,0,1
34815,-6718,-385,-3840,-1,0,-1,1
34820,-6716,-387,-3837,0,-1,-1,1
34825,-6713,-384,-3837,0,0,-1,1
34830,-6711,-384,-3837,0,0,-1,1
34835,-6711,-382,-3834,0,0,-1,1
34840,-6711,-384,-3832,0,0,-1,1
34845,-6713,-385,-3828,0,-1,-1,1
34850,-6712,-386,-3827,0,-1,-1,1
34855,-6713,-388,-3828,-1,0,-1,1
34860,-6715,-386,-3829,-1,0,-1,1
34865,-6715,-383,-3829,-1,-1,-1,1
34870,-6713,-383,-3827,0,-1,-1,1
34875,-6714,-385,-3827,0,-1,-1,1
34880,-6717,-387,-3824,0,0,-1,1
34885,-6716,-389,-3826,-1,-1,-1,1
34890,-6715,-390,-3830,-1,-1,-1,1
34895,-6713,-391,-3832,-1,-1,-1,1
34900,-6709,-391,-3832,0,-1,-1,1
34905,-6711,-389,-3838,0,-1,-1,1
34910,-6713,-388,-3836,0,0,-1,1
34915,-6715,-387,-3835,0,0,-1,1
34920,-6714,-388,-3835,0,0,-1,1
34925,-6712,-391,-3833,0,0,-1,1
34930,-6710,-390,-3831,0,-1,-1,1
34935,-6709,-390,-3829,0,-1,-1,1
34940,-6708,-390,-3825,0,-1,-1,1
34945,-6707,-389,-3826,0,0,-1,1
34950,-6708,-391,-3827,0,-1,-1,1
34955,-6708,-391,-3830,0,-1,-1,1
34960,-6710,-390,-3828,0,0,-1,1
34965,-6712,-390,-3826,0,0,-1,1
34970,-6710,-387,-3830,0,-1,-1,1
34975,-6709,-386,-3832,0,-1,-1,1
34980,-6711,-383,-3835,0,-1,0,1
34985,-6712,-384,-3836,-1,-1,-1,1
34990,-6714,-382,-3838,-1,-1,-1,1
34995,-6714,-384,-3836,-1,-1,-1,1
35000,-6713,-388,-3834,-1,-1,-1,1
35005,-6713,-390,-3835,-1,-1,-1,1
35010,-6713,-390,-3840,-1,-1,-1,1
35015,-6712,-392,-3842,0,-1,-1,1
35020,-6711,-388,-3844,0,0,-1,1
35025,-6710,-386,-3841,0,-1,-1,1
35030,-6709,-387,-3841,0,0,-1,1
35035,-6713,-383,-3846,0,0,-1,1
35040,-6715,-385,-3847,0,-1,-1,1
35045,-6714,-385,-3845,0,-1,-1,1
35050,-6715,-384,-3847,0,-1,0,1
35055,-6716,-384,-3845,-1,-1,-1,1
35060,-6717,-384,-3840,-1,-1,-1,1
35065,-6719,-381,-3838,-1,-1,0,1
35070,-6718,-386,-3835,-1,0,-1,1
35075,-6717,-385,-3838,0,-1,0,1
35080,-6714,-388,-3837,0,0,0,1
35085,-6712,-390,-3834,0,0,-1,1
35090,-6711,-390,-3831,-1,0,0,1
35095,-6710,-389,-3834,-1,0,-1,1
35100,-6712,-386,-3838,-1,-1,0,1
35105,-6713,-382,-3836,-1,-1,-1,1
35110,-6711,-382,-3832,-1,-1,-1,1
35115,-6710,-382,-3835,-1,0,-1,1
35120,-6709,-387,-3837,0,0,-1,1
35125,-6709,-386,-3836,0,0,0,1
35130,-6709,-387,-3831,0,0,0,1
35135,-6712,-388,-3833,0,-1,-1,1
35140,-6713,-386,-3832,0,-1,-1,1
35145,-6713,-387,-3829,0,-1,-1,1
35150,-6715,-387,-3833,0,0,-1,1
35155,-6715,-385,-3833,0,-1,-1,1
35160,-6715,-386,-3828,0,0,-1,1
35165,-6718,-386,-3825,0,-1,-1,1
35170,-6721,-386,-3826,0,-1,-1,1
35175,-6717,-387,-3829,-1,-1,-1,1
35180,-6714,-389,-3829,0,0,0,1
35185,-6716,-388,-3830,-1,-1,0,1
35190,-6717,-389,-3825,-1,-1,-1,1
35195,-6714,-388,-3823,-1,-1,-1,1
35200,-6711,-391,-3825,-1,0,-1,1
35205,-6711,-390,-3829,0,-1,0,1
35210,-6711,-387,-3834,0,-1,-1,1
35215,-6715,-387,-3837,-1,-1,-1,1
35220,-6716,-388,-3836,0,0,-1,1
35225,-6715,-390,-3832,-1,0,-1,1
35230,-6715,-389,-3825,0,-1,-1,1
35235,-6717,-388,-3826,0,-1,-1,1
35240,-6717,-388,-3824,0,0,-1,1
35245,-6718,-387,-3820,-1,0,-1,1
35250,-6719,-386,-3822,0,-1,0,1
35255,-6717,-388,-3829,0,0,0,1
35260,-6714,-387,-3832,0,0,0,1
35265,-6717,-388,-3830,-1,-1,-1,1
35270,-6719,-389,-3830,-1,-1,-1,1
35275,-6718,-388,-3834,-1,-1,0,1
35280,-6717,-387,-3838,0,-1,-1,1
35285,-6718,-384,-3838,-1,-1,-1,1
35290,-6717,-382,-3834,-1,0,-1,1
35295,-6716,-383,-3833,-1,-1,-1,1
35300,-6716,-382,-3831,-1,-1,-1,1
35305,-6716,-380,-3829,0,-1,-1,1
35310,-6715,-378,-3828,0,-1,-1,1
35315,-6712,-378,-3827,0,-1,-1,1
35320,-6711,-381,-3834,0,-1,-1,1
35325,-6711,-382,-3840,0,-1,-1,1
35330,-6710,-382,-3840,0,-1,-1,1
35335,-6707,-383,-3839,-1,-1,0,1
35340,-6708,-381,-3838,-1,0,-1,1
35345,-6710,-381,-3836,-1,0,0,1
35350,-6711,-379,-3837,-1,-1,-1,1
35355,-6714,-377,-3835,0,-1,-1,1
35360,-6717,-377,-3836,0,-1,-1,1
35365,-6717,-379,-3835,0,0,0,1
35370,-6716,-380,-3835,-1,0,0,1
35375,-6716,-379,-3833,0,0,0,1
35380,-6716,-380,-3841,0,-1,0,1
35385,-6713,-380,-3844,0,-1,-1,1
35390,-6711,-382,-3845,-1,-1,-1,1
35395,-6714,-383,-3851,0,-1,-1,1
35400,-6716,-384,-3850,0,-1,0,1
35405,-6719,-384,-3848,0,-1,0,1
35410,-6718,-384,-3844,0,-1,-1,1
35415,-6717,-384,-3843,-1,-1,-1,1
35420,-6717,-384,-3846,0,0,-1,1
35425,-6717,-384,-3844,-1,0,0,1
35430,-6718,-385,-3841,-1,0,-1,1
35435,-6715,-385,-3841,0,0,-1,1
35440,-6716,-385,-3841,0,0,-1,1
35445,-6718,-384,-3846,0,-1,0,1
35450,-6716,-384,-3848,-1,0,-1,1
35455,-6716,-383,-3846,-1,-1,-1,1
35460,-6717,-382,-3847,0,0,-1,1
35465,-6715,-383,-3848,0,-1,-1,1
35470,-6715,-383,-3845,0,-1,-1,1
35475,-6717,-381,-3839,-1,0,-1,1
35480,-6717,-385,-3835,0,0,0,1
35485,-6715,-386,-3834,0,-1,-1,1
35490,-6711,-386,-3835,-1,-1,-1,1
35495,-6708,-386,-3839,0,-1,0,1
35500,-6710,-385,-3832,0,-1,-1,1
35505,-6710,-385,-3828,-1,-1,-1,1
35510,-6708,-385,-3830,-1,0,-1,1
35515,-6712,-385,-3829,0,-1,-1,1
35520,-6712,-386,-3827,-1,-1,-1,1
35525,-6712,-383,-3828,-1,-1,-1,1
35530,-6711,-383,-3829,0,0,-1,1
35535,-6712,-384,-3828,0,0,-1,1
35540,-6714,-384,-3825,0,0,0,1
35545,-6713,-386,-3826,0,-1,0,1
35550,-6714,-389,-3826,0,-1,0,1
35555,-6713,-390,-3828,0,0,0,1
35560,-6715,-393,-3825,0,-1,-1,1
35565,-6712,-393,-3823,0,-1,-1,1
35570,-6714,-393,-3826,0,-1,-1,1
35575,-6713,-392,-3824,0,-1,-1,1
35580,-6712,-389,-3827,0,-1,-1,1
35585,-6714,-387,-3837,0,0,0,1
35590,-6718,-387,-3839,0,0,0,1
35595,-6717,-388,-3842,0,0,-1,1
35600,-6721,-388,-3844,-1,-1,0,1
35605,-6718,-387,-3841,-1,0,-1,1
35610,-6717,-387,-3840,-1,-1,0,1
35615,-6715,-386,-3842,0,-1,0,1
35620,-6714,-386,-3844,0,-1,-1,1
35625,-6712,-387,-3845,0,-1,-1,1
35630,-6713,-387,-3840,0,-1,-1,1
35635,-6712,-384,-3839,0,0,0,1
35640,-6710,-382,-3839,0,-1,-1,1
35645,-6710,-383,-3835,-1,-1,-1,1
35650,-6712,-385,-3833,0,-1,-1,1
35655,-6713,-384,-3838,-1,-1,0,1
35660,-6715,-382,-3842,0,0,-1,1
35665,-6712,-381,-3843,0,0,-1,1
35670,-6711,-380,-3838,0,0,0,1
35675,-6715,-379,-3836,0,-1,-1,1
35680,-6718,-380,-3836,0,-1,-1,1
35685,-6721,-381,-3832,0,-1,-1,1
35690,-6719,-383,-3831,0,-1,-1,1
35695,-6716,-382,-3832,0,-1,0,1
35700,-6715,-384,-3835,0,0,-1,1
35705,-6718,-387,-3828,0,0,-1,1
35710,-6720,-390,-3825,0,-1,-1,1
35715,-6724,-389,-3827,0,-1,-1,1
35720,-6726,-387,-3834,0,-1,0,1
35725,-6725,-386,-3837,-1,-1,-1,1
35730,-6727,-387,-3836,-1,-1,-1,1
35735,-6725,-389,-3839,0,-1,-1,1
35740,-6722,-390,-3840,0,-1,-1,1
35745,-6718,-390,-3836,0,-1,0,1
35750,-6714,-393,-3834,-1,0,-1,1
35755,-6714,-394,-3832,0,0,-1,1
35760,-6714,-395,-3834,0,0,-1,1
35765,-6711,-393,-3841,0,0,-1,1
35770,-6708,-393,-3841,0,0,-1,1
35775,-6707,-392,-3838,-1,0,-1,1
35780,-6711,-391,-3841,0,0,-1,1
35785,-6711,-391,-3839,0,-1,-1,1
35790,-6710,-387,-3843,0,-1,0,1
35795,-6712,-388,-3846,0,0,-1,1
35800,-6710,-388,-3846,0,-1,-1,1
35805,-6710,-387,-3845,0,-1,0,1
35810,-6710,-388,-3845,0,0,0,1
35815,-6707,-389,-3839,0,-1,-1,1
35820,-6707,-388,-3837,0,-1,-1,1
35825,-6706,-385,-3836,-1,-1,-1,1
35830,-6707,-386,-3833,0,-1,0,1
35835,-6706,-386,-3831,0,0,0,1
35840,-6708,-387,-3830,-1,-1,-1,1
35845,-6708,-388,-3833,-1,0,-1,1
35850,-6709,-391,-3830,0,0,-1,1
35855,-6707,-390,-3828,0,-1,-1,1
35860,-6707,-390,-3827,0,-1,-1,1
35865,-6707,-391,-3827,0,-1,0,1
35870,-6708,-389,-3831,0,-1,0,1
35875,-6709,-388,-3831,0,-1,0,1
35880,-6711,-385,-3832,0,-1,-1,1
35885,-6710,-385,-3831,0,-1,-1,1
35890,-6709,-383,-3830,0,-1,0,1
35895,-6707,-383,-3830,0,-1,-1,1
35900,-6708,-382,-3827,0,-1,-1,1
35905,-6711,-383,-3830,0,-1,-1,1
35910,-6712,-382,-3830,0,0,-1,1
35915,-6713,-382,-3830,0,-1,-1,1
35920,-6714,-383,-3833,0,-1,-1,1
35925,-6716,-384,-3833,-1,-1,-1,1
35930,-6718,-383,-3832,0,0,-1,1
35935,-6721,-386,-3837,0,-1,0,1
35940,-6721,-389,-3841,-1,-1,0,1
35945,-6720,-389,-3840,0,0,0,1
35950,-6716,-388,-3839,0,-1,-1,1
35955,-6715,-387,-3835,0,-1,-1,1
35960,-6717,-388,-3830,0,-1,0,1
35965,-6714,-387,-3825,0,-1,-1,1
35970,-6712,-389,-3825,0,0,-1,1
35975,-6713,-386,-3828,0,0,-1,1
35980,-6716,-382,-3832,0,-1,0,1
35985,-6714,-382,-3832,0,0,-1,1
35990,-6713,-384,-3834,0,-1,0,1
35995,-6712,-386,-3835,0,-1,-1,1
36000,-6708,-386,-3835,0,-1,0,1
36005,-6711,-387,-3830,-1,-1,-1,1
36010,-6713,-387,-3825,0,-1,-1,1
36015,-6713,-386,-3824,0,0,0,1
36020,-6712,-384,-3822,-1,0,-1,1
36025,-6714,-384,-3821,-1,0,-1,1
36030,-6715,-383,-3822,-1,0,-1,1
36035,-6714,-382,-3825,0,0,-1,1
36040,-6711,-382,-3830,0,0,-1,1
36045,-6710,-382,-3835,-1,0,-1,1
36050,-6711,-380,-3833,0,0,-1,1
36055,-6712,-380,-3835,0,0,0,1
36060,-6715,-379,-3833,0,0,-1,1
36065,-6715,-379,-3836,0,0,0,1
36070,-6716,-379,-3836,0,-1,-1,1
36075,-6717,-382,-3838,0,-1,-1,1
36080,-6715,-384,-3837,0,0,-1,1
36085,-6715,-384,-3839,0,0,-1,1
36090,-6715,-382,-3837,0,0,-1,1
36095,-6714,-382,-3837,-1,-1,0,1
36100,-6716,-386,-3835,0,-1,0,1
36105,-6719,-387,-3836,0,-1,-1,1
36110,-6721,-386,-3837,0,-1,-1,1
36115,-6722,-385,-3844,0,0,-1,1
36120,-6720,-388,-3846,0,-1,-1,1
36125,-6717,-391,-3846,-1,-1,0,1
36130,-6718,-391,-3846,-1,0,0,1
36135,-6716,-391,-3847,-1,0,0,1
36140,-6715,-393,-3848,0,-1,-1,1
36145,-6714,-392,-3848,0,-1,-1,1
36150,-6715,-391,-3847,0,0,-1,1
36155,-6718,-388,-3850,0,0,-1,1
36160,-6720,-388,-3848,0,0,0,1
36165,-6718,-388,-3844,-1,0,-1,1
36170,-6718,-388,-3842,-1,0,-1,1
36175,-6717,-389,-3840,-1,0,-1,1
36180,-6715,-388,-3839,0,0,-1,1
36185,-6713,-386,-3837,-1,-1,-1,1
36190,-6714,-387,-3834,0,-1,0,1
36195,-6714,-386,-3831,0,-1,-1,1
36200,-6715,-383,-3832,0,0,-1,1
36205,-6715,-381,-3835,0,0,-1,1
36210,-6713,-384,-3843,0,-1,0,1
36215,-6713,-384,-3845,-1,0,-1,1
36220,-6714,-384,-3852,-1,0,-1,1
36225,-6713,-387,-3850,-1,-1,-1,1
36230,-6715,-387,-3852,0,-1,-1,1
36235,-6715,-386,-3854,0,0,-1,1
36240,-6715,-387,-3857,0,-1,-1,1
36245,-6716,-391,-3850,0,0,-1,1
36250,-6717,-392,-3848,-1,-1,-1,1
36255,-6717,-389,-3848,-1,-1,-1,1
36260,-6719,-387,-3850,0,-1,-1,1
36265,-6719,-387,-3847,0,-1,-1,1
36270,-6716,-386,-3845,0,-1,-1,1
36275,-6713,-387,-3841,0,0,-1,1
36280,-6711,-387,-3839,-1,-1,-1,1
36285,-6713,-386,-3842,-1,-1,0,1
36290,-6717,-383,-3841,-1,-1,0,1
36295,-6718,-384,-3842,-1,-1,0,1
36300,-6716,-388,-3840,-1,-1,0,1
36305,-6718,-387,-3841,0,0,-1,1
36310,-6722,-388,-3841,0,0,-1,1
36315,-6721,-387,-3840,0,0,-1,1
36320,-6718,-386,-3839,0,0,-1,1
36325,-6720,-386,-3840,-1,-1,-1,1
36330,-6720,-390,-3846,-1,-1,0,1
36335,-6721,-392,-3851,-1,-1,0,1
36340,-6721,-391,-3850,0,-1,-1,1
36345,-6721,-391,-3848,0,-1,-1,1
36350,-6722,-393,-3848,0,0,-1,1
36355,-6720,-394,-3851,0,0,-1,1
36360,-6719,-392,-3850,0,-1,-1,1
36365,-6718,-388,-3848,0,0,-1,1
36370,-6717,-386,-3848,0,0,-1,1
36375,-6713,-385,-3836,0,0,-1,1
36380,-6717,-387,-3830,-1,0,-1,1
36385,-6718,-387,-3825,-1,0,-1,1
36390,-6722,-387,-3826,-1,0,-1,1
36395,-6719,-387,-3831,-1,0,-1,1
36400,-6717,-387,-3825,0,0,-1,1
36405,-6716,-391,-3820,0,0,-1,1
36410,-6717,-392,-3818,0,0,-1,1
36415,-6718,-392,-3813,0,-1,0,1
36420,-6719,-392,-3814,0,-1,-1,1
36425,-6720,-391,-3817,-1,-1,0,1
36430,-6717,-389,-3824,-1,-1,0,1
36435,-6719,-384,-3827,0,-1,0,1
36440,-6718,-384,-3830,0,0,-1,1
36445,-6716,-384,-3830,0,0,-1,1
36450,-6716,-385,-3834,0,0,-1,1
36455,-6717,-383,-3838,0,0,-1,1
36460,-6720,-383,-3839,-1,0,-1,1
36465,-6720,-384,-3832,-1,-1,-1,1
36470,-6717,-382,-3827,-1,-1,-1,1
36475,-6718,-385,-3827,-1,-1,-1,1
36480,-6717,-387,-3826,-1,-1,0,1
36485,-6717,-387,-3826,0,0,-1,1
36490,-6717,-384,-3830,0,0,-1,1
36495,-6718,-382,-3833,0,0,-1,1
36500,-6717,-383,-3830,0,-1,-1,1
36505,-6718,-383,-3829,-1,-1,-1,1
36510,-6718,-384,-3826,-1,-1,-1,1
36515,-6720,-384,-3830,0,-1,-1,1
36520,-6718,-382,-3831,-1,-1,-1,1
36525,-6716,-382,-3832,0,-1,0,1
36530,-6713,-382,-3832,0,0,-1,1
36535,-6711,-383,-3834,0,0,-1,1
36540,-6710,-383,-3833,0,0,-1,1
36545,-6712,-383,-3836,0,-1,0,1
36550,-6715,-385,-3838,-1,-1,0,1
36555,-6714,-385,-3841,-1,-1,0,1
36560,-6712,-387,-3837,-1,-1,-1,1
36565,-6712,-387,-3835,0,0,-1,1
36570,-6713,-385,-3833,0,0,-1,1
36575,-6713,-383,-3832,0,0,-1,1
36580,-6713,-381,-3838,0,0,-1,1
36585,-6716,-381,-3837,0,-1,-1,1
36590,-6716,-381,-3838,-1,-1,-1,1
36595,-6716,-382,-3837,-1,-1,0,1
36600,-6716,-383,-3836,-1,-1,0,1
36605,-6717,-384,-3836,-1,-1,-1,1
36610,-6715,-385,-3836,0,-1,-1,1
36615,-6716,-386,-3836,0,0,-1,1
36620,-6716,-386,-3837,0,0,-1,1
36625,-6715,-384,-3833,0,0,-1,1
36630,-6716,-384,-3834,0,-1,-1,1
36635,-6713,-386,-3826,0,-1,-1,1
36640,-6715,-387,-3823,0,-1,-1,1
36645,-6720,-385,-3817,-1,-1,-1,1
36650,-6720,-382,-3820,0,-1,-1,1
36655,-6721,-380,-3820,0,-1,-1,1
36660,-6722,-382,-3821,0,-1,-1,1
36665,-6720,-383,-3820,0,0,-1,1
36670,-6721,-386,-3826,0,-1,-1,1
36675,-6723,-386,-3830,-1,-1,0,1
36680,-6723,-386,-3826,-1,-1,0,1
36685,-6723,-384,-3828,-1,-1,0,1
36690,-6719,-383,-3832,0,-1,-1,1
36695,-6720,-382,-3838,0,-1,-1,1
36700,-6721,-384,-3839,0,-1,-1,1
36705,-6721,-385,-3838,0,0,-1,1
36710,-6717,-387,-3837,0,0,-1,1
36715,-6715,-387,-3835,0,0,-1,1
36720,-6714,-387,-3836,-1,-1,-1,1
36725,-6716,-386,-3832,-1,-1,0,1
36730,-6721,-385,-3831,-1,-1,0,1
36735,-6722,-388,-3834,-1,-1,0,1
36740,-6719,-387,-3838,-1,0,0,1
36745,-6716,-386,-3833,0,0,-1,1
36750,-6717,-385,-3828,0,0,-1,1
36755,-6721,-385,-3833,0,0,-1,1
36760,-6719,-386,-3836,0,0,-1,1
36765,-6718,-386,-3839,-1,0,-1,1
36770,-6717,-385,-3840,-1,0,-1,1
36775,-6715,-386,-3838,-1,-1,0,1
36780,-6716,-391,-3836,-1,0,0,1
36785,-6719,-391,-3838,-1,0,-1,1
36790,-6723,-393,-3838,-1,0,-1,1
36795,-6725,-394,-3834,-1,0,-1,1
36800,-6720,-394,-3829,0,0,-1,1
36805,-6716,-394,-3830,0,0,-1,1
36810,-6717,-394,-3835,0,0,-1,1
36815,-6719,-393,-3838,0,0,-1,1
36820,-6719,-393,-3833,-1,0,-1,1
36825,-6720,-393,-3830,-1,0,-1,1
36830,-6723,-389,-3828,-1,0,-1,1
36835,-6744,-388,-3821,-1,1,-1,1
36839,-6750,-387,-3819,0,3,-1,1
36845,-6747,-388,-3824,0,4,-1,1
36850,-6740,-389,-3837,0,4,-1,1
36855,-6721,-392,-3845,0,3,-1,1
36860,-6701,-390,-3851,-1,2,0,1
36865,-6691,-388,-3852,-1,0,-1,1
36869,-6689,-389,-3855,-1,-1,-1,1
36874,-6694,-388,-3853,0,-1,-1,1
36880,-6709,-389,-3852,0,-1,-1,1
36884,-6719,-391,-3852,0,0,-1,1
36890,-6726,-390,-3846,0,1,-1,1
36894,-6731,-387,-3843,0,2,-1,1
36900,-6734,-385,-3847,-1,3,-1,1
36905,-6733,-386,-3849,0,4,-1,1
36909,-6733,-385,-3850,-1,4,-1,1
36915,-6731,-386,-3851,-1,5,-1,1
36920,-6734,-385,-3850,0,5,-1,1
36924,-6734,-389,-3852,0,6,-1,1
36929,-6729,-391,-3852,0,7,-1,1
36935,-6722,-388,-3859,0,7,-1,1
36940,-6714,-388,-3857,0,6,-1,1
36945,-6712,-386,-3860,0,6,-1,1
36949,-6714,-385,-3865,-1,6,-1,1
36955,-6716,-384,-3871,-1,6,-1,1
36959,-6722,-383,-3874,-1,7,0,1
36964,-6729,-380,-3878,-1,9,-1,1
36970,-6739,-377,-3877,-1,10,-1,1
36975,-6743,-376,-3876,0,11,-1,1
36980,-6744,-376,-3880,-1,13,-1,1
36985,-6738,-376,-3881,-1,14,-1,1
36990,-6724,-378,-3884,-1,14,-1,1
36994,-6706,-378,-3903,-1,14,-1,1
36999,-6684,-379,-3924,-1,14,-1,1
37005,-6661,-379,-3943,-1,14,-1,1
37009,-6639,-380,-3961,-1,13,-1,1
37014,-6621,-383,-3978,-1,12,-1,1
37019,-6612,-389,-3996,-1,11,-1,1
37024,-6607,-393,-4008,-1,11,-1,1
37029,-6607,-396,-4019,-1,11,-1,1
37034,-6611,-396,-4018,-1,11,-1,1
37039,-6620,-394,-4032,-1,12,-1,1
37044,-6628,-391,-4045,-1,14,-1,1
37049,-6627,-388,-4059,-1,16,-1,1
37054,-6622,-387,-4076,-1,18,-1,1
37059,-6610,-386,-4088,0,20,-2,1
37065,-6597,-384,-4097,0,21,-2,1
37069,-6584,-376,-4099,0,21,-1,1
37074,-6575,-369,-4113,0,20,-1,1
37079,-6568,-372,-4140,0,21,-1,1
37084,-6563,-377,-4173,0,23,-1,1
37089,-6554,-378,-4202,0,24,0,1
37094,-6530,-379,-4227,0,25,0,1
37099,-6499,-378,-4241,0,24,0,1
37104,-6471,-379,-4254,0,23,-1,1
37109,-6446,-380,-4272,0,21,-1,1
37114,-6423,-381,-4289,0,19,-1,1
37119,-6409,-378,-4306,0,18,-1,1
37124,-6403,-380,-4315,0,17,-1,1
37129,-6406,-382,-4328,0,17,-1,1
37134,-6418,-381,-4339,0,19,-1,1
37139,-6430,-379,-4346,0,21,-1,1
37144,-6437,-378,-4356,0,24,-1,1
37149,-6432,-376,-4371,0,28,-1,1
37154,-6422,-373,-4389,1,30,-1,1
37159,-6396,-374,-4407,1,32,-1,1
37164,-6359,-381,-4424,1,32,-2,1
37169,-6326,-393,-4489,1,31,-1,1
37174,-6273,-403,-4530,0,27,-1,1
37179,-6219,-403,-4560,0,22,-1,1
37184,-6184,-401,-4584,-1,18,0,1
37189,-6167,-411,-4607,-1,15,0,1
37194,-6163,-419,-4622,-1,13,0,1
37199,-6164,-421,-4633,-1,13,0,1
37204,-6165,-423,-4643,-1,14,0,1
37209,-6168,-428,-4656,0,15,-1,1
37214,-6175,-431,-4676,0,16,-1,1
37219,-6182,-432,-4692,0,17,-1,1
37224,-6186,-429,-4707,0,18,-1,1
37229,-6194,-424,-4719,-1,19,0,1
37234,-6195,-420,-4733,-1,21,0,1
37239,-6191,-414,-4752,-1,23,0,1
37244,-6187,-410,-4771,-1,25,0,1
37249,-6174,-403,-4790,-1,28,0,1
37254,-6156,-399,-4810,-1,31,0,1
37259,-6130,-401,-4832,-1,32,0,1
37264,-6098,-403,-4856,0,31,0,1
37269,-6073,-407,-4882,-1,31,0,1
37274,-6059,-411,-4902,-1,31,0,1
37279,-6053,-408,-4925,-1,31,0,1
37284,-6065,-390,-4947,-1,34,0,1
37289,-6086,-367,-4964,-1,38,0,1
37294,-6105,-343,-4985,-1,44,0,1
37299,-6115,-318,-5013,0,51,0,1
37304,-6113,-293,-5051,0,58,0,1
37309,-6095,-270,-5075,-1,63,0,1
37314,-6077,-252,-5094,-1,67,0,1
37319,-6045,-244,-5119,-1,70,0,1
37324,-5984,-250,-5161,-1,71,1,1
37329,-5924,-258,-5191,-1,72,1,1
37334,-5844,-260,-5228,-1,71,1,1
37339,-5764,-259,-5263,-1,70,0,1
37344,-5674,-269,-5304,-1,67,0,1
37349,-5586,-282,-5354,-1,64,0,1
37354,-5502,-310,-5404,-1,59,0,1
37359,-5434,-329,-5442,-1,54,0,1
37364,-5380,-344,-5480,-1,48,0,1
37369,-5327,-354,-5532,-1,44,0,1
37374,-5280,-356,-5565,-1,40,0,1
37379,-5247,-364,-5601,-1,38,0,1
37384,-5214,-377,-5634,-1,35,0,1
37389,-5186,-389,-5670,-1,33,0,1
37394,-5155,-408,-5696,-1,30,0,1
37399,-5119,-425,-5731,-1,28,0,1
37404,-5073,-446,-5769,-1,26,0,1
37409,-5031,-464,-5810,-1,23,0,1
37414,-4999,-473,-5840,-1,19,0,1
37419,-4963,-476,-5868,-1,16,0,1
37424,-4929,-474,-5897,-1,12,0,1
37429,-4900,-478,-5929,-1,9,0,1
37434,-4874,-490,-5954,-1,6,0,1
37439,-4850,-513,-5974,-1,2,-1,1
37444,-4842,-531,-5979,-1,-1,-1,1
37449,-4843,-540,-5986,0,-4,-1,1
37454,-4857,-537,-5993,0,-5,-1,1
37459,-4877,-530,-5997,0,-6,-1,1
37464,-4895,-514,-6006,0,-6,-1,1
37469,-4907,-498,-6010,0,-6,-1,1
37474,-4919,-484,-6010,-1,-6,-1,1
37479,-4931,-471,-6009,-1,-7,-1,1
37484,-4942,-458,-6013,0,-7,-1,1
37489,-4945,-448,-6015,0,-6,-1,1
37494,-4946,-439,-6006,0,-7,-1,1
37499,-4943,-435,-6000,0,-8,-1,1
37504,-4943,-428,-6001,0,-9,-1,1
37509,-4945,-422,-6004,0,-10,-1,1
37514,-4956,-418,-6010,0,-10,-1,1
37519,-4972,-414,-6005,0,-11,-1,1
37524,-4993,-408,-5993,0,-10,-1,1
37529,-5016,-403,-5978,0,-9,-1,1
37534,-5040,-397,-5969,0,-8,-1,1
37539,-5065,-397,-5962,0,-6,-1,1
37544,-5089,-399,-5952,0,-4,-1,1
37549,-5107,-397,-5943,0,-2,-1,1
37554,-5120,-395,-5936,0,0,-1,1
37559,-5126,-391,-5932,0,3,-1,1
37564,-5128,-391,-5933,0,4,-1,1
37569,-5129,-391,-5934,0,6,-1,1
37574,-5124,-389,-5934,0,6,-1,1
37579,-5113,-389,-5937,0,7,0,1
37584,-5097,-388,-5938,0,7,0,1
37589,-5080,-385,-5947,0,7,0,1
37594,-5062,-383,-5951,-1,6,0,1
37599,-5049,-380,-5960,-1,6,0,1
37604,-5040,-374,-5974,-1,6,0,1
37609,-5041,-374,-5985,-1,7,0,1
37614,-5046,-372,-5992,-1,8,0,1
37619,-5054,-369,-5998,-1,10,0,1
37624,-5068,-369,-6002,-1,12,0,1
37629,-5085,-368,-6000,0,15,0,1
37634,-5103,-367,-6009,0,18,0,1
37639,-5124,-362,-6016,-1,22,0,1
37644,-5136,-359,-6016,-1,27,0,1
37649,-5137,-360,-6020,-1,31,0,1
37654,-5127,-358,-6032,-1,34,0,1
37659,-5103,-360,-6044,-1,36,0,1
37664,-5071,-360,-6056,-1,38,0,1
37669,-5027,-362,-6074,-1,39,0,1
37674,-4974,-363,-6093,-1,38,0,1
37679,-4914,-362,-6116,-1,37,0,1
37684,-4854,-361,-6134,-1,34,0,1
37689,-4797,-355,-6152,-1,31,0,1
37694,-4741,-349,-6176,-1,28,0,1
37699,-4698,-350,-6191,-1,25,0,1
37704,-4665,-355,-6212,-1,22,0,1
37709,-4641,-364,-6234,-1,19,0,1
37714,-4627,-381,-6254,-1,18,0,1
37719,-4617,-397,-6271,-1,17,0,1
37724,-4610,-412,-6288,-1,16,0,1
37729,-4602,-416,-6314,-1,17,0,1
37734,-4596,-414,-6337,-1,18,0,1
37739,-4586,-412,-6361,0,19,0,1
37744,-4572,-409,-6376,-1,20,0,1
37749,-4548,-406,-6378,-1,20,0,1
37754,-4526,-402,-6384,-1,19,0,1
37759,-4502,-402,-6401,-1,18,0,1
37764,-4486,-405,-6415,-1,17,0,1
37769,-4464,-402,-6430,-1,16,0,1
37774,-4446,-395,-6433,-1,15,0,1
37779,-4432,-390,-6429,-1,13,0,1
37784,-4419,-388,-6429,0,10,0,1
37789,-4408,-388,-6429,0,7,0,1
37794,-4395,-390,-6436,0,5,0,1
37799,-4385,-389,-6445,0,3,0,1
37804,-4382,-389,-6448,0,2,-1,1
37809,-4379,-387,-6455,-1,1,-1,1
37814,-4379,-389,-6462,0,0,-1,1
37819,-4382,-389,-6470,0,0,-1,1
37824,-4387,-387,-6475,0,0,-1,1
37829,-4391,-384,-6481,0,1,-1,1
37834,-4395,-380,-6487,0,1,-1,1
37839,-4395,-378,-6495,0,2,0,1
37844,-4394,-380,-6501,0,2,0,1
37849,-4390,-380,-6510,0,2,0,1
37854,-4385,-378,-6512,0,3,0,1
37859,-4385,-377,-6516,-1,3,0,1
37864,-4388,-374,-6518,-1,3,0,1
37869,-4392,-374,-6522,0,4,-1,1
37874,-4396,-374,-6525,0,5,-1,1
37879,-4400,-375,-6526,-1,6,-1,1
37884,-4408,-378,-6526,-1,7,0,1
37889,-4412,-379,-6530,-1,8,0,1
37894,-4411,-377,-6538,-1,10,0,1
37899,-4411,-372,-6545,-1,12,0,1
37904,-4407,-367,-6558,-1,14,0,1
37909,-4400,-362,-6566,-1,16,0,1
37914,-4396,-359,-6571,-1,19,0,1
37919,-4383,-361,-6575,-1,21,0,1
37924,-4360,-361,-6578,-1,22,0,1
37929,-4336,-363,-6587,-1,22,0,1
37934,-4308,-368,-6603,-1,22,0,1
37939,-4280,-374,-6608,-1,22,0,1
37944,-4250,-382,-6616,-1,21,0,1
37949,-4220,-386,-6620,-1,20,0,1
37954,-4187,-388,-6630,-1,18,0,1
37959,-4160,-383,-6640,-1,16,0,1
37964,-4135,-376,-6645,-1,15,0,1
37969,-4113,-371,-6651,-1,13,0,1
37974,-4096,-362,-6655,-1,10,0,1
37979,-4077,-357,-6662,-1,8,0,1
37984,-4069,-357,-6670,-1,7,0,1
37989,-4071,-356,-6676,-1,6,0,1
37994,-4073,-354,-6688,-1,6,0,1
37999,-4077,-350,-6695,-1,6,-1,1
38004,-4083,-350,-6702,-1,7,0,1
38009,-4088,-352,-6704,-1,8,0,1
38014,-4089,-358,-6708,-1,9,0,1
38019,-4085,-362,-6713,-1,9,0,1
38024,-4082,-365,-6718,-1,10,0,1
38029,-4078,-370,-6722,-1,10,0,1
38034,-4067,-371,-6732,-1,10,0,1
38039,-4046,-371,-6739,-1,10,0,1
38044,-4022,-377,-6748,-1,9,0,1
38049,-4002,-379,-6755,-1,8,0,1
38054,-3985,-379,-6758,-1,6,0,1
38059,-3974,-377,-6760,-1,5,0,1
38064,-3964,-376,-6772,-1,4,0,1
38069,-3961,-377,-6776,-1,3,-1,1
38074,-3959,-377,-6782,-1,3,-1,1
38079,-3959,-378,-6787,0,3,-1,1
38084,-3960,-379,-6793,-1,3,-1,1
38089,-3960,-377,-6802,-1,4,-1,1
38094,-3963,-380,-6805,-1,4,-1,1
38099,-3964,-379,-6804,-1,4,0,1
38104,-3964,-379,-6808,-1,5,0,1
38109,-3963,-379,-6814,-1,5,0,1
38114,-3967,-379,-6819,-1,6,0,1
38119,-3967,-378,-6818,-1,7,0,1
38124,-3967,-374,-6818,-1,8,0,1
38129,-3964,-371,-6821,-1,9,-1,1
38134,-3963,-370,-6825,-1,9,0,1
38139,-3962,-368,-6827,-1,10,0,1
38144,-3959,-366,-6827,-1,12,0,1
38149,-3954,-364,-6834,-1,13,0,1
38154,-3945,-363,-6843,-1,14,0,1
38159,-3935,-363,-6850,-1,15,0,1
38164,-3926,-360,-6852,-1,15,0,1
38169,-3911,-360,-6855,-1,15,0,1
38174,-3892,-359,-6862,-1,16,0,1
38179,-3872,-360,-6872,-1,15,0,1
38184,-3851,-361,-6881,-1,15,0,1
38189,-3826,-360,-6886,-1,14,0,1
38194,-3806,-359,-6896,-1,13,0,1
38199,-3788,-355,-6906,-1,12,0,1
38204,-3767,-352,-6909,-1,11,-1,1
38209,-3752,-354,-6916,-1,10,0,1
38214,-3745,-353,-6928,-1,9,0,1
38219,-3741,-353,-6935,-1,9,-1,1
38224,-3741,-352,-6940,-1,9,-1,1
38229,-3740,-346,-6948,-1,10,-1,1
38234,-3740,-343,-6952,-1,10,-1,1
38239,-3735,-341,-6955,-1,11,0,1
38244,-3732,-341,-6962,-1,12,0,1
38249,-3725,-342,-6970,-1,13,0,1
38254,-3716,-341,-6975,-1,13,0,1
38259,-3704,-339,-6978,-1,14,0,1
38264,-3695,-337,-6979,-1,14,-1,1
38269,-3682,-339,-6977,-1,14,0,1
38274,-3670,-341,-6981,-1,14,-1,1
38279,-3660,-343,-6988,-1,14,-1,1
38284,-3648,-346,-6998,-1,14,-1,1
38289,-3636,-347,-7005,-1,14,-1,1
38294,-3629,-353,-7013,-1,15,-1,1
38299,-3623,-357,-7023,-1,15,-1,1
38304,-3620,-361,-7029,-1,16,-1,1
38309,-3605,-370,-7030,-1,17,-1,1
38314,-3570,-375,-7038,-1,18,-1,1
38319,-3541,-380,-7050,-1,17,-1,1
38324,-3531,-382,-7057,-1,16,-1,1
38329,-3529,-386,-7065,-1,16,-1,1
38334,-3529,-387,-7072,-1,17,-1,1
38339,-3518,-387,-7080,-1,19,-1,1
38344,-3488,-384,-7089,-1,20,-1,1
38349,-3446,-379,-7103,-1,19,-1,1
38354,-3413,-377,-7114,-1,18,-1,1
38359,-3387,-374,-7126,-1,17,-1,1
38364,-3353,-371,-7136,-1,16,-1,1
38369,-3320,-370,-7150,-1,15,-1,1
38374,-3291,-368,-7159,-1,14,-1,1
38379,-3271,-370,-7169,-1,12,-1,1
38384,-3259,-370,-7180,-1,11,-1,1
38389,-3251,-366,-7190,-1,11,-1,1
38394,-3238,-364,-7203,-1,11,-1,1
38399,-3238,-362,-7210,-1,10,-1,1
38404,-3254,-363,-7212,-1,10,-1,1
38409,-3263,-363,-7216,-1,11,-1,1
38414,-3267,-357,-7220,-1,12,-1,1
38419,-3267,-355,-7225,-1,14,-1,1
38424,-3251,-354,-7229,-1,14,-1,1
38429,-3239,-355,-7233,-1,14,-1,1
38434,-3220,-353,-7238,-1,14,-1,1
38439,-3213,-356,-7240,-1,14,-1,1
38444,-3243,-354,-7235,-1,14,-1,1
38449,-3247,-355,-7241,-1,16,-1,1
38454,-3229,-358,-7256,-1,19,-1,1
38459,-3195,-357,-7269,-1,19,-1,1
38464,-3167,-353,-7269,-1,19,-1,1
38469,-3152,-348,-7268,-1,18,-1,1
38474,-3138,-347,-7275,-1,18,-1,1
38479,-3125,-345,-7280,-1,18,-1,1
38484,-3094,-344,-7296,-1,18,-1,1
38489,-3053,-345,-7312,-1,18,-1,1
38494,-3017,-346,-7333,-1,16,-1,1
38499,-2985,-344,-7353,-1,15,-1,1
38504,-2968,-342,-7371,-1,13,-1,1
38509,-2945,-341,-7383,-1,12,-1,1
38514,-2921,-342,-7391,-1,11,-1,1
38519,-2902,-345,-7397,-1,11,-1,1
38524,-2884,-351,-7403,-1,10,-1,1
38529,-2867,-354,-7404,-1,10,-1,1
38534,-2866,-355,-7404,-1,9,-1,1
38539,-2861,-354,-7408,-1,9,-1,1
38544,-2837,-353,-7412,-1,8,-1,1
38549,-2839,-352,-7410,-1,7,-1,1
38554,-2852,-350,-7402,-1,7,-1,1
38559,-2848,-352,-7402,-1,8,-1,1
38564,-2837,-351,-7408,-1,8,-1,1
38569,-2817,-352,-7416,-1,8,-1,1
38574,-2794,-352,-7425,-1,7,-1,1
38579,-2772,-354,-7427,-1,6,-1,1
38584,-2772,-350,-7420,-1,5,-1,1
38589,-2765,-347,-7420,-1,5,-1,1
38594,-2768,-346,-7420,-1,4,-1,1
38599,-2751,-348,-7424,-1,4,-2,1
38604,-2727,-348,-7429,-1,4,-2,1
38609,-2716,-339,-7432,-1,2,-2,1
38614,-2719,-337,-7435,-1,1,-2,1
38619,-2721,-339,-7443,-1,0,-2,1
38624,-2701,-343,-7450,-1,0,-2,1
38629,-2705,-343,-7460,-1,-1,-1,1
38634,-2708,-343,-7456,-1,-2,-1,1
38639,-2700,-343,-7446,-1,-2,-1,1
38644,-2709,-340,-7433,-1,-2,-1,1
38649,-2716,-340,-7418,-1,-2,-1,1
38654,-2689,-339,-7414,-1,-2,-1,1
38659,-2703,-341,-7407,-1,-4,-1,1
38664,-2748,-342,-7407,-1,-4,-1,1
38669,-2781,-345,-7412,-1,-1,-1,1
38674,-2808,-344,-7433,-1,1,-1,1
38679,-2807,-343,-7451,-1,2,-1,1
38684,-2841,-341,-7467,-1,2,0,1
38689,-2867,-341,-7474,0,4,0,1
38694,-2870,-343,-7486,0,6,0,1
38699,-2892,-343,-7493,0,7,-1,1
38704,-2898,-344,-7500,0,9,-1,1
38709,-2895,-343,-7499,0,11,0,1
38714,-2891,-342,-7491,0,12,0,1
38719,-2882,-348,-7473,0,13,-1,1
38724,-2873,-347,-7449,-1,15,-1,1
38729,-2850,-340,-7436,-1,16,-1,1
38734,-2827,-329,-7430,-1,17,-1,1
38739,-2808,-319,-7438,-1,18,-1,1
38744,-2780,-316,-7458,-1,19,0,1
38749,-2762,-311,-7483,-1,19,0,1
38754,-2744,-315,-7507,-1,19,-1,1
38759,-2722,-324,-7530,-1,19,0,1
38764,-2709,-334,-7545,-1,18,0,1
38769,-2696,-344,-7559,0,19,-1,1
38774,-2684,-346,-7563,0,19,-1,1
38779,-2677,-349,-7566,0,20,-1,1
38784,-2662,-348,-7560,0,21,-1,1
38789,-2644,-348,-7551,0,22,-1,1
38794,-2625,-345,-7539,0,23,-1,1
38799,-2589,-341,-7540,-1,24,0,1
38804,-2543,-335,-7538,-1,24,0,1
38809,-2497,-327,-7537,-1,23,0,1
38814,-2447,-324,-7531,-1,22,0,1
38819,-2402,-324,-7527,-1,21,0,1
38824,-2364,-323,-7534,-1,19,0,1
38829,-2335,-321,-7550,-1,18,-1,1
38834,-2322,-323,-7564,-1,17,-1,1
38839,-2318,-324,-7582,-1,17,-1,1
38844,-2319,-326,-7602,-1,17,-1,1
38849,-2323,-331,-7619,-1,17,-1,1
38854,-2319,-338,-7642,-1,18,0,1
38859,-2311,-344,-7656,-1,19,0,1
38864,-2297,-350,-7670,-1,20,0,1
38869,-2277,-355,-7679,-1,20,0,1
38874,-2251,-356,-7681,0,20,0,1
38879,-2221,-359,-7680,0,19,0,1
38884,-2186,-361,-7671,0,19,0,1
38889,-2149,-358,-7664,-1,18,0,1
38894,-2111,-354,-7659,-1,17,-1,1
38899,-2070,-350,-7657,-1,16,-1,1
38904,-2038,-348,-7653,-1,14,-1,1
38909,-2010,-350,-7653,-1,13,-1,1
38914,-1991,-355,-7662,-1,12,-1,1
38919,-1980,-364,-7674,-1,11,-1,1
38924,-1971,-368,-7687,-1,10,-1,1
38929,-1971,-369,-7705,-1,9,-1,1
38934,-1974,-368,-7724,-1,9,-1,1
38939,-1979,-366,-7740,-1,9,-1,1
38944,-1988,-368,-7750,0,10,-1,1
38949,-1996,-366,-7757,0,10,-1,1
38954,-2001,-363,-7762,0,11,-1,1
38959,-2000,-359,-7764,0,12,-1,1
38964,-1993,-355,-7762,0,13,-1,1
38969,-1980,-355,-7758,0,13,0,1
38974,-1962,-348,-7755,0,13,0,1
38979,-1938,-345,-7751,-1,14,0,1
38984,-1916,-340,-7745,-1,14,0,1
38989,-1898,-339,-7744,-1,13,0,1
38994,-1882,-338,-7745,-1,13,0,1
38999,-1871,-335,-7749,-1,13,-1,1
39004,-1867,-337,-7756,-1,13,-1,1
39009,-1857,-339,-7762,-1,14,-1,1
39014,-1846,-340,-7773,-1,14,-1,1
39019,-1835,-342,-7778,-1,14,-1,1
39024,-1819,-342,-7784,-1,15,-1,1
39029,-1809,-346,-7792,-1,15,-1,1
39034,-1796,-347,-7801,-1,15,-1,1
39039,-1781,-348,-7814,0,15,-1,1
39044,-1771,-347,-7827,0,15,-1,1
39049,-1754,-346,-7827,0,15,-1,1
39054,-1733,-345,-7823,0,15,-1,1
39059,-1716,-344,-7819,0,15,-1,1
39064,-1699,-345,-7817,-1,15,0,1
39069,-1682,-342,-7820,-1,15,-1,1
39074,-1666,-335,-7826,-1,16,-1,1
39079,-1646,-331,-7834,-1,16,-1,1
39084,-1633,-325,-7846,-1,16,0,1
39089,-1614,-315,-7849,-1,16,0,1
39094,-1596,-309,-7856,-1,16,0,1
39099,-1581,-312,-7854,-1,16,0,1
39104,-1566,-315,-7857,-1,16,-1,1
39109,-1556,-318,-7859,-1,16,-1,1
39114,-1548,-317,-7865,-1,16,-1,1
39119,-1539,-317,-7871,-1,16,-1,1
39124,-1531,-316,-7879,-1,16,-1,1
39129,-1523,-320,-7888,-1,17,-1,1
39134,-1511,-325,-7893,-1,17,-1,1
39139,-1490,-328,-7895,-1,18,-1,1
39144,-1468,-331,-7900,-1,18,0,1
39149,-1441,-330,-7906,-1,18,0,1
39154,-1412,-329,-7905,-1,18,0,1
39159,-1376,-332,-7900,-1,17,-1,1
39164,-1343,-339,-7897,-1,16,0,1
39169,-1311,-348,-7902,-1,15,0,1
39174,-1285,-356,-7905,-1,14,-1,1
39179,-1266,-362,-7909,-1,13,-1,1
39184,-1252,-364,-7915,-1,12,-1,1
39189,-1237,-364,-7921,-1,11,0,1
39194,-1225,-364,-7926,-1,11,0,1
39199,-1217,-363,-7929,0,10,0,1
39204,-1206,-362,-7925,0,10,0,1
39209,-1193,-362,-7925,-1,10,-1,1
39214,-1182,-361,-7922,-1,9,-1,1
39219,-1171,-358,-7921,-1,9,-1,1
39224,-1160,-355,-7928,-1,9,-1,1
39229,-1149,-355,-7935,-1,8,0,1
39234,-1138,-352,-7942,-1,8,0,1
39239,-1125,-351,-7941,0,8,-1,1
39244,-1113,-351,-7941,-1,7,0,1
39249,-1097,-349,-7936,0,6,0,1
39254,-1083,-346,-7934,-1,6,0,1
39259,-1078,-344,-7932,-1,5,-1,1
39264,-1071,-343,-7933,-1,5,-1,1
39268,-1070,-344,-7935,-1,4,-1,1
39274,-1076,-347,-7939,-1,4,-1,1
39279,-1085,-348,-7941,-1,5,-1,1
39284,-1093,-348,-7954,-1,5,-1,1
39289,-1097,-346,-7964,-1,6,-1,1
39294,-1101,-343,-7972,-1,6,-1,1
39299,-1103,-341,-7985,-1,7,-1,1
39304,-1100,-341,-7991,-1,7,0,1
39309,-1088,-342,-7991,0,7,0,1
39314,-1074,-337,-7986,0,7,0,1
39319,-1060,-336,-7974,0,7,0,1
39324,-1046,-333,-7963,0,7,0,1
39329,-1033,-330,-7959,0,7,-1,1
39334,-1019,-329,-7956,-1,7,-1,1
39339,-1010,-331,-7958,-1,7,-1,1
39344,-1007,-332,-7962,-1,7,-1,1
39349,-1010,-335,-7967,-1,7,-1,1
39354,-1011,-338,-7981,-1,8,-1,1
39359,-1011,-347,-7996,-1,8,-1,1
39363,-1011,-349,-8006,-1,9,-1,1
39368,-1013,-346,-8011,0,9,-1,1
39374,-1012,-344,-8011,0,10,-1,1
39379,-1006,-342,-8009,0,10,-1,1
39384,-998,-341,-8005,0,11,-1,1
39389,-984,-340,-7998,-1,11,-1,1
39394,-967,-338,-7990,-1,12,-1,1
39399,-949,-338,-7985,-1,12,-1,1
39404,-929,-338,-7984,-1,12,0,1
39408,-906,-334,-7981,-1,11,0,1
39414,-882,-334,-7983,-1,11,-1,1
39419,-855,-336,-7982,-1,10,-1,1
39423,-831,-338,-7987,-1,9,-1,1
39429,-811,-337,-7994,-1,9,-1,1
39433,-797,-339,-8000,-1,8,-1,1
39438,-786,-340,-8000,-1,7,-1,1
39443,-781,-339,-8003,-1,7,-1,1
39448,-778,-339,-8011,-1,7,-1,1
39453,-777,-336,-8013,-1,7,-1,1
39459,-776,-334,-8012,0,7,0,1
39464,-767,-333,-8010,0,7,0,1
39468,-751,-333,-8011,-1,7,0,1
39473,-735,-330,-8008,0,6,0,1
39479,-716,-334,-8010,0,6,0,1
39484,-693,-334,-8006,0,5,0,1
39489,-670,-337,-8006,0,4,-1,1
39493,-655,-337,-8010,0,2,-1,1
39498,-646,-337,-8015,0,1,-1,1
39504,-642,-337,-8013,-1,0,-1,1
39509,-644,-337,-8012,0,0,-1,1
39514,-645,-337,-8005,0,-1,-1,1
39518,-649,-336,-8002,0,-1,-1,1
39524,-648,-334,-7999,0,-1,0,1
39528,-650,-332,-7997,0,-2,0,1
39533,-649,-333,-7997,0,-2,0,1
39538,-648,-337,-7997,0,-3,0,1
39543,-653,-337,-8000,-1,-3,-1,1
39548,-663,-337,-8005,-1,-3,-1,1
39553,-681,-338,-8013,-1,-3,-1,1
39558,-706,-337,-8023,-1,-3,-1,1
39563,-731,-336,-8027,-1,-2,-1,1
39568,-753,-337,-8030,-1,-1,-1,1
39573,-767,-337,-8028,0,0,0,1
39578,-777,-337,-8028,0,1,0,1
39583,-781,-338,-8027,0,2,0,1
39588,-777,-338,-8028,-1,3,0,1
39593,-768,-339,-8029,-1,3,0,1
39598,-758,-339,-8029,-1,3,0,1
39604,-744,-340,-8027,0,4,-1,1
39609,-729,-340,-8022,0,3,0,1
39613,-715,-341,-8021,-1,3,0,1
39618,-706,-341,-8023,0,2,0,1
39623,-698,-342,-8023,-1,2,0,1
39628,-694,-344,-8016,-1,2,0,1
39633,-691,-344,-8012,-1,2,-1,1
39638,-688,-346,-8009,-1,2,-1,1
39643,-683,-344,-8008,-1,1,-1,1
39648,-678,-342,-8008,-1,1,-1,1
39653,-678,-343,-8013,-1,1,-1,1
39658,-678,-342,-8017,-1,1,-1,1
39663,-679,-340,-8025,0,1,0,1
39668,-682,-340,-8028,0,1,0,1
39673,-686,-340,-8030,0,1,-1,1
39678,-686,-339,-8034,-1,1,-1,1
39683,-685,-340,-8040,-1,1,-1,1
39688,-685,-340,-8036,-1,1,-1,1
39693,-682,-338,-8031,-1,2,0,1
39698,-681,-338,-8026,0,2,-1,1
39703,-677,-341,-8017,-1,2,0,1
39708,-676,-340,-8019,0,2,0,1
39713,-675,-341,-8020,0,2,-1,1
39718,-679,-342,-8024,0,2,-1,1
39723,-684,-342,-8028,0,2,-1,1
39728,-690,-339,-8038,0,2,-1,1
39733,-698,-338,-8043,0,3,-1,1
39738,-710,-338,-8046,0,4,0,1
39743,-723,-337,-8050,0,5,0,1
39748,-734,-337,-8054,0,6,-1,1
39753,-740,-339,-8058,-1,7,0,1
39758,-738,-340,-8058,-1,8,0,1
39763,-730,-335,-8051,-1,9,0,1
39768,-721,-331,-8046,-1,10,-1,1
39773,-708,-332,-8037,-1,10,-1,1
39778,-694,-334,-8032,-1,11,-1,1
39783,-682,-336,-8025,-1,11,-1,1
39788,-665,-335,-8028,-1,11,-1,1
39793,-652,-334,-8038,-1,12,-1,1
39798,-640,-334,-8049,-1,12,-1,1
39803,-633,-334,-8063,-1,12,-1,1
39808,-631,-332,-8078,-1,13,-1,1
39813,-635,-335,-8088,-1,14,-1,1
39818,-635,-334,-8092,0,15,-1,1
39823,-631,-330,-8094,0,17,-1,1
39828,-621,-326,-8088,-1,18,-1,1
39833,-602,-322,-8082,-1,19,0,1
39838,-576,-319,-8077,-1,20,0,1
39843,-542,-313,-8071,-1,21,0,1
39848,-501,-306,-8062,0,21,0,1
39853,-458,-303,-8057,-1,20,0,1
39858,-424,-298,-8054,-1,20,0,1
39863,-391,-295,-8051,-1,19,0,1
39868,-361,-294,-8049,-1,19,0,1
39873,-339,-292,-8049,-1,19,-1,1
39878,-326,-293,-8054,-1,18,0,1
39883,-313,-295,-8065,-1,18,0,1
39888,-302,-297,-8077,-1,19,0,1
39893,-290,-302,-8087,-1,19,0,1
39898,-276,-303,-8093,-1,20,0,1
39903,-259,-305,-8091,-1,20,0,1
39908,-241,-305,-8090,-1,21,0,1
39913,-217,-306,-8094,-1,21,0,1
39918,-189,-309,-8092,0,21,0,1
39923,-158,-316,-8090,-1,20,0,1
39928,-123,-323,-8081,-1,20,0,1
39933,-86,-325,-8072,-1,19,0,1
39938,-49,-324,-8066,-1,18,0,1
39943,-20,-319,-8060,-1,17,0,1
39948,0,-318,-8056,-1,16,0,1
39953,28,-325,-8061,-1,15,0,1
39958,58,-336,-8064,-1,14,0,1
39963,87,-343,-8063,-1,13,0,1
39968,113,-347,-8064,-1,11,0,1
39973,137,-352,-8068,-1,10,0,1
39978,153,-353,-8075,-1,8,0,1
39983,165,-357,-8077,-1,7,0,1
39988,174,-359,-8079,-1,5,0,1
39993,179,-363,-8079,0,5,0,1
39998,183,-365,-8077,0,4,0,1
40003,188,-365,-8079,0,3,0,1
40008,192,-361,-8076,0,2,0,1
40013,198,-358,-8077,-1,2,-1,1
40018,204,-353,-8076,-1,1,-1,1
40023,208,-349,-8076,0,1,-1,1
40028,204,-347,-8078,0,0,-1,1
40033,193,-343,-8077,0,0,0,1
40038,184,-343,-8083,0,0,-1,1
40043,177,-344,-8090,0,0,-1,1
40048,172,-345,-8099,0,0,-1,1
40053,172,-345,-8100,0,1,-1,1
40058,174,-342,-8102,-1,1,0,1
40063,177,-341,-8106,0,0,0,1
40068,180,-338,-8112,0,0,-1,1
40073,182,-335,-8110,-1,0,0,1
40078,182,-331,-8106,-1,0,-1,1
40083,181,-329,-8101,-1,0,-1,1
40088,180,-327,-8101,-1,0,-1,1
40093,179,-327,-8107,-1,0,-1,1
40098,175,-328,-8116,0,0,-1,1
40103,171,-325,-8119,0,0,0,1
40108,165,-326,-8120,0,0,-1,1
40113,161,-327,-8118,0,0,-1,1
40118,155,-326,-8118,0,1,0,1
40123,150,-326,-8114,0,1,-1,1
40128,148,-326,-8108,0,2,0,1
40133,146,-325,-8105,-1,2,0,1
40138,146,-323,-8106,-1,2,0,1
40143,151,-324,-8108,-1,2,-1,1
40148,154,-327,-8112,-1,2,0,1
40153,152,-330,-8119,0,3,-1,1
40158,147,-328,-8121,0,3,-1,1
40163,142,-325,-8129,0,3,-1,1
40168,135,-323,-8136,0,4,-1,1
40173,128,-320,-8138,0,5,0,1
40178,121,-311,-8140,0,6,0,1
40183,117,-303,-8142,0,7,0,1
40188,116,-298,-8147,0,9,0,1
40193,118,-294,-8148,0,10,0,1
40198,121,-291,-8148,-1,12,0,1
40203,118,-292,-8138,-1,13,0,1
40208,121,-298,-8131,-1,14,0,1
40213,135,-310,-8124,-1,14,0,1
40218,159,-318,-8124,-1,15,-1,1
40223,183,-326,-8135,-1,15,-1,1
40228,200,-335,-8139,0,14,0,1
40233,211,-343,-8138,0,14,0,1
40238,226,-346,-8140,0,15,-1,1
40243,238,-347,-8136,0,15,-1,1
40248,248,-345,-8133,0,15,0,1
40253,261,-344,-8131,0,16,-1,1
40258,280,-345,-8121,0,17,-1,1
40263,298,-343,-8114,-1,17,0,1
40268,318,-342,-8107,-1,18,-1,1
40273,341,-339,-8105,-1,18,0,1
40278,367,-333,-8105,-1,18,0,1
40283,403,-329,-8110,-1,18,0,1
40288,435,-326,-8111,0,18,0,1
40293,462,-328,-8106,0,17,0,1
40298,486,-323,-8105,0,17,0,1
40303,511,-319,-8098,0,16,0,1
40308,531,-313,-8093,-1,16,0,1
40313,550,-311,-8093,-1,16,0,1
40318,567,-312,-8089,0,16,-1,1
40323,585,-314,-8090,-1,16,-1,1
40328,603,-316,-8099,-1,16,-1,1
40333,616,-320,-8101,-1,16,0,1
40338,632,-326,-8101,-1,16,0,1
40343,655,-329,-8099,-1,16,0,1
40348,681,-328,-8099,0,15,0,1
40353,708,-323,-8096,-1,14,0,1
40358,741,-320,-8088,-1,13,0,1
40363,772,-317,-8081,-1,13,0,1
40368,794,-315,-8075,0,11,0,1
40373,812,-316,-8076,-1,11,-1,1
40378,827,-320,-8079,-1,10,0,1
40383,839,-325,-8085,-1,9,0,1
40388,850,-329,-8080,0,8,0,1
40393,858,-333,-8076,-1,8,0,1
40398,864,-334,-8076,0,7,0,1
40403,872,-335,-8077,0,6,0,1
40408,881,-339,-8084,-1,6,0,1
40413,882,-343,-8092,0,6,0,1
40418,881,-343,-8099,0,6,0,1
40423,875,-341,-8105,0,6,-1,1
40428,867,-337,-8109,0,6,0,1
40433,859,-330,-8116,-1,7,0,1
40438,857,-321,-8117,-1,8,0,1
40443,853,-314,-8121,-1,9,0,1
40448,853,-309,-8123,-1,10,0,1
40453,857,-308,-8121,-1,11,0,1
40458,868,-311,-8116,0,12,0,1
40463,884,-315,-8107,0,12,0,1
40468,899,-322,-8104,-1,12,0,1
40473,916,-327,-8101,-1,12,0,1
40478,937,-332,-8093,-1,11,0,1
40483,959,-336,-8090,-1,10,0,1
40488,976,-338,-8087,-1,10,0,1
40493,990,-336,-8087,0,9,0,1
40498,994,-336,-8095,0,9,0,1
40503,995,-334,-8104,-1,9,0,1
40508,992,-326,-8107,-1,10,0,1
40513,995,-319,-8109,0,11,0,1
40518,999,-312,-8112,0,12,0,1
40523,1004,-307,-8111,0,13,0,1
40528,1017,-307,-8109,0,14,0,1
40533,1038,-306,-8103,0,14,0,1
40538,1066,-310,-8097,-1,14,0,1
40543,1096,-312,-8085,-1,14,0,1
40548,1127,-311,-8077,-1,13,0,1
40553,1155,-311,-8065,-1,12,0,1
40558,1181,-311,-8054,-1,11,0,1
40563,1206,-315,-8041,-1,10,0,1
40568,1227,-321,-8027,-1,8,0,1
40573,1253,-332,-8020,-1,6,0,1
40578,1275,-344,-8017,-1,4,0,1
40583,1294,-358,-8018,-1,2,0,1
40588,1308,-360,-8018,-1,0,-1,1
40593,1318,-356,-8030,-1,-1,-1,1
40598,1316,-351,-8045,-1,-3,-1,1
40603,1303,-346,-8056,0,-3,-1,1
40608,1281,-344,-8060,0,-3,-1,1
40613,1260,-340,-8061,-1,-3,-1,1
40618,1242,-337,-8064,-1,-2,-1,1
40623,1230,-335,-8062,-1,-1,-1,1
40628,1228,-335,-8060,-1,-1,0,1
40633,1238,-332,-8060,-1,-1,0,1
40638,1252,-333,-8060,-1,-1,0,1
40643,1266,-331,-8061,-1,-2,0,1
40648,1269,-330,-8060,0,-3,-1,1
40653,1271,-329,-8057,-1,-3,-1,1
40658,1269,-329,-8061,-1,-4,-1,1
40663,1260,-329,-8061,-1,-4,-1,1
40668,1244,-327,-8069,-1,-4,-1,1
40673,1224,-330,-8082,0,-4,-1,1
40678,1203,-331,-8095,-1,-3,-1,1
40683,1177,-331,-8112,-1,-2,-1,1
40688,1155,-332,-8124,-1,-1,-1,1
40693,1132,-333,-8129,0,1,-1,1
40698,1120,-332,-8129,0,2,0,1
40703,1117,-326,-8128,0,3,0,1
40708,1123,-324,-8121,0,4,0,1
40713,1139,-326,-8108,0,5,0,1
40718,1161,-330,-8091,0,4,0,1
40723,1188,-329,-8077,-1,4,0,1
40728,1218,-325,-8064,-1,2,-1,1
40733,1239,-326,-8058,-1,1,-1,1
40738,1254,-326,-8054,-1,0,-1,1
40743,1257,-327,-8051,-1,-1,-1,1
40748,1252,-328,-8054,-1,-2,-1,1
40753,1240,-328,-8057,-1,-2,-1,1
40758,1225,-329,-8063,-1,-1,-1,1
40763,1212,-328,-8079,-1,0,-1,1
40768,1201,-328,-8091,-1,1,-1,1
40773,1193,-327,-8104,-1,1,-1,1
40778,1188,-328,-8108,0,2,-1,1
40783,1194,-329,-8110,0,3,-1,1
40788,1204,-327,-8103,0,3,0,1
40793,1215,-328,-8098,-1,2,0,1
40798,1229,-329,-8092,-1,2,-1,1
40803,1243,-330,-8084,-1,1,-1,1
40808,1256,-329,-8077,-1,1,0,1
40813,1267,-329,-8066,-1,0,-1,1
40818,1277,-326,-8061,-1,-1,-1,1
40823,1278,-324,-8058,-1,-1,-1,1
40828,1279,-324,-8055,-1,-2,-1,1
40833,1277,-321,-8060,-1,-2,-1,1
40838,1267,-324,-8066,-1,-2,-1,1
40843,1255,-327,-8082,-1,-2,-1,1
40848,1237,-326,-8090,-1,-2,-1,1
40853,1217,-324,-8097,-1,-1,-1,1
40858,1201,-327,-8101,-1,0,-1,1
40863,1188,-326,-8102,-1,1,-1,1
40868,1181,-324,-8100,-1,2,-1,1
40873,1181,-325,-8096,-1,2,-1,1
40878,1187,-331,-8089,-1,3,-1,1
40883,1194,-332,-8081,-1,3,-1,1
40888,1200,-331,-8073,-1,3,-1,1
40893,1204,-332,-8078,-1,3,-1,1
40898,1212,-331,-8085,-1,3,-1,1
40903,1217,-331,-8088,-1,3,-1,1
40908,1221,-328,-8091,-1,2,-1,1
40913,1225,-326,-8092,-1,2,-1,1
40918,1223,-324,-8093,-1,3,-1,1
40923,1220,-321,-8099,-1,3,-1,1
40928,1214,-319,-8104,-1,4,-1,1
40933,1210,-318,-8108,-1,5,-1,1
40938,1209,-321,-8104,0,5,-1,1
40943,1211,-322,-8100,0,6,-1,1
40948,1213,-323,-8096,0,7,-1,1
40953,1219,-324,-8091,0,7,-1,1
40958,1230,-327,-8087,0,8,-1,1
40963,1247,-326,-8079,-1,8,-1,1
40968,1270,-328,-8075,0,8,-1,1
40973,1292,-327,-8073,0,7,-1,1
40978,1310,-324,-8068,-1,6,-1,1
40983,1323,-324,-8063,0,6,-1,1
40988,1339,-326,-8059,0,5,-1,1
40993,1359,-327,-8060,0,5,-1,1
40998,1375,-328,-8055,-1,4,-1,1
41003,1390,-327,-8046,-1,3,-1,1
41008,1403,-324,-8040,0,3,-1,1
41013,1408,-321,-8042,-1,2,-1,1
41018,1411,-320,-8042,0,1,-1,1
41023,1412,-322,-8042,-1,1,-1,1
41028,1410,-322,-8041,0,0,-1,1
41033,1407,-321,-8041,-1,0,-1,1
41038,1400,-320,-8048,-1,0,-1,1
41043,1395,-318,-8054,0,0,-1,1
41048,1387,-318,-8056,0,1,-1,1
41053,1382,-319,-8062,-1,1,-1,1
41058,1377,-321,-8062,-1,2,-1,1
41063,1375,-321,-8062,-1,2,-1,1
41068,1372,-324,-8066,-1,2,-1,1
41073,1374,-327,-8065,-1,2,-1,1
41078,1377,-327,-8063,-1,2,-1,1
41083,1381,-325,-8056,-1,2,-1,1
41088,1386,-320,-8055,-1,2,-1,1
41093,1390,-320,-8058,0,2,-1,1
41098,1393,-318,-8061,0,2,-1,1
41103,1392,-316,-8063,0,2,-1,1
41108,1394,-318,-8063,0,2,-1,1
41113,1398,-319,-8055,0,2,-1,1
41118,1402,-318,-8051,0,3,-1,1
41123,1411,-319,-8052,-1,2,-1,1
41128,1421,-319,-8052,-1,2,-1,1
41133,1431,-319,-8047,-1,2,-1,1
41138,1442,-320,-8044,-1,1,-1,1
41143,1452,-322,-8045,-1,1,0,1
41148,1460,-323,-8044,-1,0,-1,1
41153,1462,-325,-8042,-1,0,-1,1
41158,1462,-324,-8040,-1,-1,-1,1
41163,1461,-324,-8040,-1,-1,-1,1
41168,1458,-324,-8041,-1,-1,-1,1
41173,1455,-321,-8041,-1,-2,0,1
41178,1451,-321,-8046,-1,-2,-1,1
41183,1446,-318,-8049,-1,-2,-1,1
41188,1439,-317,-8060,-1,-2,-1,1
41193,1433,-317,-8066,-1,-1,-1,1
41198,1430,-316,-8064,0,-1,-1,1
41203,1427,-318,-8061,0,-1,-1,1
41208,1424,-318,-8063,-1,-1,-1,1
41213,1423,-317,-8065,-1,-1,-1,1
41218,1423,-319,-8064,-1,-1,-1,1
41223,1423,-321,-8058,0,-1,-1,1
41228,1424,-324,-8054,0,-1,-1,1
41233,1427,-323,-8049,-1,-1,-1,1
41238,1431,-322,-8048,-1,-2,-1,1
41243,1438,-322,-8044,-1,-2,-1,1
41248,1442,-320,-8046,-1,-2,-1,1
41253,1443,-321,-8043,-1,-3,-1,1
41258,1442,-322,-8047,0,-3,-1,1
41263,1438,-323,-8049,0,-3,-1,1
41268,1434,-326,-8050,0,-3,-1,1
41273,1428,-328,-8052,0,-3,-1,1
41278,1419,-330,-8048,0,-3,-1,1
41283,1412,-332,-8048,-1,-3,-1,1
41288,1409,-334,-8045,-1,-2,-1,1
41293,1410,-330,-8047,-1,-2,-1,1
41298,1412,-330,-8050,-1,-2,-1,1
41303,1414,-326,-8047,-1,-3,-1,1
41308,1419,-327,-8044,-1,-3,-1,1
41313,1419,-327,-8045,0,-3,-1,1
41318,1415,-327,-8041,0,-3,-1,1
41323,1407,-323,-8037,0,-3,-1,1
41328,1405,-321,-8036,0,-4,-1,1
41333,1400,-318,-8047,-1,-4,-1,1
41338,1392,-318,-8051,0,-4,-1,1
41343,1385,-317,-8057,0,-3,-1,1
41348,1378,-319,-8063,0,-3,-1,1
41353,1382,-321,-8062,0,-3,-1,1
41358,1386,-322,-8066,0,-3,-1,1
41363,1382,-325,-8069,0,-4,-1,1
41368,1376,-329,-8073,0,-4,-1,1
41373,1367,-330,-8077,0,-3,-1,1
41378,1361,-329,-8075,0,-3,-1,1
41383,1363,-329,-8071,0,-3,-1,1
41388,1375,-326,-8071,0,-3,-1,1
41393,1392,-323,-8068,0,-4,-1,1
41398,1406,-323,-8064,0,-5,-1,1
41403,1393,-322,-8064,0,-6,-1,1
41408,1366,-322,-8060,0,-6,-1,1
41413,1344,-322,-8061,-1,-5,-1,1
41418,1328,-324,-8068,-1,-4,-1,1
41423,1326,-321,-8073,-1,-3,-1,1
41428,1327,-319,-8075,-1,-3,-1,1
41433,1327,-318,-8078,0,-3,-1,1
41438,1322,-319,-8083,0,-3,-1,1
41443,1312,-321,-8084,0,-3,-1,1
41448,1307,-320,-8085,0,-3,-1,1
41453,1306,-322,-8090,0,-3,-1,1
41458,1303,-322,-8090,0,-2,-1,1
41463,1303,-321,-8085,0,-2,-1,1
41468,1307,-319,-8078,0,-2,-1,1
41473,1317,-319,-8070,0,-2,-1,1
41478,1337,-318,-8066,0,-3,-1,1
41483,1352,-320,-8063,0,-4,-1,1
41488,1342,-319,-8066,0,-5,-1,1
41493,1317,-319,-8067,0,-5,-1,1
41498,1284,-320,-8072,0,-4,-1,1
41503,1259,-319,-8080,-1,-3,-1,1
41508,1254,-317,-8079,-1,-2,-1,1
41513,1252,-317,-8085,0,-1,-1,1
41518,1250,-317,-8093,0,-1,-1,1
41523,1239,-319,-8099,0,-1,-1,1
41528,1223,-321,-8098,0,0,-1,1
41533,1215,-326,-8100,0,1,-1,1
41538,1209,-327,-8103,0,2,-1,1
41543,1211,-327,-8110,0,3,-1,1
41548,1215,-325,-8107,0,3,-1,1
41553,1222,-324,-8098,0,3,-1,1
41558,1230,-327,-8091,0,4,-1,1
41563,1240,-328,-8082,0,4,-1,1
41568,1248,-329,-8076,0,4,-1,1
41573,1255,-330,-8075,0,4,-1,1
41578,1261,-327,-8074,0,4,-1,1
41583,1286,-326,-8067,-1,4,-1,1
41588,1318,-323,-8061,-1,3,-1,1
41593,1321,-320,-8066,0,1,-1,1
41598,1319,-317,-8067,0,1,-1,1
41603,1308,-313,-8071,0,1,-1,1
41608,1304,-316,-8075,0,2,-1,1
41613,1308,-316,-8079,0,2,-1,1
41618,1311,-316,-8076,0,2,-1,1
41623,1316,-317,-8069,0,2,-1,1
41628,1323,-318,-8064,0,2,-1,1
41633,1331,-320,-8056,0,2,-1,1
41638,1335,-324,-8051,0,1,-1,1
41643,1338,-324,-8052,0,1,-1,1
41648,1338,-324,-8054,0,1,-1,1
41653,1337,-324,-8054,0,1,-1,1
41658,1343,-323,-8054,0,1,-1,1
41663,1362,-323,-8050,0,1,-1,1
41668,1374,-319,-8043,0,0,-1,1
41673,1379,-318,-8049,-1,-1,-1,1
41678,1383,-321,-8050,0,-1,-1,1
41683,1383,-322,-8050,0,-1,-1,1
41688,1385,-321,-8054,0,-2,-1,1
41693,1378,-320,-8057,0,-2,0,1
41698,1369,-318,-8059,-1,-2,-1,1
41703,1361,-318,-8063,-1,-2,-1,1
41708,1354,-317,-8061,-1,-2,-1,1
41713,1344,-315,-8063,-1,-1,-1,1
41718,1329,-318,-8061,0,-1,-1,1
41723,1317,-320,-8065,0,0,-1,1
41728,1307,-319,-8068,-1,0,-1,1
41733,1302,-318,-8067,-1,1,-1,1
41738,1303,-316,-8073,-1,2,-1,1
41743,1307,-315,-8072,-1,2,-1,1
41748,1314,-314,-8073,-1,2,-1,1
41753,1324,-312,-8068,-1,2,-1,1
41758,1333,-313,-8066,-1,1,0,1
41763,1335,-312,-8064,-1,1,-1,1
41768,1336,-312,-8061,-1,1,-1,1
41773,1333,-314,-8057,-1,1,-1,1
41778,1330,-314,-8055,-1,1,-1,1
41783,1329,-316,-8062,-1,2,-1,1
41788,1330,-312,-8063,-1,2,-1,1
41793,1342,-311,-8066,0,2,-1,1
41798,1356,-309,-8070,0,1,-1,1
41803,1365,-311,-8076,0,1,-1,1
41808,1367,-312,-8073,-1,0,-1,1
41813,1370,-317,-8067,-1,0,-1,1
41818,1373,-320,-8064,-1,0,-1,1
41823,1376,-322,-8064,-1,0,-1,1
41827,1382,-322,-8062,-1,0,-1,1
41833,1385,-322,-8061,0,0,0,1
41838,1385,-322,-8056,0,0,0,1
41843,1390,-319,-8049,-1,-1,0,1
41848,1396,-317,-8043,-1,-1,0,1
41853,1398,-316,-8042,-1,-1,0,1
41858,1398,-314,-8040,-1,-2,-1,1
41863,1394,-315,-8035,-1,-2,-1,1
41868,1392,-314,-8034,-1,-2,-1,1
41873,1384,-314,-8040,-1,-2,-1,1
41877,1372,-310,-8048,-1,-2,-1,1
41883,1360,-307,-8057,0,-1,-1,1
41888,1347,-307,-8069,0,-1,-1,1
41892,1337,-311,-8078,0,0,-1,1
41898,1327,-313,-8083,0,1,-1,1
41903,1318,-315,-8083,0,1,-1,1
41908,1316,-314,-8080,0,2,0,1
41913,1322,-315,-8074,0,3,0,1
41918,1334,-315,-8069,0,3,0,1
41923,1348,-315,-8065,-1,2,0,1
41927,1368,-315,-8063,-1,2,-1,1
41933,1378,-314,-8060,-1,1,-1,1
41938,1384,-310,-8055,0,1,0,1
41943,1387,-313,-8055,0,0,-1,1
41948,1383,-315,-8060,0,0,-1,1
41952,1378,-316,-8059,0,0,-1,1
41958,1372,-313,-8065,0,0,-1,1
41963,1362,-312,-8072,0,1,-1,1
41967,1351,-311,-8077,0,2,-1,1
41973,1339,-309,-8081,0,3,-1,1
41978,1338,-309,-8079,0,4,-1,1
41982,1341,-310,-8067,0,4,0,1
41988,1353,-313,-8063,0,5,-1,1
41992,1369,-316,-8061,0,4,-1,1
41998,1383,-319,-8059,0,4,-1,1
42003,1394,-320,-8052,0,4,-1,1
42007,1396,-319,-8044,-1,3,-1,1
42012,1396,-318,-8043,-1,3,-1,1
42017,1398,-320,-8045,-1,4,-1,1
42022,1400,-319,-8047,-1,4,-1,1
42028,1408,-315,-8052,-1,4,-1,1
42032,1422,-315,-8053,-1,4,-1,1
42038,1436,-317,-8053,-1,3,-1,1
42042,1445,-320,-8046,-1,3,-1,1
42047,1455,-319,-8043,-1,2,-1,1
42052,1465,-319,-8037,0,2,-1,1
42058,1477,-323,-8030,-1,1,-1,1
42062,1496,-325,-8027,-1,1,-1,1
42068,1509,-327,-8026,-1,0,-1,1
42073,1519,-327,-8022,0,-1,-1,1
42077,1533,-328,-8017,0,-2,-1,1
42082,1551,-327,-8019,0,-3,-1,1
42087,1564,-330,-8017,0,-5,-1,1
42092,1552,-327,-8024,0,-6,-1,1
42097,1527,-325,-8038,0,-7,-1,1
42102,1504,-325,-8042,0,-6,-1,1
42107,1484,-322,-8045,0,-6,-1,1
42112,1471,-321,-8038,-1,-5,-1,1
42117,1464,-320,-8042,-1,-5,-1,1
42122,1458,-319,-8045,-1,-5,-1,1
42127,1451,-320,-8044,-1,-5,-1,1
42132,1448,-320,-8047,-1,-5,-1,1
42138,1448,-319,-8050,0,-5,-1,1
42142,1443,-319,-8057,0,-6,-1,1
42147,1435,-317,-8060,0,-6,0,1
42152,1423,-317,-8065,0,-6,-1,1
42157,1406,-318,-8067,0,-5,0,1
42162,1385,-318,-8067,0,-5,0,1
42167,1365,-319,-8070,0,-4,-1,1
42172,1346,-322,-8076,0,-3,0,1
42177,1332,-324,-8079,0,-2,-1,1
42182,1321,-323,-8081,0,-1,-1,1
42187,1315,-318,-8081,0,0,-1,1
42192,1315,-316,-8084,0,0,-1,1
42197,1318,-314,-8090,0,1,-1,1
42202,1320,-313,-8088,0,1,-1,1
42207,1323,-315,-8085,0,2,-1,1
42212,1327,-318,-8084,0,2,-1,1
42217,1331,-318,-8079,0,2,-1,1
42222,1336,-319,-8075,0,2,0,1
42227,1345,-319,-8072,0,2,-1,1
42232,1354,-320,-8071,-1,2,-1,1
42237,1361,-320,-8067,0,2,-1,1
42242,1368,-324,-8071,0,2,-1,1
42247,1374,-325,-8068,0,2,0,1
42252,1379,-325,-8064,0,2,-1,1
42257,1384,-322,-8054,0,2,-1,1
42262,1387,-320,-8044,-1,2,-1,1
42267,1392,-319,-8034,-1,1,-1,1
42272,1397,-319,-8025,-1,1,-1,1
42277,1404,-320,-8026,-1,1,-1,1
42282,1409,-319,-8034,-1,0,-1,1
42287,1409,-321,-8040,0,0,-1,1
42292,1408,-317,-8042,0,0,-1,1
42297,1401,-315,-8048,-1,0,-1,1
42302,1394,-315,-8051,0,0,-1,1
42307,1386,-314,-8057,0,1,-1,1
42312,1379,-315,-8063,0,1,-1,1
42317,1373,-315,-8064,-1,2,-1,1
42322,1369,-316,-8056,-1,3,-1,1
42327,1371,-317,-8053,-1,3,-1,1
42332,1378,-320,-8054,0,3,-1,1
42337,1388,-321,-8053,-1,3,-1,1
42342,1401,-324,-8055,0,3,-1,1
42347,1417,-325,-8052,-1,3,0,1
42352,1430,-323,-8050,-1,2,0,1
42357,1440,-321,-8045,-1,2,0,1
42362,1447,-320,-8039,-1,1,-1,1
42367,1451,-321,-8039,-1,1,-1,1
42372,1453,-319,-8041,0,0,-1,1
42377,1454,-321,-8045,-1,0,-1,1
42382,1448,-322,-8050,-1,0,-1,1
42387,1442,-324,-8051,-1,0,-1,1
42392,1437,-325,-8056,-1,0,-1,1
42397,1432,-323,-8056,0,1,-1,1
42402,1429,-322,-8056,0,1,-1,1
42407,1431,-321,-8055,0,2,-1,1
42412,1434,-321,-8055,0,2,-1,1
42417,1438,-318,-8054,0,2,-1,1
42422,1441,-317,-8054,-1,2,-1,1
42427,1444,-318,-8054,0,1,-1,1
42432,1449,-319,-8055,0,1,-1,1
42437,1450,-319,-8058,0,1,0,1
42442,1452,-317,-8060,0,1,-1,1
42447,1452,-316,-8062,0,1,-1,1
42452,1455,-314,-8062,0,2,-1,1
42457,1454,-314,-8069,0,2,-1,1
42462,1456,-318,-8066,-1,2,-1,1
42467,1461,-315,-8063,0,2,-1,1
42472,1466,-315,-8057,0,2,0,1
42477,1474,-316,-8053,-1,2,0,1
42482,1485,-313,-8052,0,1,-1,1
42487,1497,-314,-8051,0,1,-1,1
42492,1505,-312,-8047,0,0,-1,1
42497,1510,-313,-8038,0,0,-1,1
42502,1514,-316,-8034,0,-1,-1,1
42507,1514,-316,-8035,0,-1,-1,1
42512,1510,-313,-8037,0,-2,-1,1
42517,1505,-315,-8038,0,-2,-1,1
42522,1499,-313,-8039,-1,-2,-1,1
42527,1495,-312,-8042,0,-2,-1,1
42532,1490,-311,-8046,0,-2,-1,1
42537,1486,-314,-8053,0,-1,0,1
42542,1482,-316,-8059,0,-1,0,1
42547,1481,-313,-8056,0,-1,0,1
42552,1478,-310,-8056,0,-1,0,1
42557,1476,-307,-8056,0,-1,-1,1
42562,1472,-306,-8054,0,-1,-1,1
42567,1469,-307,-8057,-1,-1,-1,1
42572,1465,-308,-8059,-1,-1,-1,1
42577,1461,-307,-8055,-1,-1,-1,1
42582,1458,-309,-8052,-1,-1,-1,1
42587,1454,-312,-8050,-1,-1,-1,1
42592,1452,-311,-8053,0,-1,0,1
42597,1451,-312,-8057,0,0,-1,1
42602,1446,-313,-8061,0,0,0,1
42607,1441,-313,-8066,0,0,-1,1
42612,1437,-314,-8065,0,0,-1,1
42617,1438,-316,-8065,0,1,-1,1
42622,1437,-317,-8064,0,1,-1,1
42627,1439,-319,-8063,-1,2,-1,1
42632,1443,-321,-8062,0,2,0,1
42637,1452,-323,-8059,0,2,0,1
42642,1464,-323,-8055,0,2,0,1
42647,1477,-321,-8046,0,1,0,1
42652,1493,-319,-8038,0,1,0,1
42657,1507,-320,-8032,0,0,-1,1
42662,1520,-318,-8028,0,-1,0,1
42667,1525,-318,-8023,-1,-2,-1,1
42672,1527,-318,-8026,-1,-2,0,1
42677,1524,-317,-8029,-1,-3,-1,1
42682,1518,-321,-8029,-1,-3,-1,1
42687,1509,-324,-8030,-1,-3,-1,1
42692,1498,-322,-8036,-1,-3,-1,1
42697,1485,-322,-8043,-1,-3,-1,1
42702,1472,-321,-8048,0,-2,-1,1
42707,1459,-319,-8062,0,-2,-1,1
42712,1452,-317,-8074,0,-1,-1,1
42717,1449,-317,-8082,0,-1,-1,1
