millis,ax,ay,az,gx,gy,gz,label
384339,967,-8282,325,-2,-3,-2,0
384344,969,-8282,335,-2,-3,-2,1
384349,971,-8281,346,-2,-3,-2,1
384354,974,-8282,354,-2,-3,-2,1
384359,979,-8283,359,-2,-3,-2,1
384364,983,-8282,360,-2,-4,-2,1
384369,979,-8279,359,-2,-4,-2,1
384374,970,-8278,354,-2,-4,-2,1
384379,961,-8278,352,-2,-4,-2,1
384384,954,-8281,345,-2,-5,-2,1
384389,949,-8282,335,-2,-5,-2,1
384394,946,-8283,329,-2,-6,-2,1
384399,945,-8284,326,-2,-6,-2,1
384404,944,-8284,320,-2,-6,-2,1
384409,946,-8284,314,-2,-7,-2,1
384414,947,-8284,296,-2,-7,-2,1
384419,954,-8285,283,-3,-7,-2,1
384424,964,-8286,270,-3,-7,-2,1
384429,972,-8286,257,-3,-7,-2,1
384434,986,-8289,250,-3,-7,-2,1
384439,1005,-8290,240,-3,-7,-2,1
384444,1019,-8287,225,-3,-7,-2,1
384449,1030,-8286,208,-3,-7,-2,1
384454,1040,-8287,181,-3,-7,-2,1
384459,1040,-8289,156,-3,-8,-2,1
384464,1035,-8288,135,-3,-8,-2,1
384469,1032,-8287,107,-3,-8,-2,1
384474,1033,-8286,81,-3,-8,-2,1
384479,1034,-8284,48,-3,-8,-2,1
384484,1035,-8281,16,-2,-7,-2,1
384489,1036,-8280,-15,-2,-7,-2,1
384494,1039,-8276,-55,-2,-6,-2,1
384499,1036,-8273,-92,-2,-5,-2,1
384504,1026,-8274,-124,-2,-5,-2,1
384509,1008,-8277,-151,-2,-5,-2,1
384514,991,-8277,-171,-2,-5,-2,1
384519,983,-8275,-182,-2,-6,-2,1
384524,982,-8275,-189,-2,-7,-2,1
384529,988,-8276,-188,-2,-7,-2,1
384534,999,-8274,-191,-2,-8,-2,1
384539,1014,-8273,-199,-2,-9,-2,1
384544,1022,-8271,-210,-1,-10,-2,1
384548,1026,-8271,-234,-1,-11,-2,1
384554,1017,-8271,-256,-1,-11,-2,1
384559,1002,-8273,-270,-1,-11,-2,1
384563,981,-8273,-287,-1,-10,-2,1
384569,964,-8271,-302,-1,-9,-2,1
384573,952,-8270,-323,-1,-7,-2,1
384579,939,-8268,-350,0,-6,-2,1
384584,920,-8268,-371,0,-6,-2,1
384589,894,-8269,-386,0,-5,-2,1
384594,871,-8271,-397,0,-4,-2,1
384599,852,-8273,-405,0,-3,-2,1
384604,835,-8275,-412,0,-2,-2,1
384609,825,-8275,-419,0,0,-2,1
384614,816,-8273,-424,1,0,-2,1
384619,810,-8271,-424,1,1,-2,1
384624,798,-8270,-425,1,2,-2,1
384628,784,-8271,-426,1,2,-2,1
384633,771,-8271,-416,1,4,-2,1
384639,763,-8273,-392,1,5,-2,1
384643,759,-8273,-361,1,5,-2,1
384648,755,-8271,-330,1,5,-2,1
384653,759,-8269,-297,1,5,-3,1
384658,765,-8267,-269,1,5,-3,1
384664,767,-8267,-246,2,5,-3,1
384668,771,-8267,-228,2,5,-3,1
384674,772,-8268,-213,2,6,-3,1
384678,773,-8269,-207,2,7,-3,1
384683,774,-8270,-206,2,8,-3,1
384688,772,-8267,-199,2,10,-3,1
384693,769,-8266,-191,2,11,-3,1
384698,764,-8263,-177,2,13,-3,1
384703,754,-8261,-168,2,15,-3,1
384708,752,-8261,-160,2,16,-3,1
384713,749,-8264,-149,2,17,-3,1
384718,748,-8267,-140,2,17,-4,1
384723,750,-8268,-128,2,18,-4,1
384728,753,-8265,-108,2,17,-4,1
384733,754,-8262,-78,2,16,-4,1
384738,761,-8262,-50,3,16,-4,1
384743,772,-8263,-19,3,16,-4,1
384748,788,-8264,7,3,15,-4,1
384753,806,-8266,27,3,15,-4,1
384758,821,-8268,52,3,15,-4,1
384763,831,-8267,70,3,14,-4,1
384768,841,-8266,89,3,14,-4,1
384773,856,-8269,111,3,14,-4,1
384778,898,-8293,149,3,14,-4,1
384783,952,-8336,187,3,15,-4,1
384788,853,-8366,68,3,14,-4,1
384793,741,-8419,-36,2,10,-3,1
384798,597,-8423,-136,1,12,-2,1
384803,652,-8354,-71,0,16,-1,1
384808,526,-8452,-193,0,20,-1,1
384813,700,-8396,-48,-1,16,0,1
384818,712,-8371,-34,-1,17,0,1
384823,628,-8443,-149,-1,10,0,1
384828,588,-8422,-127,-2,4,1,1
384833,379,-8445,-316,-4,4,2,1
384838,461,-8581,-146,-4,6,2,1
384843,483,-8646,-103,-5,10,4,1
384848,573,-8808,-27,-6,9,4,1
384853,414,-8551,-176,-7,7,5,1
384858,727,-8914,134,-6,7,5,1
384863,478,-8626,-167,-8,6,6,1
384868,767,-8606,167,-8,4,6,1
384873,157,-8488,-507,-10,6,8,1
384878,629,-8410,133,-10,3,8,1
384883,180,-8785,-457,-12,18,10,1
384888,702,-8478,240,-12,7,9,1
384893,482,-8753,-209,-13,15,10,1
384898,554,-8591,-49,-13,-1,10,1
384903,419,-8299,-251,-14,3,12,1
384908,267,-8273,-378,-15,3,12,1
384913,12,-8337,-643,-17,4,13,1
384918,231,-8110,-354,-18,6,14,1
384923,129,-8431,-598,-18,11,15,1
384928,309,-8255,-415,-19,3,15,1
384933,181,-8375,-723,-19,5,16,1
384938,171,-8255,-702,-21,-1,16,1
384943,46,-8243,-842,-22,5,17,1
384948,99,-8415,-723,-22,6,18,1
384953,56,-8198,-803,-23,11,19,1
384958,118,-8214,-726,-23,10,19,1
384963,87,-8267,-897,-24,9,19,1
384968,68,-8180,-944,-25,7,20,1
384973,5,-8072,-1023,-26,9,20,1
384978,-44,-7946,-1059,-27,10,21,1
384983,70,-7753,-903,-27,11,21,1
384988,-145,-7939,-1222,-27,10,21,1
384993,-26,-7761,-1129,-28,6,22,1
384998,-108,-7675,-1292,-29,11,22,1
385003,-218,-8031,-1371,-30,9,22,1
385008,-145,-7810,-1268,-31,10,23,1
385013,-41,-7624,-1145,-31,15,23,1
385018,-25,-7561,-1188,-31,12,23,1
385023,-126,-7525,-1382,-31,4,23,1
385028,-292,-7503,-1589,-33,1,24,1
385033,-404,-7687,-1574,-34,7,25,1
385038,-360,-7584,-1416,-35,17,25,1
385043,-229,-7494,-1251,-34,23,25,1
385048,-190,-7474,-1322,-34,17,25,1
385053,-241,-7464,-1511,-34,7,25,1
385058,-483,-7706,-1778,-36,3,25,1
385063,-2754,-8946,-3864,-42,51,34,1
385068,-21,-8955,-973,-28,153,17,1
385073,2321,-8522,1506,-10,328,-2,1
385078,4102,-8903,2723,21,281,-20,1
385083,5856,-9197,2596,38,45,-28,1
385088,5372,-9312,1316,43,-188,-28,1
385093,3462,-9218,63,25,-277,-23,1
385098,929,-9174,-2286,19,-192,-21,1
385103,-998,-9200,-3299,15,-54,-16,1
385108,-1857,-8859,-3849,6,62,-10,1
385113,-1843,-8500,-4113,7,121,-6,1
385118,-1357,-8433,-3968,11,117,-5,1
385123,-878,-8437,-2976,6,85,-1,1
385128,-875,-8398,-2250,0,53,3,1
385133,-784,-8272,-1966,0,28,3,1
385138,-480,-7870,-783,3,36,2,1
385143,-248,-7846,-654,7,61,0,1
385148,71,-8158,-881,9,63,-2,1
385153,88,-8242,-1477,9,45,-1,1
385158,-10,-8228,-1955,6,34,-1,1
385163,-79,-8296,-1819,4,37,-1,1
385168,146,-8119,-1279,4,46,-2,1
385173,105,-8383,-1027,6,58,-2,1
385178,514,-8323,-264,8,62,-4,1
385183,1082,-8275,260,13,62,-6,1
385188,1092,-8353,90,16,43,-7,1
385193,983,-8292,-16,18,16,-7,1
385198,753,-8277,-579,16,6,-7,1
385203,445,-8275,-864,14,10,-6,1
385208,138,-8252,-1003,11,20,-5,1
385213,26,-8239,-1123,10,31,-4,1
385218,-29,-8216,-888,9,42,-3,1
385223,129,-8175,-532,10,49,-3,1
385228,374,-8216,-396,12,52,-4,1
385233,656,-8208,-384,14,43,-5,1
385238,716,-8211,-404,16,27,-5,1
385243,617,-8202,-667,16,17,-5,1
385248,486,-8199,-902,15,19,-5,1
385253,372,-8193,-1038,14,28,-5,1
385258,236,-8188,-1137,14,35,-5,1
385263,143,-8181,-1071,13,39,-4,1
385268,127,-8171,-963,14,47,-4,1
385273,160,-8170,-870,14,54,-4,1
385278,260,-8172,-793,15,55,-4,1
385283,342,-8175,-748,16,52,-4,1
385288,359,-8175,-785,16,47,-5,1
385293,309,-8169,-760,16,44,-5,1
385298,186,-8162,-756,16,46,-5,1
385303,117,-8164,-726,15,52,-4,1
385308,77,-8153,-574,15,57,-4,1
385313,109,-8157,-442,15,59,-4,1
385318,147,-8147,-329,15,59,-4,1
385323,208,-8161,-221,15,56,-4,1
385328,274,-8164,-96,15,53,-4,1
385333,312,-8171,-4,16,49,-4,1
385338,299,-8168,83,16,45,-5,1
385343,287,-8183,122,16,43,-4,1
385348,244,-8210,125,16,42,-4,1
385353,198,-8216,181,16,42,-4,1
385358,205,-8228,189,15,44,-4,1
385363,217,-8219,239,15,46,-4,1
385368,254,-8209,301,15,46,-4,1
385373,280,-8203,343,15,46,-4,1
385378,298,-8197,379,15,44,-4,1
385383,288,-8199,451,15,44,-4,1
385388,276,-8199,483,15,43,-4,1
385393,269,-8197,514,15,42,-4,1
385398,244,-8196,549,15,42,-4,1
385403,242,-8198,556,15,41,-4,1
385408,259,-8194,566,15,40,-4,1
385413,262,-8191,591,14,39,-4,1
385418,284,-8192,606,14,37,-4,1
385423,301,-8189,624,14,35,-5,1
385428,311,-8189,651,14,35,-5,1
385433,322,-8190,646,14,34,-5,1
385438,331,-8186,631,14,33,-5,1
385443,344,-8191,621,14,33,-5,1
385448,361,-8196,598,14,33,-5,1
385453,376,-8196,591,14,33,-5,1
385458,403,-8195,608,14,34,-5,1
385463,433,-8193,610,14,34,-4,1
385468,456,-8188,646,14,35,-5,1
385473,485,-8188,668,14,35,-4,1
385478,513,-8188,669,14,36,-4,1
385483,533,-8188,682,14,36,-4,1
385488,560,-8188,689,14,37,-4,1
385493,583,-8189,693,14,37,-4,1
385498,601,-8186,728,14,37,-4,1
385503,624,-8186,768,14,37,-4,1
385508,642,-8185,805,13,37,-4,1
385513,655,-8186,863,13,37,-4,1
385518,672,-8190,904,13,37,-4,1
385523,695,-8193,938,13,36,-4,1
385528,712,-8193,982,13,35,-4,1
385533,733,-8194,1016,13,34,-3,1
385538,746,-8196,1058,13,33,-3,1
385543,759,-8199,1111,13,32,-3,1
385548,785,-8198,1153,13,32,-3,1
385553,798,-8197,1206,12,31,-3,1
385558,817,-8197,1254,12,30,-3,1
385563,839,-8199,1284,12,30,-3,1
385568,847,-8200,1321,12,28,-3,1
385573,866,-8199,1355,12,28,-3,1
385578,885,-8204,1381,12,28,-3,1
385583,894,-8207,1422,11,27,-2,1
385588,908,-8206,1464,11,26,-2,1
385593,915,-8207,1510,11,26,-2,1
385598,908,-8207,1566,10,24,-2,1
385603,912,-8209,1613,10,24,-2,1
385608,918,-8212,1657,10,24,-2,1
385613,920,-8214,1711,10,22,-2,1
385618,933,-8216,1752,9,21,-2,1
385623,946,-8217,1784,9,20,-2,1
385628,953,-8222,1822,9,17,-2,1
385633,968,-8225,1847,9,16,-1,1
385638,978,-8227,1863,8,14,-1,1
385643,978,-8231,1883,8,11,-1,1
385648,984,-8230,1886,8,10,-1,1
385653,983,-8229,1889,8,8,-1,1
385658,973,-8230,1893,7,6,-1,1
385663,973,-8230,1889,7,6,-1,1
385668,975,-8232,1884,7,5,-1,1
385673,972,-8233,1882,7,4,-1,1
385678,980,-8236,1865,6,3,-1,1
385683,975,-8239,1850,6,2,-1,1
385688,967,-8239,1838,6,1,-1,1
385693,967,-8237,1813,6,1,-1,1
385698,950,-8237,1799,6,0,0,1
385703,932,-8236,1792,5,-1,0,1
385708,925,-8238,1770,5,0,0,1
385713,904,-8240,1759,5,-1,0,1
385718,887,-8241,1745,5,-2,0,1
385723,880,-8238,1721,5,-2,0,1
385728,860,-8236,1711,5,-3,0,1
385733,845,-8234,1692,5,-4,0,1
385738,842,-8236,1671,4,-4,0,1
385743,830,-8239,1660,4,-5,0,1
385748,826,-8237,1647,4,-5,0,1
385753,828,-8236,1625,4,-6,0,1
385757,822,-8236,1612,4,-6,0,1
385763,822,-8235,1591,4,-7,0,1
385767,825,-8236,1565,4,-7,0,1
385772,818,-8236,1544,4,-8,0,1
385778,816,-8236,1519,4,-8,0,1
385783,813,-8236,1493,4,-7,0,1
385788,799,-8234,1478,3,-8,0,1
385792,791,-8233,1461,3,-8,0,1
385798,776,-8233,1441,3,-7,0,1
385802,752,-8233,1425,3,-8,0,1
385808,733,-8232,1405,3,-8,0,1
385812,708,-8232,1384,3,-7,0,1
385817,675,-8232,1368,3,-7,0,1
385822,656,-8233,1355,3,-7,0,1
385827,638,-8235,1348,3,-6,0,1
385832,621,-8235,1349,3,-6,0,1
385837,612,-8237,1349,3,-5,0,1
385843,605,-8236,1353,3,-5,0,1
385848,594,-8235,1358,3,-5,0,1
385852,595,-8231,1354,3,-4,0,1
385858,594,-8229,1361,3,-4,0,1
385862,589,-8224,1366,3,-3,0,1
385867,595,-8223,1373,3,-3,0,1
385872,590,-8223,1390,3,-2,0,1
385877,587,-8224,1410,3,-2,0,1
385882,590,-8223,1423,3,-2,0,1
385887,582,-8223,1446,3,-2,0,1
385892,568,-8223,1460,2,-2,0,1
385897,557,-8224,1468,2,-2,0,1
385902,535,-8225,1484,2,-3,0,1
385907,517,-8226,1493,2,-3,0,1
385912,503,-8230,1497,2,-3,0,1
385917,483,-8232,1520,2,-4,0,1
385922,473,-8230,1543,2,-4,0,1
385927,468,-8229,1560,2,-5,0,1
385932,458,-8228,1584,2,-6,0,1
385937,460,-8226,1594,2,-6,0,1
385942,461,-8226,1597,2,-7,0,1
385947,458,-8228,1606,1,-8,0,1
385952,459,-8226,1614,1,-8,0,1
385957,453,-8227,1619,1,-8,0,1
385962,442,-8229,1626,1,-9,0,1
385967,436,-8229,1635,1,-8,0,1
385972,424,-8226,1635,1,-8,0,1
385977,408,-8225,1640,1,-8,0,1
385982,432,-7979,1663,1,-9,0,1
385987,548,-8035,1575,0,-18,0,1
385992,595,-8040,2206,2,-31,-1,1
385997,463,-8077,2098,3,-28,-1,1
386002,420,-8116,2093,3,-20,-1,1
386007,351,-8143,1769,3,-12,-1,1
386012,275,-8167,1404,1,-12,-1,1
386017,242,-8192,1367,-1,-14,-1,1
386022,209,-8193,1250,-3,-10,-1,1
386027,250,-8190,1499,-3,-4,-1,1
386032,322,-8185,1791,-2,0,-1,1
386037,419,-8173,1911,0,0,-1,1
386042,504,-8178,2070,1,-2,-1,1
386047,516,-8184,1839,2,-4,-1,1
386052,520,-8203,1652,1,-6,-1,1
386057,479,-8220,1451,0,-5,-1,1
386062,428,-8225,1272,-2,-4,-1,1
386067,405,-8227,1367,-3,-1,-1,1
386072,399,-8218,1512,-3,2,-1,1
386077,439,-8210,1753,-2,4,-1,1
386082,482,-8205,1928,-1,4,-1,1
386087,514,-8205,1931,0,2,-1,1
386092,543,-8214,1850,0,0,-1,1
386097,544,-8224,1633,0,-1,-1,1
386102,529,-8232,1484,-1,-3,-1,1
386107,506,-8235,1412,-3,-3,-1,1
386112,495,-8233,1463,-4,-1,-1,1
386117,494,-8228,1666,-4,0,-1,1
386122,511,-8218,1823,-3,-1,-1,1
386127,540,-8213,1945,-2,-2,-1,1
386132,554,-8211,1934,-1,-4,-1,1
386137,581,-8217,1796,-1,-5,-1,1
386142,608,-8227,1630,-2,-6,-1,1
386147,605,-8233,1462,-3,-7,-1,1
386152,604,-8235,1406,-4,-6,-1,1
386157,592,-8235,1449,-4,-5,-1,1
386162,575,-8230,1574,-4,-3,-1,1
386167,573,-8228,1710,-3,-2,-1,1
386172,582,-8221,1755,-2,-1,-1,1
386177,592,-8219,1728,-2,-2,-1,1
386182,610,-8224,1604,-2,-3,-1,1
386187,625,-8230,1458,-2,-2,-1,1
386192,641,-8235,1363,-3,-1,-1,1
386197,658,-8234,1335,-4,0,-1,1
386202,670,-8229,1422,-4,2,-1,1
386207,679,-8224,1551,-4,3,0,1
386212,696,-8217,1674,-4,4,0,1
386217,715,-8215,1752,-3,5,0,1
386222,745,-8217,1740,-3,4,0,1
386227,790,-8221,1682,-3,3,0,1
386232,835,-8225,1623,-4,2,0,1
386237,881,-8227,1609,-5,0,0,1
386242,928,-8225,1663,-5,-1,0,1
386247,958,-8220,1790,-5,-2,0,1
386252,987,-8216,1937,-5,-4,1,1
386257,1021,-8213,2045,-5,-5,1,1
386262,1058,-8212,2093,-5,-7,1,1
386267,1099,-8213,2062,-4,-10,1,1
386272,1141,-8216,1977,-5,-12,2,1
386277,1161,-8219,1874,-6,-13,2,1
386282,1178,-8226,1845,-6,-12,2,1
386287,1228,-8226,1871,-7,-13,2,1
386292,1246,-8220,1957,-7,-16,2,1
386297,1245,-8216,2054,-7,-20,2,1
386302,1219,-8215,2103,-6,-22,2,1
386307,1185,-8212,2093,-6,-23,3,1
386312,1148,-8216,1997,-6,-24,3,1
386317,1107,-8221,1873,-7,-24,3,1
386322,1076,-8224,1759,-7,-24,3,1
386327,1049,-8222,1680,-8,-22,3,1
386332,1028,-8220,1665,-8,-20,4,1
386337,1025,-8216,1681,-8,-18,4,1
386342,1025,-8213,1698,-8,-17,4,1
386347,1027,-8207,1686,-7,-16,4,1
386352,1026,-8207,1622,-7,-16,4,1
386357,1019,-8209,1522,-7,-16,5,1
386362,1010,-8209,1414,-7,-15,5,1
386367,1001,-8209,1336,-8,-14,5,1
386372,993,-8207,1310,-8,-11,5,1
386377,981,-8206,1335,-8,-9,5,1
386382,967,-8203,1403,-8,-6,5,1
386387,959,-8200,1472,-8,-5,5,1
386392,949,-8201,1528,-8,-5,6,1
386397,945,-8206,1556,-8,-7,5,1
386402,940,-8236,1578,-8,-9,5,1
386407,937,-8279,1587,-8,-11,5,1
386412,941,-8341,1567,-9,-13,5,1
386417,959,-8424,1527,-10,-14,5,1
386422,979,-8511,1514,-11,-16,4,1
386427,957,-8594,1529,-11,-18,4,1
386432,888,-8675,1558,-12,-22,4,1
386437,849,-8755,1573,-13,-24,4,1
386442,855,-8829,1553,-13,-21,4,1
386447,912,-8899,1520,-14,-20,4,1
386452,975,-8968,1495,-14,-20,3,1
386457,1004,-9028,1476,-15,-23,3,1
386462,995,-9070,1479,-16,-25,3,1
386467,974,-9091,1476,-16,-26,2,1
386472,960,-9096,1445,-16,-26,2,1
386477,960,-9086,1391,-17,-25,2,1
386482,977,-9063,1330,-17,-25,2,1
386487,997,-9035,1282,-18,-25,2,1
386492,1008,-9001,1255,-18,-26,1,1
386497,1011,-8959,1239,-18,-27,1,1
386502,1005,-8912,1215,-18,-28,1,1
386507,1001,-8861,1185,-18,-28,0,1
386512,1017,-8806,1152,-18,-29,0,1
386517,1032,-8748,1119,-19,-29,0,1
386522,1052,-8687,1107,-19,-30,-1,1
386527,1064,-8624,1093,-19,-31,-1,1
386532,1072,-8558,1077,-19,-31,-1,1
386537,1069,-8487,1062,-19,-31,-2,1
386542,1065,-8412,1039,-19,-31,-2,1
386547,1062,-8340,1018,-19,-31,-2,1
386552,1054,-8265,982,-19,-31,-2,1
386557,1029,-8189,919,-19,-32,-2,1
386562,991,-8111,855,-19,-33,-2,1
386567,972,-8033,812,-19,-32,-2,1
386572,952,-7959,779,-20,-31,-3,1
386577,950,-7900,762,-20,-30,-3,1
386582,952,-7852,756,-20,-30,-3,1
386587,955,-7809,725,-19,-30,-3,1
386592,944,-7765,692,-19,-31,-3,1
386597,927,-7719,644,-19,-32,-4,1
386602,907,-7673,605,-19,-32,-4,1
386607,895,-7631,576,-19,-31,-4,1
386612,889,-7594,555,-19,-30,-4,1
386617,887,-7561,530,-19,-31,-4,1
386622,884,-7532,505,-18,-32,-5,1
386627,879,-7506,478,-18,-33,-5,1
386632,872,-7480,454,-18,-33,-5,1
386637,865,-7459,444,-18,-33,-5,1
386642,860,-7441,440,-18,-33,-5,1
386647,854,-7422,440,-18,-32,-5,1
386652,844,-7408,443,-17,-32,-5,1
386657,832,-7396,441,-17,-33,-5,1
386662,820,-7389,441,-17,-32,-6,1
386667,811,-7388,452,-17,-32,-6,1
386672,812,-7392,467,-17,-32,-6,1
386677,813,-7398,483,-16,-32,-6,1
386682,817,-7401,500,-16,-32,-6,1
386687,820,-7401,510,-16,-33,-6,1
386692,819,-7402,518,-16,-34,-6,1
386697,823,-7402,531,-16,-34,-6,1
386702,831,-7405,543,-16,-34,-6,1
386707,839,-7416,568,-16,-34,-6,1
386712,848,-7437,596,-15,-34,-6,1
386717,855,-7474,630,-15,-35,-6,1
386722,855,-7522,660,-15,-35,-6,1
386727,852,-7575,691,-15,-36,-6,1
386732,841,-7635,724,-15,-37,-6,1
386737,830,-7706,756,-15,-37,-6,1
386742,818,-7786,782,-15,-37,-6,1
386747,806,-7873,805,-15,-37,-6,1
386752,797,-7964,829,-14,-38,-6,1
386757,790,-8055,853,-14,-39,-6,1
386762,783,-8141,871,-14,-41,-6,1
386767,773,-8222,883,-14,-42,-7,1
386772,764,-8300,884,-14,-43,-7,1
386777,753,-8376,880,-13,-45,-7,1
386782,740,-8443,885,-13,-47,-7,1
386787,735,-8497,883,-13,-48,-7,1
386792,729,-8540,895,-13,-49,-7,1
386797,718,-8569,893,-13,-50,-7,1
386802,725,-8585,890,-13,-50,-7,1
386807,768,-8589,945,-13,-49,-7,1
386812,861,-8584,1057,-13,-47,-7,1
386817,986,-8586,1223,-14,-45,-6,1
386822,952,-8547,1166,-14,-43,-6,1
386827,747,-8520,717,-10,-50,-8,1
386832,551,-8488,370,-8,-61,-9,1
386837,293,-8431,50,-9,-58,-8,1
386842,282,-8374,101,-10,-47,-8,1
386847,422,-8319,415,-10,-35,-8,1
386852,629,-8270,671,-9,-36,-9,1
386857,742,-8223,764,-7,-46,-9,1
386862,724,-8160,610,-6,-55,-10,1
386867,629,-8076,425,-6,-57,-10,1
386872,530,-7983,334,-6,-52,-10,1
386877,503,-7894,403,-6,-45,-10,1
386882,570,-7953,586,-6,-39,-10,1
386887,1584,-8803,1133,-4,-47,-11,1
386892,796,-8780,906,-5,-49,-11,1
386897,102,-8506,244,-4,-104,-7,1
386902,-1167,-8360,-109,-6,-115,0,1
386907,-1474,-8484,-318,-9,-78,4,1
386912,-723,-8216,136,-10,-14,5,1
386917,40,-8159,296,-9,3,5,1
386922,743,-8027,408,-7,-40,3,1
386927,481,-8087,343,-7,-77,4,1
386932,20,-8046,158,-7,-91,4,1
386937,-401,-8017,123,-7,-74,7,1
386942,-608,-8122,36,-8,-53,9,1
386947,-397,-7988,126,-8,-48,9,1
386952,-99,-7913,199,-9,-53,9,1
386957,-38,-7998,173,-8,-64,9,1
386962,-117,-7956,189,-8,-72,9,1
386967,-246,-8013,155,-8,-74,9,1
386972,-338,-8065,103,-8,-71,10,1
386976,-429,-8049,53,-9,-70,11,1
386982,-446,-8015,7,-9,-70,11,1
386986,-423,-8057,-5,-9,-69,11,1
386992,-427,-8086,-22,-9,-68,11,1
386997,-451,-8074,-24,-9,-70,11,1
387002,-490,-8085,-81,-9,-73,11,1
387006,-470,-8083,-74,-9,-74,11,1
387012,-536,-8109,-105,-9,-73,11,1
387016,-535,-8123,-137,-9,-74,10,1
387022,-584,-8118,-223,-9,-74,11,1
387027,-593,-8133,-238,-9,-75,10,1
387032,-620,-8131,-241,-8,-74,10,1
387037,-566,-8132,-223,-8,-75,10,1
387041,-513,-8166,-182,-8,-73,9,1
387046,-517,-8174,-224,-7,-73,8,1
387052,-598,-8190,-302,-7,-77,8,1
387057,-705,-8280,-375,-7,-78,8,1
387061,-773,-8362,-392,-7,-74,7,1
387066,-781,-8407,-380,-6,-69,7,1
387072,-756,-8460,-380,-6,-68,6,1
387076,-771,-8415,-392,-5,-70,6,1
387081,-838,-8347,-452,-5,-71,5,1
387086,-792,-8300,-422,-5,-70,5,1
387091,-873,-8422,-481,-5,-65,4,1
387096,-738,-8436,-388,-4,-64,3,1
387101,-765,-8379,-426,-4,-65,2,1
387106,-845,-8415,-487,-3,-69,2,1
387111,-928,-8451,-514,-3,-68,1,1
387116,-908,-8635,-520,-2,-62,0,1
387122,-914,-8496,-568,-2,-61,-1,1
387126,-707,-8396,-453,-1,-69,-2,1
387131,-1197,-8652,-747,-1,-68,-2,1
387136,-973,-8375,-629,0,-63,-4,1
387141,-1533,-8386,-811,-1,-66,-1,1
387146,-1218,-8555,-616,0,-71,-2,1
387151,-1433,-8512,-788,1,-51,-2,1
387156,-915,-8499,-699,2,-60,-4,1
387161,-1048,-8407,-849,2,-57,-5,1
387166,-909,-8443,-819,2,-64,-6,1
387171,-1135,-8243,-812,2,-57,-6,1
387176,-1028,-8446,-781,2,-57,-6,1
387181,-1253,-8637,-916,3,-49,-7,1
387186,-1199,-8368,-970,3,-57,-7,1
387191,-1026,-8314,-902,3,-58,-7,1
387196,-1124,-8317,-1024,3,-51,-8,1
387201,-772,-8265,-792,4,-49,-9,1
387206,-626,-8139,-706,5,-46,-10,1
387211,-1015,-8345,-1006,5,-59,-10,1
387216,-1012,-8497,-960,6,-63,-10,1
387221,-1308,-8554,-1198,5,-48,-10,1
387226,-908,-8271,-1038,5,-48,-11,1
387231,-756,-8234,-996,6,-45,-11,1
387236,-933,-8072,-1128,6,-52,-12,1
387241,-613,-7967,-977,7,-59,-12,1
387246,-1102,-8221,-1307,6,-48,-11,1
387251,-777,-8424,-1163,7,-50,-12,1
387256,-1143,-8292,-1411,7,-39,-12,1
387261,-1008,-8563,-1406,7,-51,-12,1
387266,-1302,-8725,-1542,7,-41,-12,1
387271,-1333,-8551,-1579,7,-42,-12,1
387276,-1301,-8487,-1558,7,-42,-11,1
387281,-1368,-8598,-1649,7,-38,-11,1
387286,-1316,-8636,-1616,7,-34,-11,1
387291,-1399,-8764,-1657,7,-35,-11,1
387296,-1409,-8662,-1653,7,-38,-11,1
387301,-1347,-8525,-1594,7,-39,-10,1
387306,-1368,-8512,-1570,7,-33,-10,1
387311,-1383,-8605,-1590,7,-35,-10,1
387316,-1379,-8623,-1578,7,-37,-10,1
387321,-1441,-8454,-1608,6,-38,-9,1
387326,-1431,-8404,-1610,6,-39,-8,1
387331,-1390,-8392,-1581,6,-34,-8,1
387336,-1245,-8313,-1536,6,-32,-8,1
387341,-1200,-8230,-1563,6,-34,-8,1
387346,-1300,-8181,-1600,6,-39,-7,1
387351,-1363,-8133,-1625,6,-37,-6,1
387356,-1555,-8141,-1654,5,-31,-5,1
387361,-1764,-8154,-1642,5,-31,-3,1
387366,-1711,-8159,-1609,5,-28,-2,1
387371,-1510,-8163,-1608,6,-17,-1,1
387376,-1190,-8164,-1648,7,-15,-2,1
387381,-868,-8171,-1716,8,-18,-3,1
387386,-703,-8197,-1668,8,-19,-5,1
387391,-661,-8201,-1477,7,-20,-6,1
387396,-699,-8204,-1400,7,-18,-7,1
387401,-824,-8205,-1328,7,-16,-7,1
387406,-981,-8203,-1208,8,-14,-6,1
387411,-1095,-8203,-1138,9,-9,-5,1
387416,-1105,-8206,-1139,10,-4,-5,1
387421,-1035,-8209,-1164,10,-2,-5,1
387426,-928,-8206,-1245,11,-2,-5,1
387431,-799,-8211,-1346,11,-3,-6,1
387436,-710,-8214,-1368,11,-4,-7,1
387441,-682,-8216,-1374,10,-5,-7,1
387446,-708,-8208,-1378,10,-6,-7,1
387451,-776,-8209,-1327,10,-5,-8,1
387456,-851,-8204,-1253,11,-3,-7,1
387461,-897,-8199,-1203,11,-1,-7,1
387466,-947,-8193,-1146,12,0,-7,1
387471,-955,-8184,-1198,13,1,-7,1
387476,-924,-8181,-1252,14,3,-7,1
387481,-892,-8180,-1299,14,5,-8,1
387486,-787,-8192,-1275,13,6,-8,1
387491,-661,-8189,-1021,12,11,-8,1
387496,-584,-8208,-808,12,18,-8,1
387501,-515,-8159,-616,14,18,-8,1
387506,-410,-8186,-711,15,17,-9,1
387511,-350,-8188,-911,15,17,-9,1
387516,-345,-8200,-1059,14,17,-10,1
387521,-405,-8210,-1017,13,21,-10,1
387526,-441,-8209,-895,13,25,-10,1
387531,-474,-8203,-672,13,30,-10,1
387536,-462,-8232,-676,14,30,-10,1
387541,-421,-8304,-603,14,28,-10,1
387546,-440,-8207,-784,13,27,-10,1
387551,-454,-8162,-603,13,29,-10,1
387556,-439,-8291,-697,12,31,-10,1
387561,-453,-8301,-653,11,31,-10,1
387566,-538,-8272,-816,9,29,-10,1
387571,-578,-8341,-554,9,29,-10,1
387576,-528,-8432,-600,8,33,-10,1
387581,-436,-8449,-465,8,37,-10,1
387586,-367,-8351,-833,7,35,-10,1
387591,-360,-8276,-472,6,33,-10,1
387596,-410,-8458,-906,5,33,-10,1
387601,-471,-8284,-538,4,34,-10,1
387606,-468,-8237,-675,3,37,-10,1
387611,-454,-8446,-660,3,40,-10,1
387616,-348,-8495,-548,1,38,-9,1
387621,-333,-8537,-409,1,36,-9,1
387626,-318,-8462,-198,1,39,-9,1
387631,-336,-8395,-166,1,40,-9,1
387636,-322,-8381,-210,1,39,-9,1
387641,-287,-8279,-349,-1,40,-9,1
387646,-221,-8532,-196,-1,41,-8,1
387651,-187,-8524,-24,-2,41,-8,1
387656,-136,-8532,310,-2,43,-8,1
387661,-77,-8606,320,-1,44,-8,1
387666,-54,-8426,479,0,41,-8,1
387671,-36,-8184,218,-1,41,-8,1
387676,-5,-8450,243,0,43,-8,1
387681,-1,-8441,316,-1,45,-7,1
387686,-69,-8151,343,-1,47,-7,1
387691,-40,-8037,510,1,50,-7,1
387696,34,-8184,668,2,51,-7,1
387701,143,-8260,611,3,49,-7,1
387706,185,-8234,548,3,47,-7,1
387711,160,-8169,451,2,48,-7,1
387716,103,-8051,606,3,51,-7,1
387721,105,-8012,741,4,55,-7,1
387726,148,-7985,909,5,55,-6,1
387731,245,-8055,948,6,54,-7,1
387736,334,-8075,996,7,51,-7,1
387741,364,-8107,907,7,50,-7,1
387746,349,-8059,1059,7,50,-7,1
387751,321,-8048,1147,8,53,-7,1
387756,266,-8016,1135,9,54,-7,1
387761,398,-7969,1534,11,56,-7,1
387766,448,-7985,1372,12,58,-7,1
387771,498,-8042,1425,13,51,-7,1
387776,503,-8007,1296,12,50,-7,1
387781,482,-8034,1408,13,53,-7,1
387786,447,-8009,1444,13,54,-7,1
387791,452,-8027,1637,13,54,-7,1
387796,474,-8045,1620,14,55,-7,1
387801,478,-7980,1718,14,52,-7,1
387806,465,-7963,1538,14,51,-7,1
387811,560,-7934,1793,14,53,-7,1
387816,570,-7980,1735,14,55,-7,1
387821,564,-7980,1863,15,49,-7,1
387826,497,-8003,1722,14,46,-7,1
387831,386,-7978,1617,14,46,-7,1
387836,399,-7972,1691,13,48,-6,1
387841,508,-8017,1885,13,53,-6,1
387846,671,-8059,2120,14,53,-7,1
387851,670,-8082,2093,14,46,-7,1
387856,627,-8050,2061,14,39,-7,1
387861,511,-8052,1860,13,40,-6,1
387866,466,-8061,1947,12,44,-6,1
387871,448,-8113,1945,11,48,-5,1
387876,550,-8095,2129,11,49,-5,1
387881,598,-8135,2158,11,47,-5,1
387886,654,-8142,2222,11,43,-6,1
387891,800,-8107,2561,12,46,-6,1
387896,791,-8153,2640,12,48,-6,1
387901,745,-8131,2523,12,38,-6,1
387906,716,-8060,2464,12,35,-5,1
387911,666,-8093,2175,9,37,-5,1
387916,580,-8152,1826,7,36,-4,1
387921,602,-8203,2088,5,36,-4,1
387926,690,-8303,2363,5,40,-3,1
387931,807,-8363,2745,6,39,-4,1
387936,875,-8360,2625,6,32,-3,1
387941,891,-8283,2440,6,26,-3,1
387946,844,-8280,2138,4,27,-3,1
387951,827,-8284,2135,2,29,-2,1
387956,875,-8364,2391,1,33,-1,1
387961,922,-8400,2606,0,34,-1,1
387966,1033,-8412,2881,1,30,-1,1
387971,1139,-8481,2929,1,27,-1,1
387976,1182,-8467,2871,1,23,-1,1
387981,1127,-8341,2492,-1,20,-1,1
387986,1107,-8259,2542,-2,20,0,1
387991,1112,-8345,2565,-3,24,0,1
387996,1162,-8383,2780,-4,25,1,1
388001,1242,-8387,2940,-3,23,1,1
388006,1274,-8298,2730,-4,20,1,1
388011,1299,-8202,2660,-4,17,1,1
388016,1311,-8283,2582,-5,16,1,1
388021,1294,-8236,2571,-6,17,1,1
388026,1336,-8228,2601,-7,18,1,1
388031,1390,-8402,2716,-7,18,2,1
388036,1446,-8401,2803,-8,17,2,1
388041,1521,-8396,2960,-8,17,2,1
388046,1573,-8341,2971,-8,16,2,1
388051,1604,-8264,2917,-7,13,2,1
388056,1669,-8231,2820,-8,12,2,1
388061,1737,-8193,2767,-8,11,2,1
388066,1759,-8172,2783,-9,9,2,1
388071,1775,-8156,2848,-9,8,2,1
388076,1808,-8174,2918,-9,8,2,1
388081,1881,-8199,2913,-8,7,2,1
388086,1851,-8178,2882,-9,5,2,1
388091,1768,-8156,2810,-9,2,2,1
388096,1691,-8114,2778,-9,2,3,1
388101,1687,-8096,2749,-9,5,3,1
388106,1743,-8094,2797,-9,6,3,1
388111,1785,-8081,2898,-8,5,3,1
388116,1811,-8069,2841,-8,3,3,1
388121,1814,-8042,2810,-8,1,4,1
388126,1834,-8064,2727,-8,2,4,1
388131,1864,-8056,2673,-8,4,4,1
388136,1853,-8077,2670,-8,2,4,1
388141,1819,-8086,2666,-8,1,4,1
388146,1794,-8058,2646,-8,0,4,1
388151,1767,-8102,2657,-8,0,5,1
388156,1724,-8109,2659,-8,-1,5,1
388161,1693,-8091,2621,-8,-4,6,1
388166,1656,-8113,2564,-9,-6,7,1
388171,1656,-8105,2513,-9,-7,7,1
388176,1675,-8095,2471,-9,-8,7,1
388181,1668,-8109,2461,-9,-10,8,1
388186,1658,-8098,2418,-10,-13,8,1
388191,1620,-8075,2369,-10,-15,8,1
388196,1621,-8160,2320,-10,-16,9,1
388201,1590,-8140,2325,-11,-16,9,1
388206,1557,-8110,2264,-11,-22,9,1
388211,1507,-8183,2252,-11,-22,9,1
388216,1535,-8148,2226,-11,-21,9,1
388221,1579,-8141,2169,-12,-22,9,1
388226,1557,-8149,2152,-12,-24,9,1
388231,1508,-8158,2093,-12,-26,9,1
388235,1481,-8176,2038,-12,-24,9,1
388240,1525,-8216,1980,-12,-22,9,1
388245,1547,-8151,1952,-12,-23,9,1
388250,1487,-8220,1915,-12,-27,9,1
388255,1463,-8202,1888,-12,-26,8,1
388260,1439,-8168,1860,-12,-25,8,1
388265,1488,-8091,1814,-12,-25,8,1
388271,1404,-8210,1799,-12,-26,8,1
388275,1389,-8200,1774,-12,-27,7,1
388280,1368,-8092,1766,-12,-28,7,1
388285,1367,-8159,1704,-12,-30,7,1
388291,1375,-8226,1693,-12,-28,7,1
388295,1204,-8279,1660,-12,-33,7,1
388300,1075,-8239,1578,-12,-37,7,1
388305,1026,-8154,1518,-12,-33,7,1
388310,1142,-8066,1462,-12,-29,7,1
388315,1248,-8101,1446,-12,-29,6,1
388320,1158,-8181,1440,-11,-33,5,1
388325,1021,-8188,1405,-11,-36,5,1
388330,874,-8123,1351,-11,-35,5,1
388335,840,-8301,1269,-11,-32,5,1
388340,754,-8258,1245,-11,-29,5,1
388345,757,-8380,1194,-11,-33,4,1
388350,655,-8526,1234,-11,-29,4,1
388355,616,-8446,1207,-10,-30,4,1
388360,551,-8328,1198,-10,-31,4,1
388365,492,-8285,1148,-10,-30,4,1
388370,668,-8239,1098,-10,-27,4,1
388375,555,-8146,1091,-10,-27,3,1
388380,647,-8175,1030,-10,-33,3,1
388385,459,-8210,1062,-9,-27,3,1
388390,394,-8318,975,-9,-30,3,1
388395,417,-8327,992,-9,-26,3,1
388400,429,-8369,909,-9,-26,2,1
388405,362,-8340,896,-9,-30,2,1
388410,227,-8551,872,-9,-30,1,1
388415,254,-8576,878,-9,-25,1,1
388420,285,-8355,845,-8,-27,0,1
388425,163,-8645,810,-8,-30,0,1
388430,233,-8471,798,-8,-25,-1,1
388435,306,-8366,750,-8,-26,-2,1
388440,180,-8511,693,-7,-27,-2,1
388445,98,-8444,657,-7,-26,-3,1
388450,120,-8312,647,-7,-24,-3,1
388455,199,-8623,635,-7,-21,-3,1
388460,443,-8344,678,-7,-19,-5,1
388465,90,-8480,641,-6,-30,-5,1
388470,49,-8309,616,-6,-32,-6,1
388475,159,-8249,594,-6,-21,-5,1
388480,107,-8633,607,-6,-18,-6,1
388485,212,-8363,645,-6,-27,-7,1
388490,-19,-8528,640,-6,-33,-6,1
388495,199,-8372,661,-5,-27,-7,1
388500,142,-8541,648,-5,-22,-7,1
388505,246,-8471,640,-5,-31,-8,1
388510,153,-8351,633,-5,-34,-8,1
388515,108,-8592,579,-5,-33,-9,1
388520,82,-8380,632,-5,-28,-9,1
388525,175,-8290,583,-4,-35,-9,1
388530,156,-8408,577,-4,-34,-10,1
388535,134,-8256,546,-4,-33,-11,1
388540,315,-8221,537,-4,-35,-11,1
388545,104,-8072,528,-4,-33,-11,1
388550,239,-8231,462,-4,-38,-12,1
388555,143,-8282,550,-3,-27,-12,1
388560,258,-8151,467,-3,-35,-13,1
388565,85,-8386,506,-3,-37,-12,1
388570,128,-8221,480,-3,-36,-13,1
388575,158,-8312,489,-3,-33,-13,1
388580,219,-8278,500,-3,-34,-14,1
388585,185,-8352,470,-3,-39,-14,1
388590,156,-8346,492,-2,-39,-15,1
388595,180,-8356,449,-2,-39,-15,1
388600,56,-8258,434,-2,-39,-16,1
388605,56,-8242,371,-2,-42,-16,1
388610,21,-8301,359,-2,-36,-16,1
388615,173,-8208,322,-2,-35,-17,1
388620,87,-8241,300,-2,-37,-17,1
388625,121,-8161,280,-1,-42,-18,1
388630,-22,-8694,222,-1,-37,-18,1
388635,70,-8382,209,-1,-34,-19,1
388640,-316,-8185,158,-1,-42,-18,1
388645,-313,-8135,92,-1,-47,-18,1
388650,-168,-8285,93,-1,-26,-18,1
388655,245,-8427,89,-1,-19,-20,1
388660,165,-8176,140,-1,-38,-21,1
388665,-122,-8304,139,0,-54,-21,1
388670,-386,-8419,85,0,-40,-20,1
388675,-374,-8299,-7,0,-25,-20,1
388680,-280,-8379,-102,0,-27,-19,1
388685,-234,-8291,-100,0,-32,-19,1
388690,-297,-8172,-86,0,-36,-19,1
388695,-431,-8239,-91,0,-35,-18,1
388700,-451,-8728,-160,1,-30,-17,1
388705,572,-8969,522,4,-54,-22,1
388710,-1849,-8971,-680,-4,-109,-7,1
388715,-3925,-9015,-2172,-11,-182,10,1
388720,-5640,-8897,-1687,-13,-101,26,1
388725,-5179,-8780,-1632,-18,40,33,1
388730,-3541,-8649,-1592,-19,75,33,1
388735,-1881,-8509,-1232,-16,6,30,1
388740,-258,-8382,-658,-10,-43,23,1
388745,715,-8276,78,-8,-37,16,1
388750,920,-8173,-62,-6,-47,11,1
388755,761,-8160,-5,-3,-60,8,1
388760,702,-8157,62,-2,-42,6,1
388765,336,-8160,-26,0,-24,5,1
388770,-70,-8165,16,1,-34,6,1
388775,-691,-8196,-145,1,-39,9,1
388780,-1387,-8232,-462,1,-44,12,1
388785,-1632,-8255,-755,-1,-41,15,1
388790,-1578,-8270,-995,-3,-31,17,1
388795,-1015,-8259,-1054,-5,-27,16,1
388800,-550,-8249,-953,-6,-22,14,1
388805,-286,-8235,-827,-5,-31,11,1
388810,-125,-8212,-740,-4,-34,9,1
388815,-342,-8207,-489,-2,-31,8,1
388820,-675,-8209,-329,0,-35,9,1
388825,-1020,-8228,-399,1,-32,10,1
388830,-1232,-8238,-564,2,-29,11,1
388835,-1196,-8241,-755,2,-25,12,1
388840,-991,-8246,-933,1,-21,11,1
388845,-648,-8242,-1002,0,-21,9,1
388850,-518,-8241,-1005,0,-24,8,1
388855,-607,-8270,-941,0,-30,6,1
388860,-797,-8298,-823,1,-31,6,1
388865,-921,-8318,-803,2,-25,6,1
388870,-929,-8309,-829,3,-19,6,1
388875,-774,-8300,-963,3,-17,5,1
388880,-616,-8300,-1073,3,-15,5,1
388885,-517,-8304,-1104,3,-16,3,1
388890,-416,-8294,-1028,3,-17,3,1
388895,-434,-8300,-1023,4,-19,2,1
388900,-753,-8307,-1118,4,-21,3,1
388905,-953,-8322,-1203,4,-19,4,1
388910,-963,-8333,-1234,4,-9,5,1
388915,-856,-8329,-1234,4,-4,4,1
388920,-733,-8335,-1215,4,-4,4,1
388925,-569,-8334,-1189,4,-5,3,1
388930,-432,-8303,-1160,5,-5,2,1
388935,-324,-8321,-1202,5,-6,1,1
388940,-340,-8323,-1201,6,-7,0,1
388945,-327,-8310,-1216,6,-8,-1,1
388950,-412,-8351,-1253,6,-6,-1,1
388955,-447,-8311,-1335,6,-5,-1,1
388960,-502,-8336,-1345,6,-2,0,1
388965,-458,-8421,-1353,6,2,-1,1
388970,-392,-8345,-1303,6,5,-2,1
388975,-252,-8410,-1358,7,3,-2,1
388980,-228,-8452,-1327,7,6,-3,1
388985,-113,-8362,-1453,6,4,-4,1
388990,-212,-8411,-1383,7,5,-5,1
388995,-208,-8445,-1417,7,6,-5,1
389000,-288,-8410,-1332,7,11,-6,1
389005,-126,-8425,-1525,7,10,-7,1
389010,-156,-8442,-1477,7,14,-7,1
389015,-57,-8386,-1637,6,11,-8,1
389020,-111,-8365,-1621,6,12,-9,1
389025,-112,-8512,-1723,6,13,-9,1
389030,-177,-8382,-1677,5,17,-10,1
389035,-237,-8550,-1627,6,16,-10,1
389040,-229,-8460,-1608,5,22,-11,1
389045,-195,-8422,-1643,6,21,-11,1
389050,-232,-8528,-1627,5,22,-12,1
389055,-170,-8403,-1709,5,23,-12,1
389060,-242,-8468,-1671,5,24,-12,1
389065,-250,-8453,-1697,4,25,-13,1
389070,-286,-8411,-1638,4,27,-13,1
389075,-380,-8464,-1517,4,27,-13,1
389080,-382,-8428,-1550,3,26,-13,1
389085,-411,-8443,-1523,3,26,-13,1
389090,-323,-8416,-1553,2,26,-14,1
389095,-275,-8419,-1522,2,27,-15,1
389100,-228,-8455,-1373,2,26,-15,1
389105,-335,-8465,-1203,1,26,-15,1
389110,-392,-8441,-1154,1,25,-15,1
389115,-487,-8392,-1082,2,27,-15,1
389120,-489,-8478,-1134,1,27,-15,1
389125,-482,-8428,-1118,0,30,-15,1
389130,-466,-8422,-1144,0,30,-15,1
389135,-572,-8508,-938,-1,33,-15,1
389140,-670,-8418,-852,-1,34,-15,1
389145,-720,-8515,-804,0,38,-14,1
389150,-788,-8540,-676,0,42,-14,1
389155,-761,-8384,-818,-1,40,-14,1
389160,-821,-8400,-562,0,42,-14,1
389165,-721,-8447,-824,-1,43,-14,1
389170,-732,-8329,-668,-2,45,-14,1
389175,-715,-8358,-748,-2,43,-14,1
389180,-854,-8428,-308,-1,44,-13,1
389185,-907,-8299,-273,-1,44,-13,1
389190,-957,-8182,-274,0,46,-12,1
389195,-927,-8243,-535,0,47,-11,1
389200,-998,-8177,-322,0,45,-11,1
389205,-988,-8168,-530,-1,42,-10,1
389210,-973,-8089,-303,-1,47,-10,1
389215,-891,-8162,-219,0,50,-10,1
389220,-916,-8161,39,0,50,-10,1
389225,-945,-8242,-71,1,44,-10,1
389230,-1053,-8269,60,1,42,-9,1
389235,-1082,-8293,-6,0,43,-9,1
389240,-1080,-8283,106,-1,45,-8,1
389245,-1053,-8284,131,-1,44,-8,1
389250,-1068,-8285,282,-1,42,-8,1
389255,-1120,-8291,365,0,40,-8,1
389260,-1159,-8259,383,0,41,-7,1
389265,-1245,-8202,353,0,43,-7,1
389270,-1333,-8210,369,0,42,-7,1
389275,-1459,-8202,510,0,42,-7,1
389280,-1546,-8189,575,0,43,-6,1
389285,-1431,-8198,757,0,47,-5,1
389290,-1307,-8235,839,1,54,-4,1
389295,-1143,-8221,950,1,53,-4,1
389300,-1133,-8234,867,1,49,-4,1
389305,-1219,-8214,893,1,47,-3,1
389310,-1355,-8271,904,0,49,-2,1
389315,-1397,-8251,1055,0,52,-1,1
389320,-1345,-8292,1226,0,53,-1,1
389325,-1266,-8299,1393,0,48,-1,1
389330,-1217,-8323,1520,0,40,0,1
389335,-1239,-8365,1520,-1,34,0,1
389340,-1274,-8309,1529,-2,31,0,1
389345,-1353,-8226,1380,-2,32,2,1
389350,-1236,-8111,1490,-3,33,2,1
389355,-1141,-8384,1478,-3,34,3,1
389360,-1070,-8435,1577,-4,29,3,1
389365,-1070,-8399,1600,-4,27,4,1
389370,-1180,-8237,1442,-4,28,4,1
389375,-1053,-8305,1826,-3,30,4,1
389380,-1235,-8211,1385,-5,30,5,1
389385,-1118,-8204,1556,-4,27,6,1
389390,-1152,-8215,1174,-5,34,7,1
389395,-999,-8228,1271,-5,36,7,1
389400,-896,-8247,1260,-6,40,8,1
389405,-886,-8273,1256,-6,38,9,1
389410,-842,-8353,1400,-6,36,9,1
389415,-895,-8402,1317,-7,36,10,1
389420,-842,-8290,1451,-7,37,11,1
389425,-846,-8236,1259,-7,39,12,1
389429,-682,-8307,1488,-8,37,12,1
389435,-627,-8352,1460,-8,37,13,1
389439,-522,-8391,1682,-8,36,13,1
389445,-588,-8186,1518,-9,35,14,1
389450,-441,-8309,1725,-8,35,14,1
389455,-878,-8891,1319,-9,40,15,1
389460,-875,-8380,1554,-13,57,19,1
389465,1590,-7865,3672,7,141,7,1
389470,3702,-7963,5487,24,182,-9,1
389474,4818,-7990,4851,38,74,-20,1
389480,3900,-7964,4282,47,-35,-25,1
389485,1833,-7995,3340,44,-49,-24,1
389490,367,-7983,1823,33,27,-21,1
389494,-301,-7964,1276,29,82,-14,1
389500,-677,-7958,994,25,73,-6,1
389504,-46,-7946,1329,22,53,-4,1
389510,659,-7830,1951,22,68,-6,1
389514,1430,-7837,2836,26,66,-9,1
389520,1033,-7913,2428,28,46,-10,1
389525,277,-7973,1968,27,16,-7,1
389529,-502,-7995,1590,23,28,-3,1
389535,-699,-8057,1455,19,51,1,1
389539,-229,-8109,1686,16,60,3,1
389544,368,-8131,2113,15,53,3,1
389549,851,-8160,2420,15,38,2,1
389554,697,-8204,2256,15,19,2,1
389559,286,-8226,1987,13,2,4,1
389564,-33,-8221,1695,10,12,6,1
389569,-18,-8200,1727,6,26,9,1
389574,307,-8130,1809,4,30,10,1
389579,828,-8097,1811,6,28,11,1
389584,1017,-8086,1774,5,16,10,1
389589,993,-8067,1649,1,1,10,1
389594,611,-8176,963,-1,-1,13,1
389599,352,-8163,1959,-3,-4,16,1
389604,2240,-8058,4019,2,63,4,1
389609,3559,-8131,4442,9,105,-4,1
389614,4262,-8169,4192,15,36,-10,1
389619,3699,-8080,3913,18,-39,-11,1
389624,2844,-7971,3012,16,-43,-13,1
389629,2026,-7886,2704,13,1,-11,1
389634,1460,-7865,2461,9,23,-8,1
389639,1285,-7875,2290,6,22,-5,1
389644,1195,-7877,2142,3,14,-3,1
389649,1340,-7902,2070,2,6,-2,1
389654,1630,-8766,2231,1,12,-3,1
389659,2470,-8784,2273,0,26,-6,1
389664,2223,-8664,2435,2,13,-6,1
389669,1460,-8767,2579,3,-24,-4,1
389674,622,-8722,2804,3,-17,-1,1
389679,516,-8659,2454,3,16,3,1
389684,879,-8524,2242,2,32,5,1
389689,1331,-8461,2121,0,20,5,1
389694,1583,-8464,2095,-2,5,4,1
389699,1613,-8457,2333,-3,-3,4,1
389704,1503,-8493,2474,-3,-1,4,1
389709,1430,-8474,2598,-2,1,5,1
389714,1522,-8473,2583,-2,3,6,1
389719,1619,-8398,2505,-3,6,7,1
389724,1718,-8375,2285,-4,4,5,1
389729,1724,-8429,2310,-5,-1,4,1
389734,1600,-8444,2371,-6,-2,4,1
389739,1504,-8443,2444,-6,-1,4,1
389744,1387,-8462,2597,-6,-1,4,1
389749,1401,-8482,2649,-6,-1,4,1
389754,1615,-8415,2535,-7,0,4,1
389759,1766,-8328,2484,-8,0,3,1
389764,1788,-8382,2518,-8,-4,3,1
389769,1776,-8419,2451,-9,-4,2,1
389774,1577,-8359,2551,-10,-4,2,1
389779,1461,-8346,2566,-10,-6,3,1
389784,1394,-8357,2612,-10,0,4,1
389789,1453,-8337,2618,-10,1,4,1
389794,1601,-8194,2568,-10,0,4,1
389799,1538,-8230,2613,-10,-4,4,1
389804,1611,-8233,2569,-11,-6,3,1
389809,1667,-8171,2588,-11,-5,3,1
389814,1660,-8212,2576,-11,-10,2,1
389819,1489,-8220,2689,-11,-15,2,1
389824,1442,-8159,2623,-11,-18,3,1
389829,1516,-8073,2580,-11,-15,3,1
389834,1523,-8087,2550,-11,-18,3,1
389839,1549,-8002,2520,-11,-21,3,1
389844,1531,-8075,2490,-11,-21,3,1
389849,1417,-8146,2500,-11,-21,3,1
389854,1227,-8033,2444,-11,-26,3,1
389859,1296,-7918,2296,-11,-26,4,1
389864,1207,-8022,2257,-11,-21,5,1
389869,1225,-8076,2166,-11,-23,5,1
389874,1183,-7983,2213,-11,-24,5,1
389879,1171,-8054,2117,-11,-26,5,1
389884,1209,-7985,2134,-11,-22,5,1
389889,1111,-8037,2066,-11,-26,5,1
389894,986,-8122,1984,-11,-29,5,1
389899,889,-8110,1927,-11,-27,6,1
389904,912,-8106,1888,-11,-29,6,1
389909,927,-8169,1907,-11,-27,6,1
389914,922,-8137,1872,-11,-31,6,1
389919,942,-8133,1884,-10,-33,6,1
389924,849,-8152,1842,-10,-33,6,1
389929,827,-8180,1804,-10,-35,6,1
389934,731,-8132,1761,-10,-36,6,1
389939,744,-8133,1716,-10,-37,6,1
389944,755,-8113,1677,-10,-34,5,1
389949,866,-8140,1660,-10,-35,5,1
389954,833,-8214,1625,-10,-34,4,1
389959,792,-8305,1580,-10,-37,4,1
389964,707,-8431,1508,-9,-37,3,1
389969,356,-8099,1605,-10,-34,3,1
389974,379,-8343,1526,-9,-42,4,1
389979,737,-8409,1444,-9,-22,3,1
389984,886,-8280,1435,-8,-31,1,1
389989,940,-8326,1262,-8,-39,-1,1
389994,726,-8276,1258,-9,-34,-1,1
389999,606,-8347,1209,-9,-36,-1,1
390004,525,-8333,1270,-8,-31,-1,1
390009,435,-8382,1255,-8,-35,-1,1
390014,534,-8374,1212,-8,-36,-2,1
390019,538,-8253,1161,-8,-31,-3,1
390024,633,-8304,1106,-8,-35,-4,1
390029,597,-8120,1113,-8,-31,-5,1
390034,527,-8156,1114,-7,-35,-5,1
390039,362,-8134,1160,-7,-30,-5,1
390044,608,-8008,1093,-7,-30,-5,1
390049,444,-8041,1070,-7,-29,-5,1
390054,495,-8080,1018,-7,-33,-6,1
390059,569,-7882,1000,-7,-27,-7,1
390064,676,-7823,991,-7,-31,-8,1
390069,627,-8141,1021,-7,-30,-9,1
390074,693,-8108,1038,-7,-29,-10,1
390079,490,-8102,1049,-6,-36,-11,1
390084,313,-8238,1040,-7,-36,-11,1
390089,212,-8408,1051,-7,-30,-12,1
390094,234,-8299,1048,-7,-32,-13,1
390099,371,-8161,1011,-7,-35,-14,1
390104,235,-8354,1062,-7,-34,-15,1
390109,211,-8226,1034,-7,-34,-16,1
390114,379,-8144,952,-7,-35,-17,1
390119,-12,-8367,973,-7,-35,-17,1
390124,107,-8281,872,-7,-37,-19,1
390129,-56,-8257,917,-7,-31,-18,1
390134,103,-8339,776,-8,-35,-20,1
390139,-59,-8262,863,-7,-31,-20,1
390144,108,-8236,702,-7,-37,-21,1
390149,-54,-8283,722,-7,-31,-22,1
390154,78,-8235,566,-7,-34,-23,1
390159,29,-8196,555,-7,-30,-24,1
390164,70,-8266,470,-8,-33,-25,1
390169,102,-8188,418,-8,-30,-25,1
390174,-28,-8211,415,-8,-32,-26,1
390179,27,-8129,323,-8,-34,-27,1
390184,-88,-8050,327,-7,-30,-27,1
390189,-22,-8052,192,-7,-32,-27,1
390194,-165,-8159,176,-7,-28,-28,1
390199,-120,-8011,83,-7,-30,-29,1
390204,-301,-8131,80,-7,-30,-28,1
390209,-349,-8132,20,-7,-28,-29,1
390214,-487,-8056,-21,-6,-28,-28,1
390219,-521,-8000,-97,-6,-30,-27,1
390224,-692,-8136,-149,-5,-26,-27,1
390229,-644,-8006,-249,-5,-25,-27,1
390234,-708,-7976,-292,-4,-26,-25,1
390239,-739,-8091,-320,-4,-27,-25,1
390244,1706,-8101,315,-2,-57,-30,1
390249,-878,-8024,-227,-4,-79,-16,1
390254,-3092,-8167,-1781,-7,-204,2,1
390259,-4990,-8200,-1159,-7,-151,23,1
390264,-6000,-8213,-1426,-12,34,35,1
390269,-4392,-8178,-1610,-13,95,37,1
390274,-2027,-8194,-1163,-10,53,34,1
390279,-150,-8160,-847,-8,-7,26,1
390284,1321,-8131,-432,-7,-27,19,1
390289,1634,-8075,-490,-4,-33,13,1
390294,1184,-8053,-661,-2,-50,10,1
390299,508,-8091,-693,0,-41,8,1
390304,109,-8117,-780,1,-11,8,1
390309,110,-8122,-841,2,10,8,1
390314,-26,-8135,-857,2,4,8,1
390319,-343,-8150,-978,3,-14,9,1
390324,-721,-8170,-1100,3,-13,10,1
390329,-945,-8187,-1216,3,-3,11,1
390334,-1011,-8200,-1335,3,2,11,1
390339,-1021,-8215,-1391,2,3,11,1
390344,-986,-8218,-1385,2,2,10,1
390349,-994,-8220,-1301,2,4,9,1
390354,-1017,-8223,-1229,3,5,8,1
390359,-1099,-8227,-1109,4,3,8,1
390364,-1209,-8242,-1028,5,2,7,1
390369,-1285,-8246,-1053,5,4,7,1
390374,-1337,-8268,-1110,6,7,7,1
390379,-1364,-8302,-1192,6,7,6,1
390384,-1367,-8321,-1273,6,8,5,1
390389,-1349,-8336,-1355,6,7,5,1
390394,-1342,-8338,-1439,5,8,4,1
390399,-1311,-8337,-1506,5,9,3,1
390404,-1238,-8331,-1585,5,12,2,1
390409,-1177,-8376,-1633,5,15,1,1
390414,-1113,-8425,-1735,5,15,0,1
390419,-1193,-8394,-1586,5,16,0,1
390424,-1182,-8441,-1690,5,18,-1,1
390429,-1179,-8457,-1640,5,24,-2,1
390434,-1066,-8446,-1801,5,26,-3,1
390439,-1036,-8429,-1901,4,27,-3,1
390444,-994,-8463,-1768,4,28,-4,1
390449,-992,-8413,-1654,5,33,-4,1
390454,-1030,-8458,-1440,6,36,-5,1
390459,-1025,-8348,-1504,6,36,-5,1
390464,-991,-8328,-1609,6,37,-5,1
390469,-931,-8295,-1846,6,40,-5,1
390474,-1023,-8247,-1407,6,41,-5,1
390479,-964,-8251,-1619,6,41,-5,1
390484,-981,-8253,-1468,7,46,-5,1
390489,-893,-8463,-1476,6,45,-5,1
390494,-935,-8427,-1324,6,45,-6,1
390499,-958,-8291,-1223,6,43,-6,1
390504,-925,-8475,-1288,7,46,-5,1
390509,-904,-8640,-1148,6,50,-6,1
390514,-954,-8402,-1080,5,46,-6,1
390519,-1000,-8606,-796,7,47,-6,1
390524,-990,-8522,-882,6,52,-6,1
390529,-943,-8437,-867,7,53,-5,1
390534,-864,-8575,-1027,6,53,-6,1
390539,-896,-8447,-857,5,53,-6,1
390544,-903,-8525,-1054,5,51,-6,1
390549,-956,-8407,-734,5,56,-6,1
390554,-941,-8485,-843,4,57,-6,1
390559,-899,-8460,-1598,3,58,-6,1
390564,-926,-8249,-677,3,56,-6,1
390569,-906,-8470,-1080,2,54,-6,1
390574,-937,-8512,-477,3,59,-6,1
390579,-802,-8510,-914,1,54,-6,1
390584,-837,-8424,-1026,0,52,-6,1
390589,-863,-8457,-819,-1,48,-7,1
390594,-911,-8373,-925,-2,50,-7,1
390599,-855,-8590,-512,-2,55,-7,1
390604,-848,-8495,-479,-3,53,-7,1
390609,-828,-8434,-458,-2,48,-7,1
390614,-813,-8408,-847,-4,48,-7,1
390619,-856,-8373,-486,-4,49,-7,1
390624,-887,-8545,-640,-6,51,-7,1
390629,-939,-8418,-153,-6,53,-7,1
390634,-892,-8575,-320,-6,53,-6,1
390639,-856,-8449,-273,-7,54,-7,1
390644,-827,-8448,-205,-7,47,-7,1
390649,-816,-8476,-481,-8,46,-7,1
390654,-848,-8300,-88,-9,48,-7,1
390659,-859,-8531,-388,-10,48,-6,1
390664,-879,-8519,103,-10,50,-6,1
390669,-851,-8624,-77,-11,48,-6,1
390674,-883,-8473,129,-11,47,-6,1
390679,-845,-8334,-70,-12,46,-6,1
390684,-835,-8342,-94,-12,46,-6,1
390689,-794,-8338,-349,-14,45,-6,1
390694,-819,-8374,29,-14,45,-6,1
390699,-802,-8279,-312,-15,45,-6,1
390704,-801,-8337,256,-15,46,-5,1
390709,-779,-8176,-134,-16,44,-5,1
390714,-757,-8244,-79,-16,44,-5,1
390719,-736,-8080,-281,-18,41,-5,1
390724,-713,-8376,-208,-19,40,-5,1
390729,-743,-8167,-76,-20,41,-5,1
390734,-742,-8345,260,-20,42,-5,1
390739,-725,-8230,-40,-21,41,-5,1
390744,-725,-8127,86,-20,38,-5,1
390749,-712,-8161,42,-22,37,-5,1
390754,-719,-8351,181,-22,37,-4,1
390759,-724,-8139,140,-24,37,-4,1
390764,-692,-8504,582,-23,37,-4,1
390768,-698,-8255,322,-24,36,-4,1
390773,-679,-8116,872,-23,35,-3,1
390779,-700,-8040,36,-24,33,-3,1
390784,-645,-8185,517,-24,31,-3,1
390788,-701,-8027,66,-26,31,-2,1
390793,-724,-8057,313,-25,32,-2,1
390799,-712,-7797,543,-26,34,-1,1
390803,-745,-8133,661,-24,33,-1,1
390809,-954,-7919,453,-25,27,-2,1
390813,-934,-8443,573,-25,24,-2,1
390819,-1052,-8133,289,-28,31,0,1
390824,-691,-8325,1107,-25,44,2,1
390829,-595,-8099,891,-26,48,2,1
390834,-349,-8175,1334,-22,39,2,1
390839,-625,-8129,769,-24,30,1,1
390843,-636,-8156,855,-23,22,3,1
390848,-790,-8187,563,-24,33,5,1
390853,-615,-8249,839,-24,35,5,1
390858,-501,-8149,920,-23,35,6,1
390863,-421,-8087,1123,-22,28,6,1
390868,-421,-7894,1218,-20,25,7,1
390873,-707,-8175,784,-20,23,7,1
390878,-746,-9206,1319,-20,23,8,1
390883,-2256,-8763,-968,-31,80,12,1
390888,406,-8262,1510,3,145,5,1
390893,2505,-8206,3634,22,194,-3,1
390898,3504,-7970,3771,43,86,-16,1
390903,3550,-7901,3527,57,-13,-21,1
390908,2241,-7998,3034,55,-63,-20,1
390913,1102,-8078,537,43,-27,-16,1
390918,-79,-8185,-972,41,43,-12,1
390923,-540,-8050,-1928,32,55,-7,1
390928,-661,-7862,-1759,28,44,-5,1
390933,-270,-7812,-785,27,37,-4,1
390938,150,-7916,194,25,46,-3,1
390943,269,-7993,663,26,41,-3,1
390948,297,-7894,775,28,21,-2,1
390953,39,-7974,532,27,14,-2,1
390958,-186,-8016,414,26,17,0,1
390963,-166,-8031,236,23,27,1,1
390968,-57,-7995,290,20,33,2,1
390973,60,-8095,503,19,29,2,1
390978,144,-8065,677,18,25,2,1
390983,32,-8289,823,18,22,3,1
390988,96,-8270,945,17,19,4,1
390993,139,-8231,841,16,27,4,1
390998,300,-8250,970,15,26,4,1
391003,374,-8337,1015,14,22,5,1
391008,330,-8353,1138,13,19,5,1
391013,564,-8359,1289,13,18,5,1
391018,152,-8310,1097,12,17,6,1
391023,1353,-8276,1811,14,17,2,1
391028,2495,-8274,2103,14,57,-4,1
391033,3158,-8255,2143,16,39,-10,1
391038,2870,-8212,2060,16,-2,-13,1
391043,1967,-8259,1726,15,-13,-13,1
391048,1272,-8258,1536,13,6,-10,1
391053,727,-8279,1551,11,24,-7,1
391058,532,-8297,1609,10,23,-4,1
391063,474,-8282,1551,9,16,-1,1
391068,596,-8280,1648,10,12,0,1
391073,833,-8244,1766,11,17,0,1
391078,1076,-8222,1745,11,19,-1,1
391083,1410,-8213,1837,12,15,-2,1
391088,1627,-8220,1823,11,16,-3,1
391093,1618,-8228,1859,10,11,-4,1
391098,1469,-8229,1864,9,4,-4,1
391103,1378,-8223,1827,9,7,-3,1
391108,1314,-8235,1851,9,12,-1,1
391113,1168,-8255,1913,9,10,0,1
391118,1080,-8252,1978,8,6,-1,1
391123,1083,-8247,2007,7,6,-1,1
391128,1117,-8244,2074,7,9,0,1
391133,1197,-8238,2042,7,9,0,1
391138,1243,-8233,1994,7,5,0,1
391143,1313,-8249,1940,7,1,0,1
391148,1387,-8257,1882,6,1,0,1
391153,1389,-8260,1825,6,0,0,1
391158,1417,-8262,1805,5,-1,1,1
391163,1454,-8263,1808,5,1,1,1
391168,1484,-8261,1871,5,0,1,1
391173,1565,-8254,1901,5,-1,1,1
391178,1571,-8255,1920,5,-2,1,1
391183,1534,-8256,1895,5,-5,2,1
391188,1498,-8263,1828,4,-7,3,1
391193,1470,-8272,1820,4,-6,3,1
391198,1480,-8272,1777,3,-7,4,1
391203,1491,-8272,1790,3,-7,4,1
391208,1505,-8272,1850,2,-10,5,1
391213,1562,-8264,1883,2,-12,5,1
391218,1636,-8260,1964,2,-11,6,1
391223,1647,-8257,2019,2,-13,6,1
391228,1574,-8254,2013,2,-18,5,1
391233,1583,-8249,2051,2,-20,5,1
391238,1570,-8249,2082,2,-18,5,1
391243,1541,-8245,2106,2,-20,5,1
391248,1516,-8243,2126,1,-22,5,1
391253,1445,-8243,2125,1,-22,6,1
391258,1362,-8249,2102,1,-24,6,1
391263,1280,-8256,2060,0,-26,7,1
391268,1245,-8253,2018,-1,-27,7,1
391273,1261,-8243,2016,-1,-25,8,1
391278,1340,-8243,2037,-2,-24,8,1
391283,1398,-8245,2047,-2,-24,8,1
391288,1320,-8244,2115,-3,-28,8,1
391293,1207,-8253,2159,-3,-32,9,1
391298,1164,-8243,2192,-3,-29,9,1
391303,1134,-8224,2227,-3,-28,10,1
391308,1123,-8217,2216,-3,-31,10,1
391313,1125,-8214,2201,-3,-33,10,1
391318,1109,-8210,2172,-4,-33,10,1
391323,1060,-8210,2153,-4,-35,11,1
391328,1010,-8207,2130,-5,-36,11,1
391333,957,-8201,2131,-5,-35,11,1
391338,877,-8201,2136,-5,-37,11,1
391343,827,-8187,2113,-5,-37,11,1
391348,771,-8194,2110,-6,-36,12,1
391353,713,-8200,2073,-6,-37,12,1
391358,661,-8196,2034,-6,-38,12,1
391363,582,-8220,2012,-7,-40,12,1
391368,723,-8208,1982,-7,-38,12,1
391373,701,-8198,1998,-7,-38,11,1
391378,631,-8184,1991,-7,-47,11,1
391383,488,-8180,1989,-7,-46,12,1
391388,422,-8179,1964,-7,-44,12,1
391393,355,-8180,1920,-7,-44,13,1
391398,314,-8176,1829,-8,-48,13,1
391403,355,-8169,1743,-8,-47,13,1
391408,351,-8169,1698,-8,-47,13,1
391413,404,-8163,1626,-9,-49,13,1
391418,392,-8155,1622,-9,-47,13,1
391423,347,-8147,1620,-9,-49,13,1
391428,290,-8139,1594,-9,-49,13,1
391433,217,-8137,1576,-9,-47,14,1
391438,166,-8134,1519,-8,-46,14,1
391443,161,-8134,1456,-8,-46,14,1
391448,179,-8129,1379,-9,-44,14,1
391453,165,-8126,1297,-9,-45,14,1
391458,174,-8122,1241,-9,-45,14,1
391463,140,-8121,1205,-9,-43,14,1
391468,80,-8130,1185,-9,-44,14,1
391473,8,-8156,1159,-9,-44,15,1
391478,16,-8166,1167,-9,-45,15,1
391483,124,-8179,1163,-9,-44,14,1
391488,219,-8194,1137,-8,-46,13,1
391493,233,-8201,1113,-8,-50,12,1
391498,278,-8218,1053,-8,-50,11,1
391503,235,-8264,1033,-8,-49,10,1
391508,157,-8287,1007,-7,-51,10,1
391513,-10,-8276,957,-7,-52,10,1
391518,-79,-8290,910,-7,-49,10,1
391523,-135,-8308,812,-7,-47,10,1
391528,24,-8314,775,-7,-46,10,1
391533,86,-8320,758,-7,-44,9,1
391538,96,-8343,752,-6,-47,8,1
391543,-43,-8394,719,-6,-46,7,1
391548,-66,-8411,669,-6,-45,7,1
391553,-159,-8397,636,-5,-41,6,1
391558,-114,-8445,587,-5,-41,6,1
391563,-84,-8534,643,-5,-37,5,1
391568,87,-8570,645,-5,-38,3,1
391573,80,-8535,678,-4,-39,2,1
391578,-202,-8505,647,-4,-43,2,1
391583,-392,-8559,583,-4,-42,2,1
391588,-332,-8542,559,-4,-32,2,1
391593,-123,-8472,575,-4,-31,1,1
391598,-84,-8498,587,-3,-36,0,1
391603,-72,-8489,568,-3,-37,-1,1
391608,-95,-8487,518,-2,-36,-1,1
391613,-204,-8515,430,-2,-35,-2,1
391618,-270,-8478,397,-2,-36,-2,1
391623,-242,-8453,356,-2,-31,-2,1
391628,-87,-8440,380,-2,-28,-3,1
391633,-100,-8440,364,-1,-29,-4,1
391638,-94,-8431,324,-1,-32,-5,1
391643,-225,-8440,243,-1,-29,-5,1
391648,-255,-8423,224,0,-26,-6,1
391653,-221,-8356,209,0,-24,-6,1
391658,-320,-8441,224,0,-23,-6,1
391663,-274,-8437,230,0,-21,-7,1
391668,-217,-8365,242,1,-18,-7,1
391673,-147,-8379,199,1,-19,-8,1
391678,-164,-8420,232,1,-18,-9,1
391683,-205,-8385,271,2,-18,-9,1
391688,-210,-8330,322,2,-17,-10,1
391693,-186,-8296,336,2,-15,-10,1
391698,-160,-8297,332,2,-14,-11,1
391703,-98,-8251,348,2,-12,-11,1
391708,107,-8221,355,2,-13,-12,1
391713,-110,-8371,429,3,-15,-12,1
391718,-134,-8385,448,3,-19,-13,1
391723,-175,-8335,491,3,-15,-13,1
391728,-111,-8340,485,3,-16,-14,1
391733,-72,-8297,505,3,-16,-14,1
391738,-39,-8404,499,3,-17,-15,1
391743,-63,-8402,507,3,-17,-16,1
391748,-34,-8292,484,3,-19,-17,1
391753,-165,-8319,497,4,-18,-17,1
391758,-226,-8392,488,4,-17,-17,1
391763,-211,-8293,467,4,-14,-17,1
391768,-182,-8164,428,5,-15,-17,1
391773,-89,-8172,335,5,-16,-18,1
391778,-185,-8158,327,5,-14,-18,1
391783,-34,-8097,238,5,-15,-19,1
391788,-261,-8057,307,6,-12,-19,1
391793,-80,-8069,186,6,-15,-19,1
391798,-276,-8076,238,7,-7,-19,1
391803,-210,-8105,141,7,-13,-19,1
391808,-310,-8079,159,7,-9,-19,1
391813,-294,-8109,129,8,-8,-19,1
391818,-282,-8043,146,8,-6,-19,1
391823,-243,-8000,140,8,-6,-20,1
391828,-229,-8113,130,9,-5,-20,1
391833,-196,-8048,136,9,-4,-21,1
391838,-256,-8088,154,9,-6,-21,1
391843,-248,-8145,140,9,-5,-21,1
391848,-337,-8059,187,9,-2,-21,1
391853,-382,-8290,185,10,-4,-21,1
391858,-327,-8188,161,10,2,-22,1
391863,299,-8273,241,10,-2,-23,1
391868,639,-8301,541,10,-10,-24,1
391873,-1792,-8215,70,8,-69,-13,1
391878,-3875,-8201,-406,6,-135,6,1
391883,-5662,-8037,-598,3,-69,24,1
391888,-5039,-7914,-650,0,85,30,1
391893,-3597,-8048,-490,-2,143,32,1
391898,-2017,-8269,-620,-2,57,28,1
391903,-701,-8392,-482,0,-16,22,1
391908,-177,-8376,-264,-1,-22,19,1
391913,-62,-8344,-470,-2,-9,16,1
391918,-298,-8312,-199,-1,-1,14,1
391923,-909,-8280,53,-1,2,15,1
391928,-1474,-8294,148,0,3,17,1
391933,-1563,-8323,-26,0,13,18,1
391938,-1219,-8352,-337,-1,28,18,1
391943,-854,-8386,-516,-3,25,16,1
391948,-668,-8411,-602,-5,9,15,1
391953,-758,-8410,-422,-6,1,14,1
391958,-933,-8383,-183,-6,4,14,1
391963,-971,-8345,-51,-5,13,13,1
391967,-841,-8316,-151,-5,18,12,1
391972,-664,-8303,-455,-5,16,11,1
391978,-561,-8288,-674,-7,9,10,1
391982,-599,-8268,-719,-8,6,9,1
391988,-740,-8251,-600,-9,8,9,1
391993,-864,-8239,-495,-9,12,9,1
391997,-926,-8235,-512,-9,15,9,1
392003,-886,-8235,-737,-10,16,8,1
392008,-734,-9036,-908,-11,16,7,1
392013,-850,-8822,-916,-13,13,6,1
392018,-1016,-8658,-538,-11,12,6,1
392023,-1182,-8682,-334,-9,22,6,1
392028,-1268,-8749,1,-6,26,6,1
392032,-1148,-8751,-632,-6,24,6,1
392038,-1064,-8476,-871,-7,24,6,1
392043,-971,-8430,-1277,-9,24,5,1
392047,-1074,-8401,-981,-10,29,4,1
392052,-1129,-8596,-709,-10,32,4,1
392058,-1299,-8483,-425,-8,33,4,1
392063,-1305,-8274,-676,-6,31,4,1
392068,-1356,-8451,-569,-5,34,4,1
392073,-1318,-8268,-1060,-7,35,3,1
392077,-1309,-8140,-1254,-7,40,3,1
392083,-1356,-8355,-872,-8,44,3,1
392087,-1434,-8394,-718,-8,44,2,1
392093,-1503,-8326,-535,-7,44,2,1
392097,-1527,-8285,-645,-6,42,2,1
392102,-1556,-8253,-812,-6,44,2,1
392108,-1575,-8250,-919,-7,46,2,1
392112,-1581,-8186,-1000,-8,48,1,1
392118,-1611,-8081,-940,-8,50,1,1
392122,-1645,-8130,-894,-8,51,1,1
392128,-1697,-8142,-642,-7,50,1,1
392132,-1702,-8059,-854,-7,52,1,1
392137,-1708,-7989,-617,-6,55,1,1
392142,-1609,-8275,-964,-6,55,0,1
392147,-1646,-8280,-655,-6,53,0,1
392152,-1706,-8079,-645,-6,52,0,1
392157,-1756,-8092,-553,-5,58,0,1
392162,-1737,-8173,-372,-4,60,0,1
392167,-1647,-8146,-641,-5,59,-1,1
392172,-1599,-8026,-871,-5,55,-1,1
392177,-1581,-8312,-672,-6,54,-1,1
392182,-1671,-8150,-449,-7,55,-2,1
392187,-1707,-8124,-409,-7,55,-1,1
392192,-1692,-8165,-357,-6,54,-1,1
392197,-1675,-8039,-403,-6,50,-1,1
392202,-1618,-7994,-657,-7,49,-1,1
392207,-1589,-8101,-450,-7,52,-1,1
392212,-1579,-8163,-471,-8,50,-1,1
392217,-1620,-8177,-212,-7,50,0,1
392222,-1610,-8136,-150,-7,50,0,1
392227,-1619,-7917,-182,-7,50,0,1
392232,-1564,-7903,-294,-6,49,1,1
392237,-1545,-8066,-230,-7,49,1,1
392242,-1547,-8090,-158,-8,48,1,1
392247,-1547,-8017,-96,-8,48,1,1
392252,-1544,-7918,-9,-8,48,2,1
392257,-1578,-7956,183,-7,48,2,1
392262,-1469,-7766,-471,-8,44,2,1
392267,-1489,-7825,200,-7,45,3,1
392272,-1419,-8134,-171,-8,43,3,1
392277,-1530,-8072,420,-8,46,3,1
392282,-1465,-8063,25,-9,43,4,1
392287,-1503,-8041,405,-8,44,4,1
392292,-1441,-7906,52,-9,41,4,1
392297,-1409,-7781,214,-9,40,5,1
392302,-1346,-7876,5,-9,40,5,1
392307,-1351,-7931,208,-10,38,5,1
392312,-1319,-8013,37,-11,36,5,1
392317,-1301,-7860,122,-11,35,6,1
392322,-1301,-7971,76,-11,35,6,1
392327,-1299,-8034,188,-12,34,6,1
392332,-1341,-8074,172,-13,34,7,1
392337,-1318,-7969,146,-13,33,7,1
392342,-1345,-7959,103,-14,34,7,1
392347,-1264,-7955,75,-15,33,7,1
392352,-1277,-7896,170,-16,33,7,1
392357,-1121,-8260,-111,-17,30,7,1
392362,-1214,-8067,222,-17,30,7,1
392367,-1271,-8006,173,-18,25,7,1
392372,-1279,-8081,233,-18,29,7,1
392377,-1134,-8047,-103,-20,29,7,1
392382,-1027,-8031,-15,-21,26,7,1
392387,-976,-8005,-114,-23,22,6,1
392392,-1021,-7980,238,-23,19,6,1
392397,-1438,-9180,-819,-24,20,6,1
392402,-2296,-9397,52,-26,24,8,1
392407,371,-9180,2384,-11,102,-9,1
392412,2271,-9034,3230,4,175,-21,1
392417,3908,-9108,3788,20,85,-31,1
392422,3743,-9047,2959,25,-51,-34,1
392427,2566,-8736,1756,24,-91,-36,1
392432,1039,-8713,1044,21,-27,-29,1
392437,-545,-8768,775,16,27,-24,1
392442,-1852,-8765,982,12,39,-19,1
392447,-2504,-8706,1395,11,37,-13,1
392452,-2306,-8476,1259,11,40,-8,1
392457,-1675,-8176,1243,12,38,-8,1
392462,-866,-7840,1116,11,33,-12,1
392467,-134,-7813,1249,12,24,-14,1
392472,25,-7655,814,11,12,-15,1
392477,-314,-7777,974,10,-2,-14,1
392482,-822,-7932,686,9,1,-14,1
392487,-1227,-7930,1584,11,20,-12,1
392492,-1226,-7926,2277,14,36,-10,1
392497,-1138,-7849,2862,20,35,-8,1
392502,-782,-7778,2562,24,20,-8,1
392507,-691,-7753,2377,25,11,-7,1
392512,-746,-7811,1952,25,4,-7,1
392517,-756,-7863,1514,23,5,-6,1
392522,-784,-7920,1266,20,12,-6,1
392527,-746,-7952,1168,18,13,-5,1
392532,-671,-7976,1230,18,16,-5,1
392537,-559,-7990,1421,18,13,-4,1
392542,-478,-8001,1579,19,12,-4,1
392547,-409,-8015,1631,20,13,-4,1
392552,-304,-8032,1552,21,13,-4,1
392557,-244,-8047,1316,20,11,-5,1
392562,-181,-8062,1297,20,6,-5,1
392567,-212,-8071,1232,19,8,-5,1
392572,-254,-8081,1182,18,12,-5,1
392577,-280,-8088,1289,17,13,-5,1
392582,-310,-8091,1360,17,11,-5,1
392587,-306,-8100,1397,18,10,-5,1
392592,-260,-8102,1430,18,9,-4,1
392597,-209,-8104,1408,18,8,-4,1
392602,-141,-8100,1341,18,7,-4,1
392607,-85,-8105,1318,17,7,-4,1
392612,-29,-8108,1289,16,8,-5,1
392617,-2,-8115,1308,16,8,-5,1
392622,14,-8139,1375,16,6,-4,1
392627,56,-8142,1398,16,9,-4,1
392632,102,-8149,1422,15,11,-4,1
392637,98,-8165,1464,15,8,-4,1
392642,152,-8182,1466,15,6,-4,1
392647,277,-8199,1439,15,9,-4,1
392652,401,-8207,1432,14,8,-4,1
392657,462,-8229,1408,14,4,-4,1
392662,514,-8229,1398,13,2,-5,1
392667,485,-8264,1423,13,1,-4,1
392672,478,-8254,1420,12,2,-4,1
392677,537,-8262,1337,12,3,-4,1
392682,474,-8253,1465,12,4,-4,1
392687,476,-8239,1494,12,2,-3,1
392692,532,-8233,1548,12,4,-3,1
392697,611,-8210,1529,11,5,-3,1
392702,699,-8194,1486,11,3,-3,1
392707,661,-8194,1529,11,0,-2,1
392712,688,-8192,1483,10,-1,-2,1
392717,640,-8169,1519,10,2,-2,1
392722,640,-8221,1550,10,1,-1,1
392727,618,-8239,1596,10,2,-1,1
392732,666,-8248,1589,10,0,0,1
392737,714,-8255,1600,9,-1,0,1
392742,777,-8280,1551,9,-3,0,1
392747,821,-8283,1524,8,-4,0,1
392752,846,-8295,1515,8,-6,0,1
392757,840,-8322,1527,7,-7,-1,1
392762,848,-8314,1536,7,-7,-1,1
392767,879,-8364,1465,7,-7,-1,1
392772,878,-8369,1527,6,-6,-1,1
392777,884,-8407,1516,6,-8,-1,1
392782,851,-8390,1487,5,-10,-1,1
392787,824,-8425,1402,5,-13,-1,1
392792,808,-8461,1331,4,-12,0,1
392797,721,-8480,1399,3,-13,0,1
392802,761,-8488,1216,2,-13,0,1
392807,696,-8489,1333,2,-10,0,1
392812,743,-8536,1200,1,-11,0,1
392817,716,-8489,1256,1,-10,0,1
392822,748,-8504,1168,0,-13,0,1
392827,747,-8511,1163,-1,-11,0,1
392832,710,-8521,1221,-1,-11,0,1
392837,714,-8560,1177,-2,-12,0,1
392842,713,-8517,1200,-2,-12,0,1
392847,721,-8530,1126,-3,-13,0,1
392852,681,-8586,1199,-3,-13,0,1
392857,692,-8622,1142,-4,-14,-1,1
392862,680,-8611,1159,-4,-14,-1,1
392867,696,-8587,1091,-5,-15,-1,1
392872,697,-8559,1049,-6,-15,-1,1
392877,745,-8571,901,-7,-15,-2,1
392882,703,-8623,979,-7,-14,-2,1
392887,691,-8643,949,-8,-16,-2,1
392892,663,-8635,969,-9,-16,-3,1
392897,649,-8684,981,-9,-16,-3,1
392902,668,-8658,913,-10,-16,-3,1
392907,666,-8667,886,-11,-16,-4,1
392912,667,-8669,847,-11,-16,-4,1
392917,637,-8661,868,-12,-16,-5,1
392922,624,-8671,840,-13,-15,-5,1
392927,596,-8643,867,-13,-15,-5,1
392932,576,-8643,877,-14,-14,-6,1
392937,580,-8599,856,-14,-13,-6,1
392942,586,-8575,837,-14,-13,-6,1
392947,559,-8558,901,-14,-13,-7,1
392952,516,-8519,941,-15,-14,-7,1
392957,512,-8440,923,-15,-14,-7,1
392962,486,-8436,939,-14,-14,-7,1
392967,462,-8435,944,-15,-14,-7,1
392972,438,-8444,955,-15,-14,-7,1
392977,443,-8419,923,-15,-14,-8,1
392982,439,-8324,930,-15,-14,-7,1
392987,429,-8277,876,-15,-14,-8,1
392992,396,-8234,867,-15,-13,-8,1
392997,419,-8256,771,-15,-13,-8,1
393002,410,-8323,784,-15,-12,-8,1
393007,393,-8329,791,-15,-13,-9,1
393012,399,-8342,792,-15,-13,-9,1
393017,421,-8303,773,-15,-13,-9,1
393022,422,-8307,812,-15,-14,-9,1
393027,420,-8322,808,-15,-15,-9,1
393032,348,-8239,915,-14,-15,-9,1
393037,336,-8169,743,-14,-17,-9,1
393042,344,-8100,759,-14,-13,-9,1
393047,414,-8104,696,-14,-14,-9,1
393052,417,-8155,789,-14,-16,-10,1
393057,405,-8252,792,-14,-19,-10,1
393062,540,-8198,586,-14,-19,-10,1
393067,419,-8099,833,-13,-17,-9,1
393072,256,-8138,862,-12,-21,-9,1
393077,158,-8117,941,-11,-17,-9,1
393082,288,-8097,756,-10,-12,-9,1
393087,442,-8053,603,-10,-10,-9,1
393092,538,-8072,470,-11,-15,-9,1
393097,475,-8071,511,-11,-15,-9,1
393102,373,-8100,586,-11,-14,-9,1
393107,312,-8121,631,-10,-11,-9,1
393112,290,-8173,644,-10,-10,-8,1
393117,392,-8176,512,-9,-9,-9,1
393122,480,-8204,456,-10,-7,-9,1
393127,524,-8219,447,-10,-8,-9,1
393132,464,-8232,566,-10,-10,-9,1
393137,429,-8259,604,-10,-10,-10,1
393142,411,-8246,616,-9,-9,-10,1
393147,474,-8236,507,-9,-9,-10,1
393152,553,-8268,432,-10,-8,-10,1
393157,643,-8247,359,-10,-8,-11,1
393162,643,-8256,399,-11,-9,-11,1
393167,629,-8321,417,-11,-9,-12,1
393172,584,-8352,459,-11,-8,-12,1
393177,609,-8364,386,-11,-8,-12,1
393182,663,-8320,327,-11,-7,-12,1
393187,731,-8306,266,-12,-7,-13,1
393192,748,-8327,307,-12,-7,-13,1
393197,750,-8362,345,-13,-7,-14,1
393202,723,-8356,384,-13,-8,-14,1
393207,711,-8360,330,-13,-8,-14,1
393211,739,-8348,263,-14,-8,-15,1
393217,782,-8334,199,-14,-8,-16,1
393222,834,-8319,187,-15,-9,-17,1
393227,871,-8289,226,-16,-9,-17,1
393232,914,-8320,223,-16,-10,-18,1
393237,906,-8282,242,-17,-10,-19,1
393241,898,-8241,181,-17,-11,-19,1
393247,848,-8241,198,-17,-9,-19,1
393251,875,-8217,149,-18,-7,-19,1
393257,872,-8196,196,-18,-5,-19,1
393262,874,-8180,214,-18,-6,-19,1
393267,862,-8175,258,-18,-5,-19,1
393271,838,-8192,285,-19,-4,-19,1
393277,881,-8096,203,-19,-4,-20,1
393281,912,-8094,191,-19,-2,-20,1
393287,913,-8095,225,-20,-1,-20,1
393292,841,-8051,326,-19,0,-20,1
393297,783,-8020,384,-19,1,-19,1
393301,796,-8130,364,-19,5,-19,1
393307,853,-8115,350,-19,8,-19,1
393311,909,-8092,369,-19,5,-19,1
393316,853,-8155,546,-19,2,-19,1
393322,778,-8177,670,-18,0,-18,1
393327,754,-8169,769,-18,1,-18,1
393331,817,-8131,801,-17,0,-18,1
393336,897,-8128,829,-17,-5,-17,1
393341,893,-8130,913,-16,-10,-17,1
393347,835,-8114,961,-16,-15,-17,1
393351,765,-8145,987,-15,-15,-17,1
393356,674,-8149,1028,-15,-14,-16,1
393361,675,-8197,1013,-14,-14,-16,1
393366,688,-8178,979,-14,-15,-16,1
393371,771,-8159,894,-14,-18,-16,1
393376,715,-8101,907,-13,-19,-16,1
393381,645,-8090,875,-13,-21,-16,1
393386,558,-8097,866,-12,-19,-16,1
393391,634,-8118,767,-11,-15,-16,1
393396,708,-8129,607,-11,-11,-17,1
393401,750,-8133,428,-11,-11,-17,1
393406,718,-8118,367,-11,-10,-17,1
393411,614,-8131,363,-10,-8,-17,1
393416,544,-8119,379,-9,-6,-17,1
393421,550,-8118,288,-9,-2,-17,1
393426,631,-8158,157,-8,3,-17,1
393431,745,-8214,26,-8,6,-18,1
393436,773,-8214,-14,-8,6,-19,1
393441,677,-8211,10,-8,5,-19,1
393446,598,-8216,27,-7,6,-19,1
393451,583,-8213,-20,-7,11,-20,1
393456,636,-8182,-115,-6,16,-20,1
393461,702,-8156,-207,-6,17,-21,1
393466,733,-8187,-245,-6,17,-22,1
393471,715,-8118,-210,-6,18,-23,1
393476,673,-8081,-179,-6,19,-23,1
393481,693,-8043,-203,-6,23,-23,1
393486,757,-8031,-282,-6,29,-24,1
393491,838,-8032,-354,-6,35,-25,1
393496,878,-8012,-380,-6,37,-26,1
393501,922,-7986,-315,-6,33,-27,1
393506,1166,-7918,-185,-6,-1,-27,1
393511,1256,-7929,-35,-6,-37,-27,1
393516,1543,-7926,148,-7,-49,-28,1
393521,1651,-7944,228,-8,-70,-29,1
393526,1663,-7927,169,-9,-76,-29,1
393531,1470,-7930,188,-10,-75,-29,1
393536,1260,-7859,221,-11,-76,-30,1
393541,1019,-7813,362,-13,-75,-30,1
393546,800,-7764,482,-14,-65,-30,1
393551,584,-7795,620,-16,-48,-30,1
393556,320,-7828,870,-18,-33,-31,1
393561,240,-7783,1005,-19,-19,-31,1
393566,317,-7784,1052,-21,-6,-31,1
393571,456,-7790,903,-22,5,-30,1
393576,549,-7814,707,-22,14,-30,1
393581,713,-7761,400,-22,9,-30,1
393586,837,-7726,133,-22,-5,-30,1
393591,1010,-7716,-110,-22,-24,-30,1
393596,1090,-7667,-282,-22,-41,-30,1
393601,1106,-7547,-400,-22,-56,-30,1
393606,1081,-7433,-517,-23,-67,-30,1
393611,1024,-7361,-586,-23,-72,-30,1
393616,1146,-7350,-683,-25,-66,-32,1
393621,1317,-7326,-901,-26,-45,-34,1
393626,1453,-7265,-1089,-27,-28,-35,1
393631,1487,-7175,-1167,-28,-26,-36,1
393636,1456,-7003,-1210,-29,-41,-37,1
393641,1454,-6840,-1205,-29,-59,-37,1
393646,1463,-6710,-1236,-30,-67,-38,1
393651,1499,-6595,-1348,-31,-67,-39,1
393656,1587,-6809,-1511,-32,-64,-40,1
393661,1565,-6783,-1680,-33,-63,-41,1
393666,1567,-6572,-1837,-34,-64,-41,1
393671,1593,-6373,-1991,-35,-62,-42,1
393676,1598,-6274,-2117,-36,-57,-43,1
393681,1632,-6171,-2239,-37,-56,-44,1
393686,1680,-6051,-2343,-37,-57,-45,1
393691,1730,-5968,-2394,-38,-61,-46,1
393696,1770,-6010,-2398,-39,-68,-47,1
393701,1776,-6026,-2359,-40,-76,-48,1
393706,1760,-6005,-2286,-41,-87,-48,1
393711,1673,-5964,-2167,-41,-96,-48,1
393716,1580,-5951,-2048,-42,-106,-48,1
393721,1508,-6017,-2022,-43,-116,-48,1
393726,1402,-6129,-2043,-43,-124,-48,1
393731,1240,-6261,-2107,-43,-131,-48,1
393736,994,-6383,-2191,-44,-135,-47,1
393741,693,-6567,-2261,-44,-135,-47,1
393746,373,-6830,-2287,-44,-125,-46,1
393751,42,-7068,-2231,-45,-108,-46,1
393756,-197,-7400,-2071,-45,-99,-45,1
393761,-478,-7795,-1854,-44,-104,-44,1
393766,-431,-8207,-1670,-44,-117,-44,1
393771,-37,-8547,-1586,-43,-115,-38,1
393776,266,-8795,-1591,-43,-103,-36,1
393781,784,-8961,-1636,-43,-109,-35,1
393786,960,-9039,-1584,-42,-126,-33,1
393791,1014,-9060,-1524,-41,-156,-31,1
393796,853,-9039,-1418,-41,-178,-27,1
393801,711,-8981,-1370,-40,-185,-24,1
393806,633,-8875,-1327,-39,-179,-21,1
393811,607,-8735,-1296,-39,-171,-19,1
393816,648,-8586,-1227,-39,-166,-16,1
393821,668,-8445,-1087,-38,-163,-13,1
393826,701,-8346,-991,-38,-159,-11,1
393831,745,-8277,-945,-36,-157,-8,1
393836,676,-8719,-814,-35,-154,-6,1
393841,708,-8954,-736,-34,-152,-3,1
393846,885,-9056,-1221,-37,-135,-2,1
393851,992,-9138,-1840,-38,-115,-1,1
393856,1135,-9165,-2670,-36,-111,0,1
393861,1232,-9235,-3198,-33,-126,1,1
393866,1447,-9309,-3495,-32,-155,2,1
393871,1707,-9303,-3754,-30,-188,3,1
393876,2089,-9233,-3812,-28,-225,4,1
393881,2580,-9129,-3779,-26,-258,6,1
393886,2944,-8869,-3752,-24,-269,9,1
393891,3072,-8566,-3690,-22,-248,13,1
393896,2708,-8320,-3493,-23,-176,16,1
393901,1921,-8052,-3296,-27,-42,20,1
393906,943,-7731,-3531,-29,132,22,1
393911,306,-7591,-3449,-32,307,23,1
393916,-135,-7536,-3299,-35,463,26,1
393921,-283,-7558,-3469,-38,562,25,1
393926,95,-7722,-3551,-38,591,23,1
393931,665,-7964,-3692,-38,564,21,1
393936,1481,-8203,-3853,-35,488,18,1
393941,2268,-8419,-3929,-32,382,15,1
393946,2855,-8599,-3981,-29,272,12,1
393951,3169,-8751,-4113,-26,174,10,1
393956,3208,-8895,-4282,-24,99,9,1
393961,3080,-8961,-4480,-21,50,9,1
393966,2874,-8924,-4616,-19,29,9,1
393971,2599,-8759,-4650,-17,34,9,1
393976,2591,-8593,-4848,-16,58,10,1
393981,2592,-8475,-5019,-15,93,10,1
393986,2676,-8322,-5220,-14,119,10,1
393991,2772,-8122,-5394,-13,134,10,1
393996,2871,-7934,-5489,-13,142,10,1
394001,3007,-7763,-5593,-12,148,10,1
394006,3133,-7615,-5666,-12,156,10,1
394011,3243,-7476,-5698,-12,166,9,1
394016,3328,-7326,-5719,-11,174,9,1
394021,3362,-7177,-5685,-10,179,9,1
394026,3405,-7041,-5648,-10,177,8,1
394031,3378,-6886,-5541,-9,172,8,1
394036,3349,-6724,-5419,-9,164,7,1
394041,3264,-6556,-5283,-9,157,5,1
394046,3197,-6388,-5170,-8,151,4,1
394051,3124,-6166,-4962,-8,148,3,1
394056,3064,-5922,-4786,-8,147,1,1
394061,2957,-5725,-4571,-8,147,0,1
394066,2947,-5480,-4424,-9,144,-2,1
394071,2895,-5293,-4195,-9,142,-3,1
394076,2866,-5090,-3956,-10,138,-5,1
394081,2922,-4876,-3728,-11,130,-8,1
394086,2931,-4696,-3411,-12,120,-9,1
394091,3074,-4499,-3175,-12,100,-11,1
394096,3125,-4358,-2885,-13,78,-13,1
394101,3285,-4191,-2711,-14,53,-15,1
394106,3318,-4127,-2513,-15,25,-17,1
394111,3494,-4058,-2391,-16,-12,-20,1
394116,3486,-4028,-2214,-17,-48,-22,1
394121,3391,-4011,-2036,-18,-74,-24,1
394126,3286,-4008,-2001,-19,-91,-26,1
394131,2980,-4126,-1906,-20,-98,-26,1
394136,2891,-4275,-2139,-20,-100,-27,1
394141,2662,-4525,-2311,-21,-87,-27,1
394146,2672,-4806,-2735,-21,-67,-27,1
394151,2623,-5231,-3175,-20,-36,-27,1
394156,2779,-5765,-3788,-19,18,-25,1
394161,3128,-6320,-4339,-18,99,-21,1
394166,3545,-6819,-4632,-16,151,-20,1
394171,4001,-7115,-4939,-15,166,-21,1
394176,4118,-7255,-4854,-14,160,-22,1
394181,4201,-7226,-4736,-13,127,-22,1
394186,4098,-7156,-4415,-10,92,-21,1
394191,4026,-7139,-4147,-8,63,-19,1
394196,3993,-7183,-3868,-6,49,-19,1
394201,3770,-7106,-3411,-8,35,-21,1
394206,3560,-6815,-3220,-10,32,-24,1
394211,3105,-6494,-2923,-10,62,-25,1
394216,2871,-6178,-2808,-10,98,-24,1
394221,2777,-6024,-2805,-9,138,-22,1
394226,2800,-6064,-2843,-9,176,-21,1
394231,3173,-6166,-2977,-10,205,-23,1
394236,3897,-6279,-2935,-10,218,-24,1
394241,4475,-6464,-2756,-10,211,-23,1
394246,5105,-6602,-2543,-9,175,-23,1
394251,5630,-6654,-2307,-8,117,-23,1
394256,5990,-6670,-2048,-7,41,-23,1
394261,6370,-6681,-1814,-7,-42,-22,1
394266,6658,-6713,-1596,-7,-116,-22,1
394271,6877,-6722,-1529,-7,-180,-23,1
394276,6912,-6742,-1563,-8,-229,-25,1
394281,6840,-6692,-1715,-8,-270,-25,1
394286,6568,-6599,-1781,-9,-303,-25,1
394291,6246,-6512,-1840,-10,-324,-24,1
394296,5948,-6460,-1920,-10,-329,-23,1
394301,5588,-6486,-2061,-10,-318,-23,1
394306,5267,-6512,-2304,-10,-297,-22,1
394311,4906,-6564,-2566,-10,-270,-22,1
394316,4542,-6668,-2874,-11,-239,-21,1
394321,4160,-6791,-3165,-11,-207,-20,1
394326,3816,-6927,-3432,-11,-171,-19,1
394331,3497,-7057,-3634,-11,-132,-19,1
394336,3187,-7150,-3782,-10,-92,-18,1
394341,2879,-7094,-3865,-10,-50,-18,1
394346,2685,-6987,-3912,-10,-15,-18,1
394351,2646,-6916,-4002,-9,2,-18,1
394356,2763,-6914,-4136,-8,2,-18,1
394361,2899,-6986,-4190,-8,-5,-18,1
394366,3136,-7078,-4391,-7,-9,-19,1
394371,3264,-7193,-4449,-7,-4,-19,1
394376,3403,-7261,-4549,-6,-3,-20,1
394381,3440,-7312,-4540,-6,-2,-20,1
394385,3437,-7364,-4405,-6,-1,-19,1
394391,3449,-7362,-4263,-5,5,-18,1
394396,3425,-7338,-4021,-4,12,-18,1
394400,3465,-7306,-3890,-4,15,-17,1
394405,3508,-7289,-3735,-4,15,-17,1
394410,3550,-7192,-3601,-5,9,-17,1
394416,3596,-7067,-3483,-5,2,-17,1
394420,3634,-6948,-3350,-5,-5,-17,1
394426,3654,-6859,-3283,-5,-9,-17,1
394430,3639,-6814,-3181,-6,-12,-17,1
394436,3665,-6804,-3153,-6,-16,-17,1
394441,3730,-6840,-3119,-7,-21,-17,1
394446,3788,-6919,-3131,-7,-25,-16,1
394451,3835,-7006,-3193,-6,-28,-17,1
394455,3865,-7159,-3217,-7,-28,-16,1
394460,3998,-7289,-3177,-7,-19,-15,1
394466,4095,-7324,-3106,-8,-2,-14,1
394471,4142,-7307,-3144,-7,2,-14,1
394476,4110,-7256,-3274,-6,-4,-14,1
394481,4147,-7247,-3432,-6,-18,-13,1
394485,4295,-7245,-3560,-6,-30,-12,1
394491,4549,-7251,-3664,-6,-32,-11,1
394495,4767,-7252,-3736,-6,-20,-12,1
394501,4869,-7202,-3858,-6,-5,-12,1
394506,4846,-7077,-3954,-6,1,-12,1
394510,4791,-6885,-3984,-6,-4,-11,1
394516,4766,-6671,-3870,-6,-9,-10,1
394520,4819,-6480,-3743,-5,-8,-9,1
394525,4925,-6312,-3699,-5,1,-9,1
394530,5044,-6170,-3752,-5,9,-9,1
394535,5158,-6058,-3873,-6,11,-8,1
394540,5268,-5961,-3992,-7,7,-8,1
394545,5335,-5891,-4042,-7,4,-8,1
394550,5406,-5848,-4115,-7,6,-8,1
394555,5395,-5807,-4116,-7,10,-7,1
394560,5361,-5794,-4171,-7,11,-7,1
394565,5303,-5836,-4224,-6,10,-6,1
394570,5273,-5892,-4363,-6,10,-6,1
394575,5235,-5947,-4461,-6,16,-5,1
394580,5228,-5987,-4569,-6,24,-5,1
394585,5240,-5996,-4618,-6,32,-5,1
394590,5233,-5994,-4616,-6,37,-5,1
394595,5239,-5976,-4535,-6,37,-5,1
394600,5255,-5941,-4424,-6,35,-4,1
394605,5280,-5934,-4298,-5,32,-4,1
394610,5356,-5924,-4181,-5,28,-4,1
394615,5379,-5947,-4124,-5,25,-4,1
394620,5468,-5974,-4065,-5,22,-4,1
394625,5479,-6002,-4042,-5,21,-3,1
394630,5494,-6003,-3971,-5,23,-3,1
394635,5478,-5999,-3899,-5,29,-3,1
394640,5457,-6003,-3798,-5,35,-3,1
394645,5437,-6014,-3681,-5,41,-3,1
394650,5394,-6057,-3581,-5,46,-2,1
394655,5373,-6116,-3497,-6,50,-2,1
394660,5323,-6175,-3406,-6,54,-1,1
394665,5250,-6252,-3312,-6,58,-1,1
394670,5287,-6299,-3138,-6,60,-1,1
394675,5262,-6377,-3049,-6,61,-1,1
394680,5251,-6464,-2999,-5,58,-1,1
394685,5209,-6557,-2992,-6,55,0,1
394690,5191,-6637,-2985,-6,53,0,1
394695,5179,-6662,-2945,-6,55,1,1
394700,5205,-6626,-2889,-6,57,1,1
394705,5233,-6542,-2804,-6,56,1,1
394710,5270,-6415,-2755,-6,50,1,1
394715,5307,-6276,-2711,-6,40,1,1
394720,5372,-6122,-2726,-6,30,1,1
394725,5464,-5986,-2773,-6,23,1,1
394730,5552,-5873,-2862,-5,17,0,1
394735,5677,-5776,-2981,-5,13,0,1
394740,5765,-5709,-3100,-5,9,0,1
394745,5854,-5659,-3214,-5,6,-1,1
394750,5933,-5630,-3303,-5,4,-1,1
394755,5969,-5625,-3361,-5,2,-1,1
394760,5993,-5644,-3410,-5,-1,-1,1
394765,6007,-5689,-3432,-5,-4,-1,1
394770,6013,-5756,-3440,-4,-8,0,1
394775,6011,-5832,-3432,-4,-12,0,1
394780,5997,-5921,-3427,-4,-16,0,1
394785,5970,-6021,-3406,-3,-19,0,1
394790,5941,-6126,-3407,-3,-21,0,1
394795,5910,-6236,-3387,-2,-21,1,1
394800,5896,-6316,-3382,-2,-21,1,1
394805,5848,-6386,-3319,-2,-20,1,1
394810,5838,-6429,-3259,-2,-20,2,1
394815,5827,-6449,-3205,-2,-20,2,1
394820,5799,-6449,-3159,-1,-20,2,1
394825,5791,-6427,-3151,-1,-20,2,1
394830,5786,-6396,-3125,-1,-19,3,1
394835,5789,-6372,-3099,-1,-18,3,1
394840,5782,-6317,-3051,-1,-15,3,1
394845,5789,-6262,-3017,-1,-11,3,1
394850,5784,-6218,-2965,-2,-7,4,1
394855,5769,-6172,-2928,-2,-3,4,1
394860,5766,-6134,-2893,-2,1,4,1
394865,5748,-6087,-2852,-2,5,4,1
394870,5726,-6041,-2813,-2,7,5,1
394875,5683,-6001,-2794,-2,9,5,1
394880,5638,-5951,-2801,-2,11,4,1
394885,5586,-5918,-2792,-2,13,5,1
394890,5569,-5871,-2821,-2,15,4,1
394895,5570,-5827,-2828,-2,18,4,1
394900,5573,-5780,-2814,-2,19,4,1
394905,5606,-5727,-2808,-2,19,4,1
394910,5653,-5680,-2779,-2,17,4,1
394915,5697,-5648,-2760,-3,15,4,1
394920,5748,-5635,-2737,-2,12,4,1
394925,5636,-5631,-2742,-2,8,3,1
394930,5506,-5608,-2740,-2,3,1,1
394935,5391,-5590,-2731,-2,2,1,1
394940,5278,-5595,-2663,-2,2,1,1
394945,5208,-5624,-2549,-1,0,1,1
394950,5225,-5662,-2483,-1,-1,0,1
394955,5241,-5694,-2422,-1,-4,0,1
394960,5254,-5716,-2423,0,-8,-1,1
394965,5267,-5732,-2451,0,-8,-1,1
394970,5289,-5748,-2502,0,-6,-2,1
394975,5332,-5753,-2545,1,-2,-2,1
394980,5383,-5746,-2536,1,2,-2,1
394985,5460,-5744,-2493,1,2,-3,1
394990,5562,-5744,-2421,2,0,-3,1
394995,5632,-5756,-2338,2,-4,-4,1
395000,5660,-5789,-2306,3,-9,-5,1
395005,5659,-5832,-2334,3,-12,-5,1
395010,5668,-5882,-2391,4,-12,-6,1
395015,5698,-5925,-2439,4,-10,-7,1
395020,5781,-5950,-2467,4,-7,-7,1
395025,5854,-5986,-2426,5,-4,-6,1
395030,5902,-6001,-2380,6,-4,-7,1
395035,5938,-6018,-2279,7,-5,-7,1
395040,5893,-6035,-2217,7,-6,-8,1
395045,5889,-6037,-2164,8,-8,-10,1
395050,5893,-6054,-2145,8,-8,-10,1
395055,5889,-6073,-2135,9,-8,-11,1
395060,5859,-6082,-2067,9,-8,-11,1
395065,5868,-6094,-2055,10,-7,-11,1
395070,5881,-6108,-2001,11,-5,-11,1
395075,5924,-6105,-1965,12,-6,-12,1
395080,5930,-6118,-1913,13,-7,-12,1
395085,5962,-6151,-1907,14,-9,-12,1
395090,5981,-6185,-1942,14,-10,-13,1
395095,5980,-6201,-1935,15,-11,-13,1
395100,5986,-6206,-1960,16,-10,-14,1
395105,5981,-6210,-1904,17,-10,-15,1
395110,5991,-6212,-1890,17,-11,-15,1
395115,5992,-6214,-1870,18,-13,-16,1
395120,5957,-6219,-1815,19,-16,-17,1
395125,5929,-6226,-1790,20,-19,-17,1
395130,5911,-6248,-1761,21,-21,-18,1
395135,5894,-6279,-1749,22,-24,-18,1
395140,5869,-6304,-1723,23,-27,-19,1
395145,5854,-6330,-1710,24,-29,-20,1
395150,5872,-6351,-1757,25,-31,-21,1
395155,5833,-6393,-1708,26,-33,-21,1
395160,5782,-6421,-1689,27,-36,-22,1
395165,5785,-6448,-1702,28,-36,-22,1
395170,5739,-6487,-1649,29,-39,-23,1
395175,5742,-6529,-1704,30,-41,-23,1
395180,5734,-6572,-1680,31,-41,-24,1
395185,5709,-6592,-1689,32,-43,-24,1
395190,5691,-6615,-1762,32,-44,-25,1
395195,5660,-6617,-1790,33,-45,-25,1
395200,5691,-6588,-1918,34,-45,-25,1
395205,5607,-6598,-1787,35,-45,-26,1
395210,5602,-6577,-1844,35,-48,-26,1
395215,5627,-6590,-1799,36,-47,-26,1
395220,5577,-6601,-1782,37,-52,-26,1
395225,5574,-6576,-1880,38,-55,-27,1
395230,5527,-6588,-1873,39,-57,-27,1
395235,5508,-6588,-2004,39,-59,-27,1
395240,5475,-6586,-1990,39,-58,-27,1
395245,5415,-6560,-2038,40,-59,-27,1
395250,5398,-6541,-2028,40,-59,-27,1
395255,5395,-6528,-2094,41,-59,-28,1
395260,5408,-6501,-2167,41,-61,-28,1
395265,5483,-6476,-2239,41,-61,-29,1
395270,5552,-6449,-2268,41,-60,-29,1
395275,5630,-6404,-2379,41,-60,-30,1
395280,5605,-6330,-2383,41,-61,-31,1
395285,5548,-6232,-2469,41,-61,-31,1
395290,5436,-6148,-2491,41,-60,-32,1
395295,5346,-6063,-2533,41,-59,-31,1
395300,5279,-6031,-2539,41,-57,-31,1
395305,5252,-6014,-2595,41,-55,-31,1
395310,5265,-6019,-2660,41,-54,-32,1
395315,5247,-6018,-2706,42,-54,-32,1
395320,5198,-5998,-2764,41,-55,-33,1
395325,5158,-5982,-2881,41,-56,-33,1
395330,5052,-5964,-2862,42,-57,-33,1
395335,4961,-5929,-2878,42,-59,-33,1
395340,4921,-5922,-2912,43,-59,-33,1
395345,4885,-5953,-2973,43,-62,-33,1
395350,4913,-5987,-3122,43,-67,-34,1
395355,4915,-6040,-3205,43,-71,-34,1
395360,4904,-6104,-3261,43,-76,-35,1
395365,4844,-6148,-3287,43,-80,-35,1
395370,4752,-6211,-3281,44,-84,-35,1
395375,4683,-6272,-3315,44,-90,-36,1
395380,4608,-6358,-3337,44,-95,-36,1
395385,4549,-6451,-3360,44,-102,-36,1
395390,4536,-6538,-3449,44,-109,-36,1
395395,4493,-6623,-3435,44,-115,-37,1
395400,4451,-6707,-3486,44,-123,-37,1
395405,4385,-6784,-3494,45,-131,-38,1
395410,4309,-6831,-3572,44,-137,-38,1
395415,4220,-6899,-3601,45,-142,-38,1
395420,4139,-6955,-3697,45,-146,-39,1
395425,4116,-6968,-3837,44,-148,-39,1
395430,3985,-7025,-3770,45,-147,-39,1
395435,3833,-7031,-3679,45,-150,-39,1
395440,3779,-7001,-3795,45,-148,-40,1
395445,3705,-7015,-3771,45,-145,-40,1
395450,3718,-6963,-3959,45,-145,-40,1
395455,3693,-6890,-4020,44,-143,-41,1
395460,3643,-6794,-4095,43,-140,-41,1
395465,3589,-6662,-4118,42,-135,-42,1
395470,3463,-6543,-4067,41,-127,-43,1
395475,3364,-6447,-4042,41,-121,-43,1
395480,3275,-6398,-4011,40,-115,-43,1
395485,3174,-6375,-3948,39,-112,-43,1
395490,3111,-6402,-3964,38,-109,-43,1
395495,3048,-6448,-3941,38,-106,-43,1
395500,2948,-6475,-3904,37,-103,-44,1
395505,2843,-6509,-3906,36,-100,-44,1
395510,2699,-6558,-3836,36,-97,-44,1
395515,2597,-6599,-3832,35,-94,-43,1
395520,2510,-6655,-3814,35,-90,-43,1
395525,2448,-6727,-3790,34,-86,-43,1
395530,2392,-6811,-3797,33,-83,-43,1
395535,2366,-7113,-3920,33,-80,-43,1
395540,2149,-7128,-3998,33,-83,-43,1
395545,2085,-7142,-4217,29,-82,-44,1
395550,1976,-7212,-4272,30,-73,-42,1
395555,1861,-7289,-4139,31,-64,-41,1
395560,1810,-7395,-4015,31,-53,-41,1
395565,1819,-7501,-4038,30,-49,-41,1
395570,1806,-7590,-4127,30,-51,-40,1
395575,1803,-7702,-4138,30,-56,-39,1
395580,1854,-7812,-4164,30,-55,-37,1
395585,1871,-7884,-4211,29,-52,-37,1
395590,1891,-7924,-4230,29,-51,-37,1
395595,1812,-7942,-4307,29,-52,-36,1
395600,1634,-7931,-4354,29,-54,-35,1
395605,1450,-7904,-4378,28,-53,-34,1
395610,1349,-7899,-4442,28,-48,-33,1
395615,1335,-7904,-4476,28,-43,-33,1
395620,1339,-7902,-4489,27,-41,-32,1
395625,1318,-7898,-4453,27,-43,-31,1
395630,1316,-7870,-4455,26,-47,-31,1
395635,1245,-7858,-4427,26,-51,-30,1
395640,1197,-7829,-4437,25,-55,-29,1
395644,1092,-7780,-4396,25,-56,-28,1
395650,1031,-7719,-4382,24,-57,-27,1
395655,1001,-7662,-4436,23,-56,-26,1
395660,972,-7586,-4466,23,-57,-25,1
395665,925,-7508,-4520,22,-57,-24,1
395669,880,-7429,-4597,20,-56,-23,1
395675,806,-7339,-4632,19,-55,-22,1
395680,759,-7254,-4665,18,-54,-21,1
395684,713,-7177,-4672,16,-52,-20,1
395690,681,-7110,-4653,15,-50,-19,1
395694,645,-7051,-4645,14,-49,-18,1
395700,601,-6993,-4639,13,-47,-16,1
395704,562,-6947,-4665,11,-46,-15,1
395710,533,-6909,-4687,10,-44,-14,1
395715,496,-6868,-4708,9,-40,-13,1
395720,476,-6833,-4723,7,-38,-11,1
395725,434,-6813,-4747,6,-36,-10,1
395729,437,-6805,-4769,4,-35,-8,1
395735,454,-6813,-4752,3,-31,-7,1
395739,527,-6830,-4736,2,-29,-6,1
395744,602,-6827,-4704,1,-27,-4,1
395750,655,-6820,-4666,0,-26,-3,1
395754,669,-6796,-4674,-1,-26,-2,1
395759,631,-6763,-4665,-2,-22,0,1
395765,614,-6747,-4719,-3,-18,1,1
395769,649,-6733,-4828,-4,-11,3,1
395774,702,-6712,-4854,-5,-4,5,1
395779,794,-6683,-4928,-7,2,6,1
395784,862,-6649,-4959,-8,7,8,1
395789,902,-6607,-4989,-9,11,9,1
395794,916,-6575,-5029,-10,15,11,1
395799,902,-6558,-5060,-12,20,12,1
395804,910,-6540,-5087,-13,24,14,1
395809,944,-6538,-5104,-14,29,16,1
395814,984,-6537,-5112,-15,31,17,1
395819,1010,-6530,-5096,-16,32,19,1
395824,1025,-6524,-5100,-18,34,20,1
395829,1029,-6514,-5125,-19,36,22,1
395834,1023,-6504,-5136,-20,37,23,1
395839,1026,-6493,-5171,-21,39,25,1
395844,1010,-6490,-5155,-22,41,26,1
395849,1053,-6479,-5185,-23,42,27,1
395854,1076,-6472,-5207,-24,44,29,1
395859,1123,-6464,-5221,-25,44,30,1
395864,1176,-6449,-5241,-26,45,31,1
395869,1199,-6437,-5237,-27,45,32,1
395874,1223,-6410,-5234,-28,45,33,1
395879,1259,-6396,-5215,-29,46,34,1
395884,1308,-6384,-5224,-29,47,35,1
395889,1352,-6367,-5197,-30,48,36,1
395894,1392,-6355,-5167,-31,50,37,1
395899,1440,-6342,-5176,-32,51,38,1
395904,1452,-6295,-5126,-33,53,39,1
395909,1629,-6321,-5241,-34,55,40,1
395914,1438,-6339,-4974,-34,56,42,1
395919,1642,-6280,-5128,-35,59,43,1
395924,1734,-6296,-5075,-36,66,43,1
395929,1833,-6285,-5066,-37,61,44,1
395934,1927,-6248,-5134,-39,65,44,1
395939,1924,-6207,-4988,-39,68,45,1
395944,1911,-6148,-4967,-40,70,46,1
395949,1892,-6149,-4834,-41,74,47,1
395954,1939,-6175,-4811,-42,76,48,1
395959,2039,-6212,-4764,-42,80,48,1
395964,2147,-6269,-4719,-43,82,49,1
395969,2218,-6324,-4668,-44,81,49,1
395974,2282,-6366,-4651,-45,81,50,1
395979,2269,-6405,-4566,-46,83,50,1
395984,2275,-6462,-4524,-46,84,51,1
395989,2313,-6535,-4501,-47,87,52,1
395994,2311,-6611,-4375,-47,89,52,1
395999,2442,-6646,-4407,-47,91,53,1
396004,2247,-6701,-4187,-48,92,53,1
396009,2692,-6658,-4466,-48,86,53,1
396014,2580,-6758,-4365,-48,93,54,1
396019,2467,-6804,-4179,-47,83,55,1
396024,2483,-6813,-4215,-48,90,55,1
396029,2359,-6865,-4044,-48,99,56,1
396034,2563,-6868,-4097,-48,101,57,1
396039,2659,-6896,-4106,-49,107,57,1
396044,2856,-6910,-4109,-49,103,57,1
396049,2950,-6891,-4206,-50,103,57,1
396054,3042,-6829,-4188,-50,100,57,1
396059,3075,-6751,-4227,-50,100,57,1
396064,3160,-6668,-4252,-51,102,57,1
396069,3176,-6606,-4225,-51,104,57,1
396074,3232,-6576,-4209,-51,104,58,1
396079,3336,-6547,-4252,-52,104,57,1
396084,3436,-6501,-4233,-52,104,57,1
396089,3502,-6480,-4229,-52,102,57,1
396094,3441,-6463,-4091,-52,99,57,1
396099,3456,-6456,-4055,-52,96,58,1
396104,3477,-6473,-4023,-52,97,58,1
396109,3559,-6482,-4037,-52,96,58,1
396114,3656,-6513,-4074,-52,95,58,1
396119,3741,-6541,-4089,-52,92,57,1
396124,3818,-6546,-4114,-52,90,57,1
396129,3901,-6547,-4111,-52,88,57,1
396134,3930,-6545,-4082,-52,86,57,1
396139,3957,-6530,-4037,-52,85,57,1
396144,3969,-6527,-4001,-52,85,57,1
396149,4018,-6540,-3993,-51,85,57,1
396154,4080,-6539,-3958,-51,84,56,1
396159,4084,-6556,-3929,-51,83,56,1
396164,4183,-6624,-3953,-51,82,56,1
396169,4343,-6601,-3928,-51,83,56,1
396174,4525,-6574,-3906,-51,82,55,1
396179,4410,-6577,-3729,-50,77,55,1
396184,4420,-6513,-3721,-49,67,55,1
396189,4270,-6514,-3676,-49,67,56,1
396194,4269,-6444,-3621,-48,65,56,1
396199,4343,-6426,-3666,-48,65,56,1
396204,4457,-6428,-3630,-47,60,55,1
396209,4637,-6438,-3720,-48,53,55,1
396214,4724,-6465,-3762,-47,48,54,1
396219,4754,-6515,-3806,-47,43,54,1
396224,4731,-6563,-3842,-46,42,54,1
396229,4664,-6592,-3833,-45,47,54,1
396234,4587,-6642,-3797,-45,55,55,1
396239,4586,-6684,-3820,-44,64,55,1
396244,4550,-6750,-3797,-43,70,55,1
396249,4600,-6827,-3863,-42,71,55,1
396254,4645,-6878,-3870,-42,71,55,1
396259,4752,-6961,-3878,-42,70,54,1
396264,4760,-6983,-3755,-41,71,54,1
396269,4881,-6948,-3953,-40,73,53,1
396274,4770,-6945,-3971,-39,73,52,1
396279,4661,-6899,-4101,-39,65,52,1
396284,4515,-6838,-4100,-38,65,52,1
396289,4484,-6746,-4034,-38,70,51,1
396294,4538,-6665,-3912,-38,79,51,1
396299,4597,-6599,-3758,-37,84,50,1
396304,4705,-6536,-3758,-36,80,49,1
396309,4697,-6515,-3683,-36,72,49,1
396314,4719,-6480,-3720,-36,63,48,1
396319,4707,-6471,-3667,-36,61,47,1
396324,4700,-6470,-3625,-35,63,47,1
396329,4718,-6457,-3598,-35,67,46,1
396334,4727,-6481,-3498,-34,69,46,1
396339,4725,-6511,-3492,-34,68,46,1
396344,4756,-6554,-3403,-33,68,45,1
396349,4746,-6598,-3391,-33,67,45,1
396354,4742,-6639,-3407,-32,66,44,1
396359,4643,-6652,-3390,-32,64,43,1
396364,4538,-6647,-3320,-31,59,42,1
396369,4469,-6620,-3279,-31,56,41,1
396374,4422,-6592,-3199,-30,53,40,1
396379,4426,-6602,-3128,-29,50,40,1
396384,4481,-6631,-3100,-28,46,39,1
396389,4563,-6642,-3111,-28,42,38,1
396394,4594,-6680,-3100,-27,36,37,1
396399,4620,-6731,-3033,-26,31,37,1
396404,4657,-6718,-3058,-26,26,36,1
396409,4746,-6703,-3082,-25,23,34,1
396414,4804,-6670,-3093,-25,20,34,1
396419,4869,-6620,-3082,-24,18,33,1
396424,4956,-6613,-3004,-23,20,33,1
396429,5020,-6627,-2977,-23,23,32,1
396434,4946,-6663,-2884,-22,25,31,1
396439,4906,-6687,-2806,-22,29,28,1
396444,4949,-6695,-2794,-22,37,27,1
396449,4934,-6738,-2679,-22,45,25,1
396454,4889,-6767,-2634,-21,49,25,1
396459,4814,-6780,-2581,-21,54,24,1
396464,4650,-6769,-2455,-20,59,24,1
396469,4517,-6749,-2286,-19,64,24,1
396474,4491,-6707,-2104,-18,69,24,1
396479,4603,-6702,-1947,-17,69,23,1
396484,4773,-6712,-1856,-16,62,22,1
396489,4974,-6705,-1879,-15,55,21,1
396494,5149,-6704,-1924,-15,48,19,1
396499,5247,-6678,-2024,-14,43,18,1
396504,5357,-6627,-2141,-14,40,16,1
396509,5413,-6581,-2175,-13,39,15,1
396514,5472,-6543,-2190,-12,37,13,1
396519,5485,-6508,-2135,-11,36,12,1
396524,5536,-6489,-2096,-10,33,11,1
396529,5568,-6475,-2032,-9,27,9,1
396534,5590,-6458,-2004,-8,19,8,1
396539,5587,-6453,-1969,-7,12,7,1
396544,5618,-6447,-1984,-6,5,5,1
396549,5644,-6444,-1979,-5,0,4,1
396554,5650,-6444,-1964,-4,-6,3,1
396559,5662,-6416,-1990,-3,-12,1,1
396564,5629,-6395,-1972,-2,-18,0,1
396569,5584,-6368,-1976,-1,-23,-1,1
396574,5546,-6346,-1996,-1,-26,-2,1
396579,5540,-6335,-2007,0,-28,-3,1
396584,5552,-6323,-2044,1,-28,-4,1
396589,5579,-6322,-2083,1,-27,-5,1
396594,5583,-6301,-2122,2,-26,-6,1
396599,5574,-6266,-2173,2,-25,-7,1
396604,5559,-6234,-2200,3,-23,-8,1
396609,5569,-6211,-2204,3,-22,-8,1
396614,5597,-6194,-2219,4,-23,-9,1
396619,5643,-6179,-2269,4,-21,-10,1
396624,5649,-6173,-2255,5,-21,-11,1
396629,5663,-6147,-2355,5,-23,-12,1
396634,5679,-6142,-2413,5,-26,-12,1
396639,5687,-6149,-2427,6,-32,-12,1
396644,5686,-6132,-2465,6,-29,-13,1
396649,5680,-6126,-2491,7,-24,-14,1
396654,5622,-6120,-2585,7,-21,-15,1
396659,5550,-6132,-2669,7,-20,-16,1
396664,5432,-6134,-2722,7,-20,-16,1
396669,5344,-6133,-2715,8,-16,-17,1
396674,5317,-6141,-2682,8,-8,-17,1
396679,5345,-6156,-2622,9,-2,-18,1
396684,5385,-6172,-2581,10,-1,-18,1
396689,5430,-6171,-2668,10,-4,-19,1
396694,5418,-6151,-2703,10,-6,-19,1
396699,5387,-6098,-2761,10,-6,-20,1
396704,5374,-6055,-2787,11,-2,-20,1
396709,5391,-6014,-2823,11,1,-21,1
396714,5414,-5976,-2820,12,3,-21,1
396719,5449,-5946,-2854,12,2,-21,1
396724,5476,-5939,-2905,12,1,-22,1
396729,5478,-5927,-2953,13,1,-22,1
396734,5479,-5918,-3032,13,2,-23,1
396739,5450,-5927,-3042,13,3,-23,1
396744,5436,-5932,-3098,13,4,-24,1
396749,5427,-5950,-3113,14,6,-24,1
396754,5415,-5959,-3140,14,5,-24,1
396759,5385,-5981,-3149,15,3,-25,1
396764,5343,-6006,-3128,15,0,-25,1
396769,5322,-6026,-3129,15,-4,-25,1
396774,5285,-6062,-3069,16,-8,-25,1
396779,5286,-6105,-3123,16,-13,-26,1
396784,5252,-6165,-3094,17,-18,-26,1
396789,5222,-6221,-3119,17,-24,-26,1
396794,5209,-6262,-3148,17,-27,-27,1
396799,5161,-6321,-3096,18,-30,-27,1
396804,5064,-6396,-2965,19,-33,-27,1
396809,5060,-6443,-3106,19,-36,-27,1
396814,5058,-6513,-3094,19,-39,-27,1
396819,5053,-6552,-3138,19,-43,-27,1
396824,5072,-6598,-3186,20,-44,-27,1
396829,5080,-6648,-3188,20,-44,-28,1
396833,5100,-6680,-3260,21,-46,-28,1
396838,5098,-6717,-3285,21,-47,-27,1
396844,5102,-6730,-3342,22,-48,-27,1
396849,5107,-6740,-3367,22,-48,-27,1
396854,5093,-6731,-3376,22,-48,-27,1
396859,5110,-6717,-3423,22,-47,-27,1
396864,5097,-6700,-3400,23,-46,-27,1
396869,5112,-6666,-3478,23,-46,-27,1
396874,5116,-6655,-3514,23,-45,-27,1
396879,5112,-6639,-3547,24,-45,-26,1
396884,5136,-6610,-3630,24,-44,-26,1
396889,5132,-6595,-3653,24,-41,-26,1
396894,5114,-6570,-3685,24,-40,-25,1
396898,5109,-6543,-3737,25,-36,-25,1
396904,5108,-6535,-3780,25,-33,-25,1
396908,5118,-6524,-3864,25,-30,-25,1
396913,5130,-6496,-3941,25,-27,-25,1
396919,5122,-6470,-3978,25,-24,-25,1
396924,5127,-6427,-4049,26,-22,-25,1
396928,5113,-6381,-4084,26,-20,-25,1
396933,5098,-6319,-4124,26,-19,-25,1
396938,5079,-6259,-4199,26,-17,-25,1
396943,5017,-6201,-4176,27,-17,-25,1
396948,4991,-6120,-4260,27,-18,-25,1
396954,4934,-6049,-4238,28,-17,-25,1
396958,4890,-5979,-4288,28,-19,-25,1
396964,4866,-5916,-4291,28,-20,-26,1
396969,4820,-5841,-4283,29,-23,-26,1
396973,4793,-5765,-4293,29,-26,-26,1
396978,4726,-5699,-4293,29,-29,-27,1
396983,4659,-5624,-4305,29,-33,-27,1
396988,4599,-5552,-4313,30,-36,-28,1
396993,4584,-5525,-4390,30,-38,-28,1
396998,4467,-5510,-4275,31,-41,-29,1
397003,4411,-5484,-4289,31,-44,-29,1
397008,4383,-5495,-4270,31,-45,-30,1
397013,4352,-5495,-4256,32,-49,-31,1
397019,4330,-5501,-4273,32,-53,-32,1
397023,4257,-5513,-4232,32,-55,-32,1
397028,4188,-5520,-4217,32,-55,-33,1
397033,4084,-5540,-4124,32,-54,-34,1
397038,4017,-5555,-4126,33,-55,-34,1
397043,3954,-5592,-4028,33,-56,-35,1
397048,3896,-5638,-3963,33,-57,-36,1
397053,3870,-5707,-3914,33,-59,-36,1
397058,3830,-5790,-3875,33,-61,-37,1
397063,3792,-5853,-3872,34,-63,-37,1
397068,3742,-5956,-3833,34,-63,-38,1
397073,3743,-6055,-3832,34,-65,-38,1
397078,3678,-6123,-3841,34,-66,-39,1
397083,3580,-6215,-3791,34,-68,-39,1
397088,3519,-6297,-3843,34,-70,-39,1
397093,3464,-6376,-3759,34,-70,-39,1
397098,3452,-6479,-3707,34,-70,-40,1
397103,3460,-6587,-3685,35,-73,-40,1
397108,3484,-6682,-3714,35,-77,-40,1
397113,3478,-6783,-3723,35,-82,-41,1
397118,3432,-6877,-3715,35,-88,-41,1
397123,3401,-6940,-3774,36,-91,-42,1
397128,3335,-7024,-3724,36,-91,-42,1
397133,3285,-7055,-3787,36,-91,-42,1
397138,3187,-7116,-3652,37,-91,-42,1
397143,3172,-7204,-3766,37,-93,-42,1
397148,3178,-7285,-3863,37,-94,-42,1
397153,3199,-7330,-3870,37,-94,-43,1
397158,3209,-7345,-3910,38,-95,-43,1
397163,3211,-7391,-3875,38,-96,-43,1
397168,3237,-7385,-3966,38,-99,-43,1
397173,3234,-7362,-3980,38,-100,-43,1
397178,3183,-7338,-3930,38,-100,-44,1
397183,3193,-7276,-4080,38,-97,-44,1
397188,3152,-7220,-4018,38,-92,-44,1
397193,3134,-7149,-4087,38,-89,-45,1
397198,3107,-7068,-4077,38,-84,-45,1
397203,3073,-6996,-4031,38,-80,-45,1
397208,3080,-6912,-4049,38,-78,-45,1
397213,3044,-6845,-3939,38,-76,-45,1
397218,3035,-6786,-3903,38,-75,-45,1
397223,3009,-6735,-3892,37,-74,-46,1
397228,2971,-6695,-3798,37,-73,-46,1
397233,2938,-6659,-3762,37,-72,-46,1
397238,2906,-6636,-3705,37,-71,-46,1
397243,2876,-6619,-3625,36,-69,-46,1
397248,2880,-6597,-3657,36,-68,-46,1
397253,2836,-6613,-3596,36,-66,-46,1
397258,2823,-6605,-3632,35,-64,-47,1
397263,2769,-6616,-3556,35,-62,-47,1
397268,2731,-6637,-3562,35,-61,-47,1
397273,2659,-6669,-3570,35,-58,-46,1
397278,2577,-6721,-3524,35,-53,-46,1
397283,2527,-6780,-3599,35,-48,-46,1
397288,2484,-6827,-3576,36,-45,-46,1
397293,2490,-6864,-3655,36,-44,-46,1
397298,2497,-6904,-3673,36,-44,-46,1
397303,2510,-6917,-3724,36,-46,-46,1
397308,2519,-6887,-3773,36,-48,-46,1
397313,2467,-6875,-3770,36,-49,-46,1
397318,2442,-6869,-3871,36,-49,-46,1
397323,2404,-6871,-3955,36,-46,-46,1
397328,2379,-6859,-4072,36,-44,-46,1
397333,2327,-6854,-4165,36,-42,-46,1
397338,2278,-6855,-4270,36,-40,-46,1
397343,2229,-6831,-4356,36,-39,-45,1
397348,2194,-6800,-4402,36,-37,-45,1
397353,2197,-6778,-4442,36,-36,-45,1
397358,2197,-6765,-4465,36,-33,-44,1
397363,2237,-6738,-4526,35,-31,-44,1
397368,2262,-6684,-4637,35,-30,-43,1
397373,2253,-6648,-4760,35,-29,-43,1
397378,2209,-6630,-4870,35,-31,-42,1
397383,2119,-6578,-5021,35,-33,-42,1
397388,2148,-6552,-4893,34,-32,-41,1
397393,2235,-6527,-4672,30,-23,-39,1
397398,2361,-6468,-4597,29,-16,-38,1
397403,2496,-6463,-4405,29,-17,-37,1
397408,2519,-6466,-4295,29,-25,-36,1
397413,2489,-6446,-4342,28,-35,-36,1
397418,2356,-6454,-4383,27,-40,-34,1
397423,2227,-6439,-4504,26,-41,-33,1
397428,2101,-6439,-4637,25,-35,-32,1
397433,2016,-6428,-4694,24,-29,-31,1
397438,2028,-6402,-4808,22,-24,-31,1
397443,2075,-6385,-4888,21,-22,-29,1
397448,2096,-6363,-4950,20,-25,-28,1
397453,2120,-6337,-5062,19,-27,-27,1
397458,2110,-6301,-5158,17,-28,-26,1
397463,2066,-6263,-5247,16,-28,-25,1
397468,2008,-6236,-5297,14,-27,-24,1
397473,1956,-6224,-5365,13,-24,-22,1
397478,1921,-6207,-5418,11,-21,-21,1
397483,1899,-6207,-5455,10,-18,-20,1
397488,1869,-6213,-5498,8,-15,-18,1
397493,1821,-6213,-5537,6,-10,-17,1
397498,1770,-6217,-5559,5,-5,-16,1
397503,1712,-6226,-5569,3,0,-14,1
397508,1679,-6235,-5565,2,5,-13,1
397513,1683,-6236,-5533,0,9,-11,1
397518,1710,-6243,-5484,-1,12,-10,1
397523,1744,-6241,-5434,-2,13,-9,1
397528,1808,-6240,-5383,-3,13,-8,1
397533,1834,-6234,-5351,-5,13,-7,1
397538,1863,-6224,-5363,-6,13,-6,1
397543,1898,-6219,-5384,-7,14,-5,1
397548,1926,-6221,-5426,-8,15,-3,1
397553,1972,-6231,-5470,-10,17,-2,1
397558,2019,-6242,-5503,-11,18,-1,1
397563,2066,-6265,-5530,-13,19,0,1
397568,2137,-6292,-5536,-14,19,2,1
397573,2188,-6337,-5535,-16,20,3,1
397578,2202,-6392,-5544,-17,19,4,1
397583,2207,-6454,-5557,-19,20,6,1
397588,2192,-6533,-5566,-20,21,7,1
397593,2162,-6613,-5560,-21,23,9,1
397598,2200,-6689,-5554,-23,25,10,1
397603,2229,-6769,-5535,-24,27,12,1
397608,2265,-6843,-5537,-25,27,14,1
397613,2288,-6905,-5522,-27,29,15,1
397618,2298,-6956,-5527,-28,30,17,1
397623,2192,-7033,-5516,-29,33,18,1
397628,2205,-7071,-5521,-30,35,20,1
397633,2284,-7103,-5538,-32,41,21,1
397638,2288,-7132,-5450,-33,42,23,1
397643,2329,-7143,-5434,-34,42,24,1
397648,2336,-7151,-5401,-35,44,25,1
397653,2354,-7127,-5400,-36,45,27,1
397658,2357,-7108,-5372,-38,48,28,1
397663,2325,-7082,-5306,-39,50,30,1
397668,2369,-7048,-5284,-40,54,31,1
397673,2418,-7002,-5207,-41,57,32,1
397678,2504,-6955,-5158,-43,57,33,1
397683,2541,-6926,-5073,-44,57,34,1
397688,2569,-6917,-5003,-45,58,35,1
397693,2555,-6913,-4957,-46,59,36,1
397698,2532,-6897,-4905,-47,60,37,1
397703,2488,-6869,-4847,-48,61,38,1
397708,2535,-6833,-4802,-49,63,39,1
397713,2565,-6822,-4708,-51,65,40,1
397718,2623,-6837,-4601,-51,65,41,1
397723,2690,-6863,-4545,-52,65,42,1
397728,2643,-6878,-4454,-53,63,42,1
397733,2773,-6900,-4512,-55,62,43,1
397738,2611,-6973,-4360,-55,65,44,1
397743,2568,-7011,-4201,-56,63,45,1
397748,2523,-7072,-4117,-57,68,47,1
397753,2555,-7154,-3959,-57,70,48,1
397758,2594,-7240,-3896,-58,72,49,1
397763,2618,-7333,-3794,-58,73,50,1
397768,2650,-7398,-3745,-59,74,51,1
397773,2682,-7453,-3693,-59,76,51,1
397778,2719,-7530,-3637,-60,78,52,1
397783,2774,-7585,-3609,-60,79,53,1
397788,2881,-7651,-3604,-61,81,54,1
397793,2930,-7708,-3569,-61,81,55,1
397798,2988,-7755,-3543,-62,81,56,1
397803,3086,-7867,-3536,-62,82,56,1
397808,3174,-7866,-3481,-62,80,57,1
397813,3247,-7881,-3488,-63,81,57,1
397818,3119,-7919,-3404,-63,78,58,1
397823,3126,-7954,-3442,-63,75,59,1
397828,3100,-8022,-3450,-63,79,60,1
397833,3252,-8057,-3459,-63,79,61,1
397838,3287,-8088,-3453,-63,80,62,1
397843,3369,-8100,-3390,-63,75,62,1
397848,3407,-8102,-3407,-64,73,62,1
397853,3397,-8068,-3341,-63,70,63,1
397858,3406,-8037,-3354,-64,69,64,1
397863,3338,-8015,-3313,-64,69,65,1
397868,3342,-7969,-3266,-64,69,65,1
397873,3340,-7996,-3233,-64,73,66,1
397878,3264,-7893,-3019,-63,74,67,1
397883,3630,-7731,-3111,-64,74,65,1
397888,3565,-7595,-3110,-64,76,66,1
397893,3437,-7599,-3040,-64,62,67,1
397898,3044,-7530,-2907,-64,64,69,1
397903,2963,-7490,-2875,-64,73,70,1
397908,3070,-7473,-2912,-65,87,70,1
397913,3229,-7470,-2870,-65,92,71,1
397918,3406,-7451,-2845,-66,90,70,1
397923,3448,-7416,-2823,-66,87,70,1
397928,3418,-7366,-2783,-67,83,70,1
397933,3343,-7326,-2787,-67,85,70,1
397938,3216,-7314,-2731,-67,89,71,1
397943,3124,-7325,-2676,-67,91,72,1
397948,3097,-7426,-2648,-68,95,72,1
397953,3070,-7447,-2580,-68,97,73,1
397958,3254,-7466,-2672,-68,97,72,1
397963,3259,-7497,-2641,-68,97,72,1
397968,3137,-7542,-2546,-68,91,72,1
397973,2998,-7574,-2501,-68,89,73,1
397978,2910,-7625,-2492,-68,94,73,1
397983,2893,-7695,-2501,-68,97,73,1
397988,2892,-7795,-2484,-68,98,73,1
397993,2899,-7877,-2466,-67,95,74,1
397998,2936,-7943,-2482,-67,93,73,1
398003,3021,-8000,-2531,-67,90,73,1
398008,3081,-8008,-2595,-67,85,73,1
398013,3056,-8013,-2597,-67,81,73,1
398018,3078,-8015,-2627,-66,75,73,1
398023,3049,-7992,-2629,-66,72,73,1
398028,3042,-7958,-2605,-65,69,73,1
398033,3094,-7924,-2633,-65,67,73,1
398038,3119,-8052,-2663,-64,65,73,1
398043,3027,-7988,-2488,-63,63,74,1
398048,3299,-7890,-2568,-63,61,73,1
398053,3401,-7864,-2609,-62,64,73,1
398058,3275,-7837,-2502,-61,55,73,1
398063,3245,-7763,-2505,-61,49,73,1
398068,3226,-7696,-2503,-60,56,73,1
398073,3279,-7649,-2473,-59,59,73,1
398078,3276,-7636,-2477,-59,60,73,1
398083,3300,-7620,-2547,-59,58,73,1
398088,3391,-7592,-2631,-59,58,72,1
398093,3395,-7569,-2631,-58,59,72,1
398098,3439,-7528,-2633,-58,58,72,1
398103,3467,-7475,-2610,-57,62,71,1
398108,3466,-7446,-2543,-56,63,71,1
398113,3493,-7423,-2474,-56,62,71,1
398118,3606,-7393,-2361,-56,64,71,1
398123,3816,-7351,-2166,-56,67,72,1
398128,4101,-7314,-1949,-57,68,72,1
398133,4196,-7213,-1968,-56,65,72,1
398137,3984,-7157,-2512,-52,47,68,1
398143,3823,-7162,-2883,-49,22,66,1
398148,3387,-7168,-3119,-49,17,67,1
398152,3231,-7116,-3442,-50,24,68,1
398158,3322,-7106,-3493,-49,46,67,1
398162,3527,-7076,-3376,-48,62,66,1
398168,3787,-7041,-3301,-47,64,65,1
398173,3902,-7034,-3180,-45,56,64,1
398178,3960,-7029,-3246,-44,43,63,1
398182,3897,-7058,-3318,-43,36,62,1
398187,3848,-7097,-3384,-43,35,62,1
398192,3916,-7121,-3463,-42,39,61,1
398197,3960,-7161,-3384,-41,43,60,1
398202,4075,-7171,-3360,-40,41,59,1
398207,4134,-7188,-3259,-39,36,58,1
398212,4158,-7202,-3222,-37,28,57,1
398217,4187,-7204,-3204,-36,20,56,1
398222,4218,-7211,-3214,-35,14,55,1
398227,4228,-7166,-3200,-34,10,55,1
398232,4312,-7140,-3223,-33,6,54,1
398237,4350,-7128,-3157,-32,5,53,1
398242,4414,-7079,-3247,-31,3,52,1
398247,4439,-7048,-3222,-29,2,51,1
398252,4442,-7009,-3219,-29,0,50,1
398257,4460,-6979,-3249,-28,2,49,1
398262,4489,-6946,-3221,-27,4,48,1
398267,4584,-6899,-3276,-26,6,47,1
398272,4647,-6864,-3250,-25,7,47,1
398277,4708,-6824,-3241,-24,8,46,1
398282,4783,-6812,-3284,-23,9,45,1
398287,4790,-6810,-3328,-22,13,44,1
398292,4820,-6785,-3468,-22,20,43,1
398297,4866,-6785,-3494,-21,29,42,1
398302,4954,-6790,-3521,-21,32,41,1
398307,5086,-6793,-3454,-21,29,40,1
398312,5209,-6790,-3324,-20,25,38,1
398317,5319,-6790,-3256,-19,21,37,1
398322,5365,-6794,-3225,-18,17,36,1
398327,5319,-6787,-3268,-17,15,35,1
398332,5211,-6780,-3324,-17,16,34,1
398337,5126,-6762,-3368,-16,21,34,1
398342,5108,-6741,-3398,-15,30,33,1
398347,5190,-6731,-3380,-14,35,32,1
398352,5314,-6717,-3322,-14,37,31,1
398357,5422,-6696,-3273,-13,35,29,1
398362,5466,-6655,-3231,-12,30,28,1
398367,5461,-6598,-3211,-12,24,26,1
398372,5443,-6546,-3221,-11,21,25,1
398377,5417,-6491,-3200,-11,19,24,1
398382,5466,-6450,-3233,-10,17,23,1
398387,5523,-6423,-3225,-9,15,21,1
398392,5582,-6404,-3231,-9,12,20,1
398397,5622,-6387,-3242,-8,11,18,1
398402,5625,-6365,-3249,-8,9,17,1
398407,5602,-6345,-3250,-7,8,15,1
398412,5599,-6338,-3292,-7,8,14,1
398417,5600,-6335,-3299,-6,9,13,1
398422,5634,-6344,-3308,-5,10,12,1
398427,5672,-6357,-3324,-5,10,10,1
398432,5683,-6369,-3331,-4,10,9,1
398437,5715,-6385,-3345,-4,9,7,1
398442,5718,-6420,-3374,-3,8,6,1
398447,5660,-6462,-3421,-2,6,5,1
398452,5573,-6508,-3475,-2,5,4,1
398457,5490,-6569,-3510,-1,6,3,1
398462,5449,-6640,-3557,-1,8,3,1
398467,5446,-6712,-3561,0,9,2,1
398472,5471,-6788,-3539,1,8,1,1
398477,5481,-6858,-3514,2,7,0,1
398482,5479,-6918,-3524,2,4,-1,1
398487,5454,-6966,-3520,3,2,-2,1
398492,5415,-7003,-3537,4,1,-3,1
398497,5391,-7042,-3526,5,0,-4,1
398502,5391,-7080,-3509,5,-1,-5,1
398507,5397,-7103,-3531,6,-1,-6,1
398512,5401,-7114,-3561,7,-3,-7,1
398517,5387,-7083,-3517,8,-4,-8,1
398522,5345,-7030,-3526,8,-4,-9,1
398527,5309,-6966,-3503,9,-3,-9,1
398532,5280,-6863,-3526,9,-2,-10,1
398537,5269,-6754,-3517,10,1,-11,1
398542,5245,-6643,-3513,10,3,-12,1
398547,5231,-6525,-3580,11,5,-13,1
398552,5205,-6402,-3603,11,8,-14,1
398557,5181,-6278,-3674,11,11,-14,1
398562,5161,-6163,-3708,11,15,-15,1
398567,5134,-6063,-3693,11,17,-16,1
398572,5114,-5978,-3732,12,19,-17,1
398577,5093,-5916,-3745,12,20,-18,1
398582,5054,-5867,-3782,12,20,-19,1
398587,5017,-5844,-3795,13,20,-19,1
398592,4981,-5841,-3829,13,20,-20,1
398597,4954,-5844,-3841,14,19,-21,1
398602,4929,-5869,-3866,14,17,-22,1
398607,4913,-5911,-3918,15,14,-23,1
398612,4882,-5958,-3939,15,10,-23,1
398617,4864,-6006,-4015,16,7,-24,1
398622,4838,-6059,-4041,17,4,-25,1
398627,4805,-6114,-4076,18,1,-25,1
398632,4793,-6168,-4126,18,-2,-26,1
398637,4779,-6206,-4152,19,-5,-26,1
398642,4766,-6240,-4172,20,-9,-27,1
398647,4764,-6270,-4228,21,-13,-28,1
398652,4748,-6272,-4278,22,-16,-28,1
398657,4713,-6284,-4303,22,-19,-29,1
398662,4670,-6278,-4338,23,-21,-30,1
398667,4627,-6207,-4229,23,-22,-30,1
398672,4605,-6140,-4370,23,-23,-31,1
398677,4547,-6113,-4261,24,-23,-31,1
398682,4490,-6040,-4303,25,-23,-32,1
398687,4467,-5988,-4250,25,-20,-32,1
398692,4413,-5946,-4231,26,-21,-33,1
398697,4360,-5901,-4240,26,-22,-33,1
398702,4276,-5864,-4195,26,-22,-34,1
398707,4220,-5815,-4206,26,-21,-34,1
398712,4171,-5768,-4213,26,-19,-35,1
398717,4108,-5715,-4184,26,-19,-35,1
398722,4037,-5663,-4159,26,-19,-36,1
398727,3965,-5630,-4133,26,-18,-36,1
398732,3903,-5605,-4105,27,-18,-36,1
398737,3862,-5582,-4113,27,-18,-37,1
398742,3808,-5571,-4095,27,-19,-37,1
398747,3748,-5582,-4055,27,-21,-38,1
398752,3699,-5597,-4064,27,-22,-38,1
398757,3631,-5619,-4049,27,-24,-38,1
398762,3571,-5652,-4044,27,-26,-39,1
398767,3514,-5708,-4049,27,-27,-39,1
398772,3480,-5754,-4102,27,-30,-39,1
398777,3439,-5805,-4125,27,-31,-39,1
398782,3408,-5897,-4158,28,-34,-39,1
398787,3371,-5987,-4203,28,-36,-40,1
398792,3327,-6063,-4235,28,-37,-40,1
398797,3291,-6134,-4249,28,-38,-40,1
398802,3248,-6228,-4230,28,-38,-40,1
398807,3175,-6332,-4083,28,-40,-40,1
398812,3120,-6420,-4004,27,-41,-40,1
398817,3086,-6515,-3980,27,-40,-40,1
398822,3038,-6623,-3915,28,-42,-40,1
398827,2983,-6739,-3852,28,-44,-40,1
398832,2943,-6839,-3840,28,-47,-40,1
398837,2914,-6929,-3841,29,-48,-39,1
398842,2887,-6991,-3852,29,-49,-39,1
398847,2869,-7038,-3906,29,-49,-39,1
398852,2852,-7055,-3955,30,-48,-39,1
398857,2824,-7043,-3965,30,-47,-39,1
398862,2819,-7025,-4030,29,-46,-39,1
398867,2806,-7006,-4044,30,-46,-38,1
398872,2802,-6973,-4079,29,-44,-38,1
398877,2796,-6926,-4084,29,-43,-38,1
398882,2806,-6880,-4095,29,-41,-38,1
398887,2815,-6827,-4109,29,-40,-37,1
398892,2807,-6767,-4067,29,-40,-37,1
398897,2821,-6700,-4093,28,-39,-37,1
398902,2829,-6632,-4095,28,-37,-37,1
398907,2818,-6574,-4073,28,-36,-36,1
398912,2819,-6505,-4117,28,-35,-36,1
398917,2827,-6440,-4142,28,-33,-36,1
398922,2834,-6392,-4172,27,-32,-36,1
398927,2839,-6347,-4181,27,-31,-35,1
398932,2849,-6298,-4209,27,-29,-35,1
398937,2844,-6250,-4177,26,-29,-35,1
398942,2852,-6220,-4220,26,-28,-35,1
398947,2867,-6213,-4232,26,-27,-35,1
398952,2871,-6215,-4206,26,-27,-35,1
398957,2872,-6194,-4196,25,-27,-35,1
398962,2870,-6196,-4162,25,-26,-35,1
398967,2878,-6200,-4140,25,-26,-35,1
398972,2872,-6210,-4077,25,-26,-35,1
398977,2875,-6228,-4033,25,-26,-35,1
398982,2893,-6241,-4003,25,-27,-35,1
398987,2904,-6260,-3982,24,-27,-34,1
398992,2906,-6270,-3964,24,-28,-34,1
398997,2915,-6276,-3954,24,-28,-34,1
399002,2933,-6273,-3979,24,-27,-34,1
399007,2956,-6288,-3993,24,-27,-34,1
399012,2982,-6290,-4004,24,-26,-34,1
399017,3010,-6291,-4070,24,-26,-33,1
399022,3032,-6304,-4105,24,-26,-33,1
399027,3051,-6308,-4165,24,-26,-33,1
399032,3092,-6306,-4221,24,-25,-33,1
399037,3146,-6310,-4238,25,-22,-33,1
399042,3221,-6316,-4300,25,-21,-33,1
399047,3290,-6334,-4307,25,-20,-34,1
399052,3352,-6350,-4313,25,-20,-34,1
399057,3403,-6357,-4310,25,-20,-34,1
399062,3419,-6367,-4297,25,-20,-35,1
399067,3421,-6362,-4288,25,-19,-35,1
399072,3402,-6368,-4236,25,-17,-35,1
399077,3388,-6376,-4191,26,-15,-35,1
399082,3395,-6384,-4153,26,-13,-35,1
399087,3405,-6388,-4105,27,-11,-35,1
399092,3422,-6391,-4083,27,-10,-35,1
399097,3428,-6383,-4047,27,-11,-35,1
399102,3426,-6386,-4023,28,-11,-35,1
399107,3432,-6368,-4035,28,-11,-35,1
399112,3442,-6347,-4060,29,-11,-35,1
399117,3480,-6328,-4127,29,-11,-35,1
399122,3515,-6301,-4141,30,-12,-36,1
399127,3547,-6266,-4161,30,-14,-36,1
399132,3598,-6218,-4198,31,-16,-36,1
399137,3609,-6199,-4156,31,-19,-37,1
399142,3614,-6175,-4155,32,-24,-37,1
399147,3616,-6159,-4169,32,-28,-37,1
399152,3613,-6156,-4162,32,-32,-38,1
399157,3620,-6158,-4181,33,-35,-38,1
399162,3625,-6166,-4166,33,-36,-38,1
399167,3622,-6177,-4149,34,-38,-38,1
399172,3649,-6186,-4180,34,-40,-39,1
399177,3648,-6208,-4185,34,-41,-39,1
399182,3646,-6224,-4215,35,-43,-39,1
399187,3640,-6230,-4246,35,-44,-39,1
399192,3623,-6240,-4252,35,-43,-39,1
399197,3627,-6244,-4264,36,-43,-40,1
399202,3622,-6240,-4259,36,-44,-40,1
399207,3616,-6227,-4267,36,-45,-40,1
399212,3588,-6208,-4240,36,-46,-40,1
399217,3562,-6218,-4219,37,-48,-40,1
399222,3506,-6211,-4152,37,-50,-40,1
399227,3534,-6203,-4207,37,-52,-40,1
399232,3543,-6202,-4210,37,-53,-41,1
399237,3545,-6202,-4243,37,-55,-41,1
399242,3535,-6187,-4276,37,-56,-41,1
399247,3513,-6163,-4246,37,-55,-41,1
399252,3513,-6150,-4240,36,-55,-41,1
399257,3494,-6151,-4197,36,-57,-41,1
399262,3494,-6156,-4168,36,-60,-41,1
399267,3510,-6195,-4142,36,-62,-42,1
399272,3532,-6263,-4094,36,-63,-42,1
399277,3540,-6326,-4067,36,-64,-42,1
399282,3530,-6391,-4039,35,-63,-41,1
399287,3513,-6448,-4005,35,-62,-41,1
399292,3488,-6497,-3984,35,-61,-41,1
399297,3473,-6552,-3978,34,-60,-40,1
399302,3456,-6621,-3972,34,-60,-40,1
399307,3442,-6687,-3970,34,-58,-40,1
399312,3435,-6750,-4014,34,-57,-39,1
399317,3439,-6810,-4102,34,-56,-39,1
399322,3435,-6864,-4180,34,-54,-38,1
399327,3436,-6898,-4222,33,-50,-38,1
399332,3440,-6906,-4231,33,-46,-37,1
399337,3474,-6904,-4229,33,-42,-37,1
399342,3554,-6891,-4107,32,-38,-36,1
399346,3621,-6867,-4062,31,-35,-35,1
399351,3675,-6846,-4009,31,-34,-34,1
399357,3713,-6824,-4009,30,-35,-34,1
399361,3725,-6787,-4074,30,-37,-33,1
399367,3723,-6735,-4157,29,-36,-32,1
399372,3703,-6654,-4225,28,-34,-31,1
399376,3725,-6578,-4298,28,-30,-30,1
399382,3769,-6493,-4386,27,-25,-29,1
399386,3797,-6408,-4471,26,-21,-29,1
399392,3818,-6334,-4528,25,-18,-28,1
399396,3808,-6274,-4639,24,-16,-27,1
399401,3772,-6228,-4730,22,-15,-26,1
399406,3680,-6177,-4821,21,-12,-26,1
399411,3533,-6117,-4907,20,-8,-25,1
399417,3551,-6037,-4960,18,-5,-24,1
399421,3599,-5980,-4989,16,2,-21,1
399426,3701,-5930,-4917,15,5,-20,1
399431,3880,-5869,-4856,14,4,-19,1
399436,3926,-5836,-4810,12,-1,-18,1
399442,3933,-5800,-4831,10,-10,-18,1
399446,3786,-5787,-4868,8,-15,-16,1
399451,3667,-5795,-4904,6,-14,-14,1
399456,3588,-5835,-4936,4,-8,-13,1
399461,3587,-5928,-4902,2,-2,-11,1
399466,3636,-6063,-4846,1,2,-10,1
399471,3739,-6187,-4820,-1,0,-8,1
399476,3767,-6305,-4808,-2,-4,-7,1
399481,3691,-6424,-4842,-4,-7,-5,1
399486,3602,-6543,-4924,-6,-5,-3,1
399491,3518,-6673,-5006,-8,3,-1,1
399496,3480,-6794,-5063,-10,10,1,1
399501,3485,-6898,-5083,-11,16,3,1
399506,3521,-6992,-5069,-13,20,5,1
399511,3584,-7065,-5077,-15,22,7,1
399516,3603,-7112,-5090,-17,22,9,1
399521,3622,-7135,-5137,-19,22,11,1
399526,3567,-7133,-5171,-21,24,13,1
399531,3540,-7101,-5189,-23,26,15,1
399536,3515,-7060,-5185,-25,30,17,1
399541,3503,-7009,-5154,-26,32,19,1
399546,3550,-6957,-5158,-28,34,20,1
399551,3570,-6908,-5131,-30,35,22,1
399556,3571,-6857,-5112,-32,35,24,1
399561,3580,-6793,-5098,-35,35,25,1
399566,3524,-6741,-5061,-37,37,27,1
399571,3478,-6699,-5021,-39,40,28,1
399576,3442,-6665,-4980,-41,43,30,1
399581,3440,-6650,-4944,-43,47,32,1
399586,3410,-6645,-4875,-45,50,33,1
399591,3340,-6641,-4789,-47,54,34,1
399596,3329,-6696,-4747,-49,57,36,1
399601,3308,-6713,-4706,-50,61,37,1
399606,3314,-6744,-4660,-52,65,38,1
399611,3201,-6791,-4567,-54,67,40,1
399616,3097,-6817,-4473,-56,69,41,1
399621,3034,-6861,-4427,-58,73,42,1
399626,2958,-6922,-4361,-59,78,43,1
399631,2873,-6980,-4281,-61,80,45,1
399636,2833,-7024,-4209,-62,83,46,1
399641,2826,-7062,-4150,-64,85,47,1
399646,2797,-7126,-4077,-65,86,48,1
399651,2691,-7163,-3988,-67,84,49,1
399656,2713,-7192,-3966,-68,86,50,1
399661,2676,-7233,-3913,-69,88,50,1
399666,2660,-7248,-3849,-70,87,51,1
399671,2635,-7272,-3797,-71,88,52,1
399676,2615,-7285,-3714,-72,87,53,1
399681,2651,-7296,-3678,-73,87,53,1
399686,2716,-7317,-3643,-74,87,54,1
399691,2714,-7307,-3600,-75,86,54,1
399696,2747,-7297,-3575,-76,85,55,1
399701,2707,-7335,-3526,-76,86,55,1
399706,2630,-7345,-3434,-77,85,56,1
399711,2675,-7334,-3414,-77,88,57,1
399716,2791,-7338,-3405,-78,92,57,1
399721,2864,-7338,-3378,-79,90,57,1
399726,2938,-7320,-3365,-79,87,57,1
399731,2944,-7294,-3325,-79,86,57,1
399736,2951,-7274,-3291,-80,85,58,1
399741,2980,-7252,-3268,-80,84,58,1
399746,2981,-7229,-3234,-80,84,58,1
399751,3010,-7235,-3210,-80,83,58,1
399756,3017,-7225,-3177,-80,82,59,1
399761,3040,-7210,-3147,-80,80,59,1
399766,3100,-7191,-3139,-80,79,59,1
399771,3152,-7158,-3113,-80,77,59,1
399776,3200,-7124,-3088,-79,73,59,1
399781,3232,-7087,-3055,-79,69,59,1
399786,3283,-7047,-3023,-79,66,59,1
399791,3314,-7018,-3008,-78,63,59,1
399796,3343,-7006,-2985,-78,60,60,1
399801,3391,-6958,-2918,-77,56,60,1
399806,3421,-6934,-2876,-77,54,59,1
399811,3454,-6955,-2845,-76,49,60,1
399816,3537,-6994,-2831,-76,46,60,1
399821,3679,-6936,-2796,-75,43,60,1
399826,3805,-6921,-2943,-75,43,60,1
399831,3755,-6932,-2968,-72,37,61,1
399836,3793,-6961,-2940,-71,30,61,1
399841,3769,-6951,-3054,-72,33,61,1
399846,3835,-6948,-3186,-71,33,61,1
399851,3930,-6951,-3306,-70,34,62,1
399856,4037,-6962,-3348,-69,35,62,1
399861,4150,-6965,-3362,-69,36,62,1
399866,4222,-6949,-3346,-68,35,61,1
399871,4267,-6942,-3309,-67,32,61,1
399876,4239,-6941,-3284,-66,29,62,1
399881,4222,-6936,-3259,-65,27,62,1
399886,4200,-6965,-3245,-65,29,62,1
399891,4202,-6991,-3239,-64,30,62,1
399896,4203,-7015,-3210,-63,31,62,1
399901,4221,-7036,-3194,-62,31,62,1
399906,4249,-7063,-3184,-61,30,63,1
399911,4282,-7075,-3179,-60,29,63,1
399916,4262,-7087,-3137,-59,28,63,1
399921,4309,-7114,-3114,-58,29,63,1
399926,4377,-7120,-3032,-58,31,64,1
399931,4471,-7133,-2886,-57,31,64,1
399936,4639,-7143,-2711,-57,31,65,1
399941,4852,-7149,-2541,-57,31,65,1
399946,4729,-7133,-2841,-55,27,64,1
399951,4572,-7158,-3175,-51,9,62,1
399956,4290,-7185,-3351,-50,1,63,1
399961,4065,-7177,-3600,-50,6,64,1
399966,4113,-7165,-3648,-49,21,64,1
399971,4258,-7151,-3552,-48,36,64,1
399976,4527,-7135,-3458,-47,39,63,1
399981,4670,-7147,-3334,-45,32,62,1
399986,4726,-7143,-3313,-44,18,62,1
399991,4629,-7131,-3261,-43,9,61,1
399996,4819,-7133,-3522,-42,5,61,1
400001,4821,-7140,-3348,-41,7,61,1
400006,4680,-7102,-3260,-40,3,60,1
400011,4669,-7062,-3260,-39,0,59,1
400016,4613,-7044,-3173,-38,-1,59,1
400021,4590,-7013,-3156,-37,-5,59,1
400026,4544,-6995,-3131,-36,-5,58,1
400031,4532,-6986,-3066,-35,-5,58,1
400036,4565,-6987,-3028,-34,-2,57,1
400041,4573,-6996,-2966,-33,0,57,1
400046,4603,-6979,-2941,-31,3,57,1
400051,4646,-6962,-2957,-31,6,56,1
400056,4641,-6937,-2949,-30,9,55,1
400061,4662,-6903,-3022,-29,12,54,1
400066,4670,-6871,-3040,-29,16,54,1
400071,4682,-6842,-3047,-28,20,53,1
400076,4711,-6836,-3087,-27,23,52,1
400081,4734,-6837,-3099,-27,25,51,1
400086,4745,-6864,-3129,-26,26,50,1
400091,4754,-6916,-3188,-25,26,49,1
400096,4735,-6961,-3247,-24,26,49,1
400101,4727,-7022,-3290,-24,24,48,1
400106,4705,-7089,-3301,-23,23,47,1
400111,4695,-7161,-3336,-22,20,46,1
400116,4700,-7242,-3346,-20,16,45,1
400121,4712,-7330,-3360,-19,10,44,1
400126,4722,-7424,-3375,-18,3,43,1
400131,4749,-7514,-3421,-16,-4,42,1
400136,4763,-7589,-3450,-15,-11,41,1
400141,4764,-7645,-3456,-14,-16,40,1
400146,4765,-7691,-3476,-13,-20,39,1
400151,4792,-7712,-3506,-11,-22,38,1
400156,4809,-7699,-3509,-10,-23,37,1
400161,4830,-7685,-3506,-9,-23,37,1
400166,4858,-7646,-3495,-8,-21,36,1
400171,4889,-7576,-3500,-7,-18,35,1
400176,4906,-7502,-3496,-7,-14,34,1
400181,4929,-7414,-3483,-6,-9,33,1
400186,4951,-7307,-3483,-5,-3,32,1
400191,4965,-7181,-3441,-5,2,31,1
400196,5004,-7045,-3413,-5,7,30,1
400201,5065,-6908,-3428,-4,11,29,1
400206,5103,-6771,-3402,-4,16,28,1
400211,5147,-6636,-3415,-4,20,27,1
400216,5200,-6501,-3438,-4,25,26,1
400221,5234,-6381,-3463,-4,29,25,1
400226,5263,-6275,-3508,-4,33,24,1
400231,5294,-6185,-3564,-4,37,23,1
400236,5314,-6112,-3601,-4,41,21,1
400241,5343,-6057,-3655,-4,46,20,1
400246,5392,-6017,-3702,-4,49,19,1
400251,5437,-5990,-3726,-3,51,17,1
400256,5459,-5973,-3771,-3,51,16,1
400261,5499,-5981,-3825,-2,50,14,1
400266,5507,-6010,-3855,-2,47,13,1
400271,5462,-6046,-3916,-1,45,12,1
400276,5394,-6093,-3984,-1,42,10,1
400281,5341,-6136,-4020,0,40,9,1
400286,5326,-6184,-4045,0,38,8,1
400291,5324,-6233,-4032,1,35,6,1
400296,5341,-6266,-4006,2,31,5,1
400301,5343,-6283,-3972,3,26,3,1
400306,5308,-6283,-3919,3,21,2,1
400311,5261,-6267,-3867,4,16,0,1
400316,5215,-6238,-3832,5,14,-1,1
400321,5172,-6197,-3788,6,11,-3,1
400326,5155,-6149,-3741,6,9,-4,1
400331,5147,-6098,-3716,7,8,-6,1
400336,5143,-6041,-3724,8,6,-8,1
400341,5141,-5979,-3721,8,5,-9,1
400346,5124,-5915,-3724,8,4,-11,1
400351,5097,-5840,-3712,9,4,-12,1
400356,5075,-5763,-3697,9,3,-14,1
400361,5051,-5713,-3704,9,3,-15,1
400366,5036,-5657,-3709,10,2,-16,1
400371,5030,-5599,-3714,10,1,-18,1
400376,5013,-5556,-3717,10,0,-19,1
400381,4981,-5520,-3687,11,-1,-21,1
400386,4948,-5477,-3666,11,-2,-22,1
400391,4899,-5440,-3599,11,-3,-23,1
400396,4851,-5416,-3558,11,-3,-25,1
400401,4834,-5411,-3576,12,-4,-26,1
400406,4810,-5428,-3564,12,-5,-27,1
400411,4783,-5447,-3575,12,-6,-28,1
400416,4764,-5471,-3579,13,-7,-30,1
400421,4736,-5506,-3568,13,-8,-31,1
400426,4710,-5547,-3572,14,-10,-32,1
400431,4704,-5596,-3589,14,-12,-34,1
400436,4703,-5661,-3586,15,-14,-35,1
400441,4714,-5730,-3640,15,-17,-36,1
400446,4698,-5805,-3712,16,-20,-37,1
400451,4684,-5889,-3751,17,-24,-38,1
400456,4677,-5973,-3804,17,-26,-39,1
400461,4675,-6070,-3814,18,-28,-40,1
400466,4670,-6172,-3820,19,-31,-42,1
400471,4658,-6290,-3799,19,-34,-43,1
400476,4644,-6403,-3799,20,-37,-44,1
400481,4616,-6514,-3779,21,-40,-45,1
400486,4585,-6617,-3730,23,-43,-46,1
400491,4557,-6703,-3719,24,-44,-46,1
400496,4538,-6781,-3713,25,-46,-47,1
400501,4527,-6842,-3738,25,-47,-48,1
400506,4499,-6879,-3701,26,-48,-49,1
400511,4481,-6892,-3699,27,-48,-50,1
400516,4449,-6858,-3641,28,-48,-51,1
400521,4434,-6808,-3636,29,-49,-52,1
400526,4400,-6751,-3596,30,-49,-53,1
400530,4384,-6698,-3593,30,-49,-54,1
400536,4347,-6633,-3541,31,-48,-54,1
400541,4300,-6573,-3498,32,-47,-55,1
400545,4273,-6502,-3477,32,-45,-56,1
400550,4270,-6441,-3491,33,-44,-57,1
400556,4267,-6397,-3537,33,-44,-57,1
400560,4247,-6346,-3544,34,-43,-58,1
400565,4232,-6301,-3572,34,-42,-59,1
400570,4212,-6264,-3583,35,-40,-59,1
400575,4168,-6222,-3663,35,-39,-60,1
400581,4132,-6190,-3733,36,-38,-61,1
400586,4079,-6176,-3724,36,-37,-61,1
400591,4051,-6159,-3748,36,-34,-62,1
400596,4040,-6172,-3727,37,-32,-63,1
400601,4000,-6202,-3679,38,-33,-63,1
400606,3960,-6242,-3701,39,-34,-64,1
400610,3890,-6302,-3682,39,-36,-64,1
400615,3831,-6352,-3679,40,-38,-65,1
400621,3770,-6379,-3651,41,-39,-65,1
400626,3711,-6435,-3629,41,-41,-65,1
400631,3674,-6480,-3661,42,-43,-66,1
400635,3623,-6523,-3594,43,-46,-66,1
400640,3581,-6577,-3610,44,-49,-67,1
400645,3551,-6625,-3590,45,-52,-67,1
400650,3519,-6680,-3602,45,-55,-67,1
400655,3489,-6725,-3610,46,-58,-68,1
400660,3440,-6752,-3598,46,-61,-68,1
400665,3388,-6792,-3578,47,-63,-68,1
400670,3349,-6836,-3564,48,-65,-69,1
400675,3305,-6852,-3539,48,-66,-69,1
400680,3285,-6875,-3532,48,-67,-69,1
400685,3267,-6899,-3474,49,-69,-69,1
400690,3228,-6904,-3401,50,-71,-70,1
400695,3191,-6907,-3411,50,-72,-70,1
400700,3161,-6908,-3426,51,-72,-70,1
400705,3125,-6917,-3379,51,-72,-70,1
400710,3114,-6896,-3427,51,-73,-69,1
400715,3141,-6885,-3463,52,-72,-70,1
400720,3152,-6860,-3528,52,-73,-70,1
400725,3257,-6819,-3634,52,-73,-71,1
400730,3363,-6810,-3707,52,-70,-71,1
400735,3407,-6804,-3745,52,-71,-72,1
400740,3373,-6767,-3863,52,-74,-72,1
400745,3267,-6744,-3812,53,-76,-72,1
400750,3170,-6700,-3839,53,-77,-72,1
400755,3124,-6666,-3783,53,-75,-72,1
400760,3122,-6665,-3756,54,-73,-72,1
400765,3147,-6653,-3734,54,-74,-72,1
400770,3167,-6658,-3717,55,-78,-72,1
400775,3197,-6660,-3785,55,-82,-72,1
400780,3180,-6652,-3740,54,-85,-73,1
400785,3159,-6626,-3757,54,-87,-73,1
400790,3140,-6614,-3732,54,-86,-73,1
400795,3098,-6586,-3676,54,-85,-73,1
400800,3078,-6566,-3634,54,-86,-73,1
400805,3058,-6562,-3604,54,-86,-73,1
400810,3056,-6559,-3616,54,-86,-73,1
400815,3027,-6566,-3579,54,-84,-73,1
400820,3011,-6575,-3592,53,-83,-73,1
400825,3003,-6604,-3620,53,-82,-73,1
400830,2993,-6644,-3634,53,-80,-73,1
400835,2969,-6671,-3584,53,-78,-73,1
400840,2965,-6726,-3576,53,-75,-73,1
400845,2952,-6727,-3528,53,-72,-72,1
400850,2988,-6759,-3595,52,-70,-72,1
400855,2858,-6832,-3319,53,-68,-71,1
400860,2810,-6894,-3288,53,-70,-71,1
400865,2835,-6953,-3357,53,-67,-70,1
400870,2820,-7027,-3264,54,-64,-70,1
400875,2818,-7078,-3292,53,-65,-70,1
400880,2836,-7102,-3341,53,-65,-70,1
400885,2823,-7096,-3294,53,-64,-69,1
400890,2798,-7079,-3277,53,-62,-69,1
400895,2764,-7060,-3273,53,-62,-68,1
400900,2779,-7027,-3320,53,-61,-68,1
400905,2787,-7021,-3334,53,-60,-68,1
400910,2862,-7016,-3444,53,-60,-67,1
400915,2966,-7038,-3548,53,-60,-66,1
400920,3051,-7100,-3587,53,-60,-66,1
400925,3153,-7133,-3681,52,-61,-65,1
400930,3173,-7161,-3737,52,-62,-65,1
400935,3128,-7209,-3720,52,-65,-65,1
400940,3093,-7271,-3765,52,-68,-65,1
400945,3039,-7349,-3743,53,-69,-63,1
400950,3030,-7475,-3669,53,-72,-63,1
400955,3108,-7625,-3579,53,-76,-62,1
400960,3241,-7784,-3578,53,-79,-61,1
400965,3274,-7921,-3514,53,-87,-61,1
400970,3328,-8060,-3507,53,-97,-61,1
400975,3270,-8177,-3529,53,-105,-60,1
400980,3217,-8255,-3569,53,-111,-59,1
400985,3124,-8322,-3541,53,-113,-58,1
400990,3067,-8363,-3578,52,-113,-58,1
400995,3042,-8393,-3647,52,-114,-57,1
401000,3020,-8398,-3747,52,-118,-57,1
401005,3020,-8373,-3918,51,-124,-56,1
401010,2972,-8323,-4040,51,-128,-56,1
401015,2911,-8248,-4173,50,-130,-55,1
401020,2866,-8156,-4341,49,-130,-54,1
401025,2804,-8055,-4442,48,-129,-54,1
401030,2772,-7943,-4588,47,-129,-53,1
401035,2730,-7821,-4693,46,-128,-52,1
401040,2674,-7699,-4767,45,-127,-51,1
401045,2616,-7589,-4868,43,-124,-50,1
401050,2542,-7498,-4955,42,-120,-49,1
401055,2444,-7402,-5043,40,-115,-48,1
401060,2335,-7295,-5074,39,-109,-46,1
401065,2242,-7192,-5095,37,-102,-44,1
401070,2159,-7104,-5125,35,-95,-43,1
401075,2065,-7047,-5151,33,-87,-41,1
401080,1984,-7033,-5160,31,-79,-39,1
401085,1881,-7025,-5155,29,-71,-37,1
401090,1776,-7030,-5164,26,-63,-34,1
401095,1647,-7045,-5136,24,-56,-32,1
401100,1517,-7067,-5098,22,-49,-29,1
401105,1418,-7091,-5072,20,-43,-27,1
401110,1331,-7116,-5050,19,-37,-25,1
401115,1255,-7137,-5017,17,-33,-22,1
401120,1159,-7157,-5026,15,-30,-20,1
401125,1032,-7179,-5063,13,-27,-17,1
401130,920,-7195,-5110,12,-23,-15,1
401135,832,-7200,-5160,10,-18,-12,1
401140,806,-7174,-5191,8,-12,-10,1
401145,844,-7137,-5198,6,-8,-8,1
401150,929,-7091,-5181,5,-6,-7,1
401155,1011,-7046,-5166,3,-6,-5,1
401160,1036,-7002,-5162,2,-7,-4,1
401165,996,-6959,-5178,0,-9,-2,1
401170,930,-6911,-5218,-1,-8,0,1
401175,874,-6872,-5243,-2,-6,1,1
401180,841,-6833,-5248,-4,-3,3,1
401185,874,-6800,-5230,-6,-1,5,1
401190,925,-6765,-5201,-7,0,6,1
401195,960,-6731,-5177,-9,0,8,1
401200,962,-6689,-5179,-10,0,9,1
401205,906,-6659,-5179,-12,0,11,1
401210,864,-6633,-5184,-13,3,13,1
401215,856,-6602,-5173,-15,6,14,1
401220,870,-6581,-5152,-16,10,16,1
401225,895,-6569,-5136,-18,13,18,1
401230,900,-6566,-5093,-19,16,19,1
401235,903,-6574,-5097,-21,18,21,1
401240,857,-6578,-5096,-22,20,22,1
401245,838,-6592,-5101,-24,24,24,1
401250,842,-6610,-5080,-25,27,26,1
401255,886,-6629,-5048,-27,31,28,1
401260,931,-6659,-5000,-28,33,29,1
401265,968,-6699,-4991,-29,33,31,1
401270,998,-6733,-4985,-30,34,33,1
401275,989,-6774,-4979,-32,36,34,1
401280,962,-6835,-4941,-33,38,36,1
401285,978,-6894,-4917,-34,41,38,1
401290,1065,-6942,-4914,-35,43,39,1
401295,1126,-6979,-4883,-36,44,40,1
401300,1136,-7036,-4829,-37,45,42,1
401305,1178,-7081,-4828,-38,46,43,1
401310,1265,-7143,-4851,-39,49,45,1
401315,1143,-7228,-4718,-40,51,47,1
401320,1155,-7293,-4648,-41,53,48,1
401325,1166,-7369,-4591,-41,59,50,1
401330,1240,-7447,-4509,-42,60,51,1
401335,1277,-7515,-4476,-43,62,53,1
401340,1373,-7558,-4478,-43,63,54,1
401345,1369,-7618,-4455,-44,66,55,1
401350,1481,-7649,-4495,-45,68,57,1
401355,1504,-7634,-4433,-46,72,58,1
401360,1586,-7643,-4391,-46,73,59,1
401365,1641,-7646,-4358,-47,74,60,1
401370,1703,-7665,-4296,-47,75,61,1
401375,1788,-7670,-4286,-48,76,62,1
401380,1868,-7659,-4250,-49,78,63,1
401385,1917,-7651,-4192,-49,78,64,1
401390,1974,-7642,-4163,-50,78,65,1
401395,2010,-7620,-4127,-50,79,66,1
401400,2110,-7593,-4146,-51,80,67,1
401405,2169,-7543,-4124,-51,81,67,1
401410,2219,-7495,-4089,-52,82,68,1
401415,2186,-7468,-3988,-52,83,69,1
401420,2160,-7438,-3895,-52,83,70,1
401425,2188,-7411,-3855,-53,84,71,1
401430,2239,-7386,-3814,-53,85,71,1
401435,2271,-7386,-3767,-54,85,72,1
401440,2351,-7367,-3758,-54,85,72,1
401445,2361,-7333,-3728,-54,87,73,1
401450,2342,-7307,-3653,-55,87,73,1
401455,2366,-7275,-3647,-55,88,74,1
401460,2379,-7257,-3614,-55,88,74,1
401465,2390,-7243,-3594,-56,89,74,1
401470,2450,-7258,-3594,-56,89,75,1
401475,2458,-7267,-3564,-56,88,75,1
401480,2480,-7268,-3544,-56,86,75,1
401485,2498,-7288,-3539,-56,85,75,1
401490,2544,-7287,-3546,-56,83,75,1
401495,2555,-7292,-3533,-56,82,76,1
401500,2654,-7354,-3592,-55,80,76,1
401505,2686,-7346,-3524,-55,76,76,1
401510,2765,-7328,-3575,-55,75,76,1
401515,2740,-7362,-3530,-54,72,76,1
401520,2766,-7385,-3558,-54,65,76,1
401525,2714,-7409,-3614,-54,63,76,1
401530,2751,-7452,-3686,-54,60,76,1
401535,2843,-7493,-3779,-54,59,76,1
401540,2920,-7489,-3775,-53,57,76,1
401545,3000,-7457,-3775,-53,56,76,1
401550,3026,-7445,-3725,-52,54,76,1
401555,3007,-7424,-3664,-51,49,76,1
401560,3010,-7413,-3656,-51,46,76,1
401565,3011,-7421,-3633,-50,46,76,1
401570,3056,-7434,-3632,-50,46,77,1
401575,3103,-7472,-3641,-49,46,77,1
401580,3149,-7501,-3645,-49,46,77,1
401585,3185,-7510,-3643,-48,45,77,1
401590,3200,-7529,-3633,-48,45,77,1
401595,3210,-7542,-3615,-47,45,77,1
401600,3181,-7554,-3554,-46,46,78,1
