millis,ax,ay,az,gx,gy,gz,label
17980973,648,-8303,-249,0,3,0,0
17980978,648,-8302,-254,0,2,0,0
17980983,648,-8303,-258,0,2,0,0
17980987,643,-8301,-256,0,2,0,0
17980993,638,-8302,-255,0,1,0,0
17980998,632,-8300,-251,0,1,0,0
17981002,619,-8299,-250,0,1,0,0
17981008,609,-8298,-255,0,2,0,0
17981013,595,-8297,-257,0,2,0,0
17981017,584,-8298,-265,0,2,0,0
17981023,576,-8297,-270,0,2,0,0
17981028,569,-8297,-274,0,3,0,0
17981032,567,-8298,-280,0,3,0,0
17981037,569,-8303,-280,0,3,0,0
17981042,575,-8301,-279,0,3,0,0
17981048,580,-8299,-278,0,3,0,0
17981053,586,-8301,-279,0,3,0,0
17981058,592,-8301,-281,0,3,0,0
17981063,595,-8302,-287,0,3,0,0
17981067,592,-8300,-285,0,3,0,0
17981073,584,-8300,-284,0,3,0,0
17981078,579,-8299,-278,0,4,0,0
17981083,579,-8298,-275,0,4,0,0
17981088,584,-8299,-270,0,5,0,0
17981093,595,-8299,-264,0,6,0,0
17981097,615,-8299,-263,0,7,0,0
17981102,637,-8302,-263,0,8,0,0
17981108,654,-8303,-262,0,10,0,0
17981113,670,-8306,-264,0,13,0,0
17981118,678,-8306,-257,0,16,0,0
17981123,679,-8303,-257,0,19,0,0
17981128,666,-8302,-248,0,21,0,0
17981133,642,-8302,-241,0,24,0,0
17981138,618,-8300,-242,0,26,0,0
17981143,588,-8300,-238,0,30,0,0
17981148,553,-8299,-239,0,33,0,0
17981153,520,-8298,-239,0,37,0,0
17981158,489,-8299,-242,0,42,0,0
17981163,459,-8298,-248,0,46,0,0
17981168,437,-8298,-245,0,51,0,0
17981173,422,-8300,-239,-1,54,0,0
17981178,410,-8301,-226,-1,56,0,0
17981183,401,-8302,-221,-1,57,0,0
17981188,392,-8304,-215,-1,57,0,0
17981193,385,-8305,-205,0,57,0,0
17981198,383,-8306,-207,0,59,0,0
17981203,388,-8308,-218,0,60,0,0
17981208,403,-8309,-236,0,63,0,0
17981213,427,-8305,-251,-1,64,0,0
17981218,464,-8307,-250,-1,63,0,0
17981223,516,-8306,-227,-1,57,-1,0
17981228,566,-8303,-174,-1,46,-1,0
17981233,604,-8301,-108,-1,33,-1,0
17981238,625,-8298,-43,-1,20,-1,0
17981243,637,-8295,13,0,8,-1,0
17981248,640,-8292,41,0,0,-1,0
17981253,633,-8292,33,0,-6,-1,0
17981258,622,-8293,-11,1,-9,-1,0
17981263,607,-8293,-66,1,-9,-1,0
17981268,583,-8294,-127,0,-7,-1,0
17981273,559,-8298,-184,0,-5,-1,0
17981278,535,-8300,-211,0,-2,-2,0
17981283,513,-8304,-217,0,0,-2,0
17981288,494,-8303,-198,0,1,-1,0
17981293,494,-8302,-170,0,4,-1,0
17981298,524,-8302,-165,0,6,-1,0
17981303,580,-8300,-165,0,6,-1,0
17981308,648,-8302,-179,0,1,-1,0
17981313,698,-8304,-204,1,-5,-1,0
17981318,713,-8306,-220,0,-9,-2,0
17981323,695,-8308,-226,0,-8,-2,0
17981328,649,-8309,-208,0,-3,-2,0
17981333,591,-8307,-163,0,4,-2,0
17981338,536,-8309,-109,0,11,-2,0
17981343,500,-8310,-51,0,16,-1,0
17981348,490,-8306,-10,0,17,-1,0
17981353,517,-8305,16,0,16,-1,0
17981358,571,-8304,28,0,13,-1,0
17981363,638,-8301,20,0,8,-1,0
17981368,705,-8301,2,0,3,-1,0
17981373,761,-8297,-23,0,-2,-2,0
17981378,798,-8297,-53,0,-5,-2,0
17981383,824,-8296,-82,0,-6,-2,0
17981388,844,-8295,-116,0,-7,-1,0
17981393,864,-8294,-154,0,-6,-1,0
17981398,894,-8294,-192,0,-6,-1,0
17981403,940,-8293,-235,0,-7,-1,0
17981408,1002,-8293,-293,0,-10,-1,0
17981413,1068,-8294,-344,0,-14,-1,0
17981418,1124,-8292,-384,1,-20,-1,0
17981423,1160,-8292,-410,1,-25,-1,0
17981428,1181,-8292,-418,1,-28,0,0
17981433,1174,-8293,-399,1,-30,0,0
17981438,1139,-8292,-354,1,-28,0,0
17981443,1091,-8294,-304,1,-25,0,0
17981448,1022,-8293,-250,1,-20,0,0
17981453,956,-8292,-208,1,-14,0,0
17981458,893,-8293,-188,1,-9,0,0
17981463,833,-8294,-181,1,-6,0,0
17981468,781,-8297,-191,1,-5,0,0
17981473,728,-8300,-201,1,-5,0,0
17981478,682,-8301,-199,1,-5,0,0
17981483,650,-8302,-192,0,-4,0,0
17981488,644,-8302,-189,0,-4,0,0
17981493,652,-8302,-191,1,-5,0,0
17981498,683,-8303,-210,1,-8,0,0
17981503,731,-8301,-249,1,-13,0,0
17981508,778,-8300,-296,1,-19,0,0
17981513,817,-8298,-354,1,-25,0,0
17981518,849,-8298,-402,1,-30,0,0
17981523,887,-8301,-442,1,-34,0,0
17981528,923,-8298,-469,2,-38,0,0
17981533,947,-8296,-474,2,-39,0,0
17981538,978,-8293,-468,2,-37,1,0
17981543,1017,-8290,-473,2,-32,1,0
17981548,1064,-8286,-477,2,-28,1,0
17981553,1115,-8287,-487,2,-25,1,0
17981558,1157,-8285,-502,3,-25,1,0
17981563,1191,-8283,-511,3,-25,1,0
17981568,1208,-8281,-513,3,-25,2,0
17981573,1214,-8283,-497,3,-24,2,0
17981578,1219,-8284,-462,3,-22,2,0
17981583,1221,-8283,-411,3,-20,2,0
17981588,1233,-8284,-347,3,-19,2,0
17981593,1246,-8285,-274,3,-20,3,0
17981598,1250,-8287,-205,3,-23,3,0
17981603,1254,-8287,-147,3,-26,3,0
17981608,1252,-8286,-96,3,-32,3,0
17981613,1207,-8288,-54,3,-41,3,0
17981618,1110,-8292,-25,3,-49,2,0
17981623,975,-8296,-12,3,-53,2,0
17981628,827,-8297,-10,3,-54,2,0
17981633,678,-8299,-28,3,-53,2,0
17981638,553,-8301,-47,3,-52,2,0
17981643,468,-8304,-71,3,-50,3,0
17981648,428,-8304,-87,3,-49,2,0
17981653,420,-8305,-88,3,-49,2,0
17981658,428,-8304,-88,3,-51,2,0
17981663,434,-8301,-75,3,-53,2,0
17981668,431,-8300,-53,3,-56,1,0
17981673,420,-8297,-37,3,-58,1,0
17981678,406,-8299,-19,3,-60,1,0
17981683,394,-8304,-16,3,-60,1,0
17981688,391,-8303,-23,3,-59,1,0
17981693,394,-8303,-34,3,-57,1,0
17981698,405,-8302,-44,3,-52,1,0
17981703,423,-8305,-52,3,-47,1,0
17981708,441,-8306,-48,3,-42,1,0
17981713,457,-8305,-31,3,-39,1,0
17981718,463,-8301,-4,3,-38,1,0
17981723,457,-8299,27,3,-39,1,0
17981728,442,-8298,44,3,-42,1,0
17981733,421,-8298,58,3,-46,1,0
17981738,396,-8301,69,3,-51,1,0
17981743,359,-8303,71,3,-56,1,0
17981748,319,-8307,74,3,-60,0,0
17981753,277,-8305,79,3,-62,0,0
17981758,236,-8304,101,3,-63,0,0
17981763,202,-8302,134,3,-62,0,0
17981768,180,-8303,169,2,-59,0,0
17981773,174,-8303,204,2,-55,0,0
17981778,166,-8303,240,2,-50,0,0
17981783,156,-8306,268,2,-45,0,0
17981788,147,-8313,278,2,-39,0,0
17981793,136,-8318,279,2,-33,-1,0
17981798,129,-8319,275,2,-27,-1,0
17981803,126,-8318,273,2,-22,-1,0
17981808,124,-8313,262,2,-16,-1,0
17981813,130,-8312,250,1,-10,-1,0
17981818,152,-8309,244,1,-5,-1,0
17981823,190,-8305,252,1,-1,-1,0
17981828,231,-8302,262,1,1,-1,0
17981833,277,-8302,276,1,1,-1,0
17981838,309,-8303,289,1,0,-1,0
17981843,329,-8303,291,1,-1,-1,0
17981848,338,-8305,285,1,-1,-1,0
17981853,339,-8306,272,1,-1,-1,0
17981858,329,-8308,252,1,-1,-1,0
17981863,318,-8310,232,1,0,-1,0
17981868,311,-8312,210,1,2,-1,0
17981873,309,-8310,196,0,5,-1,0
17981878,307,-8310,194,0,7,-1,0
17981883,304,-8311,207,0,11,-1,0
17981888,313,-8313,234,0,15,-1,0
17981893,332,-8313,275,0,18,-1,0
17981898,374,-8314,325,0,21,-1,0
17981903,454,-8313,401,0,21,-1,0
17981908,574,-8313,502,-1,17,-1,0
17981913,686,-8309,602,-1,7,-1,0
17981918,745,-8305,685,-1,-5,-1,0
17981923,756,-8301,739,-1,-15,-1,0
17981928,722,-8303,744,-1,-23,-2,0
17981933,651,-8306,700,-1,-30,-2,0
17981938,557,-8311,620,-1,-36,-2,0
17981943,459,-8316,511,-1,-40,-2,0
17981948,378,-8319,394,-1,-41,-1,0
17981953,336,-8319,303,-1,-40,-1,0
17981958,344,-8319,242,-1,-37,-1,0
17981963,388,-8317,212,-1,-35,-1,0
17981968,447,-8314,217,-2,-33,-2,0
17981973,512,-8310,241,-2,-33,-2,0
17981978,570,-8308,262,-1,-33,-2,0
17981983,612,-8308,269,-1,-33,-2,0
17981988,641,-8309,263,-1,-32,-2,0
17981993,655,-8308,241,-1,-32,-2,0
17981998,661,-8307,201,-1,-31,-1,0
17982003,662,-8307,155,-1,-30,-1,0
17982008,663,-8305,102,-1,-28,-1,0
17982013,658,-8302,54,-2,-25,-1,0
17982018,652,-8302,17,-2,-22,-1,0
17982023,650,-8301,-10,-2,-18,-1,0
17982028,654,-8304,-24,-2,-14,-1,0
17982033,662,-8306,-25,-2,-11,-1,0
17982038,670,-8306,-17,-2,-9,-1,0
17982043,671,-8305,-7,-2,-8,-1,0
17982048,665,-8307,3,-2,-6,-1,0
17982053,649,-8307,7,-2,-5,-1,0
17982058,631,-8310,13,-2,-2,-1,0
17982063,612,-8310,13,-1,-1,-1,0
17982068,594,-8308,12,-1,0,-1,0
17982073,580,-8307,2,-2,1,-1,0
17982078,577,-8307,-10,-2,1,-1,0
17982083,581,-8306,-26,-2,2,-1,0
17982088,587,-8307,-35,-2,3,-1,0
17982093,607,-8307,-37,-2,4,0,0
17982098,634,-8306,-43,-1,4,0,0
17982103,658,-8306,-52,-1,5,0,0
17982108,676,-8308,-60,-1,6,0,0
17982113,688,-8307,-76,-1,8,0,0
17982118,703,-8309,-94,-1,10,0,0
17982123,721,-8311,-109,-1,13,0,0
17982128,743,-8311,-120,-1,15,0,0
17982133,763,-8310,-121,-1,16,0,0
17982138,777,-8310,-120,-1,18,0,0
17982143,797,-8309,-107,-1,19,0,0
17982148,817,-8308,-79,-1,19,0,0
17982153,830,-8307,-48,-1,18,0,0
17982158,832,-8306,-15,-1,18,0,0
17982163,829,-8304,14,-1,16,1,0
17982168,840,-8305,45,-1,13,1,0
17982173,855,-8305,76,-1,8,1,0
17982178,857,-8305,96,-1,1,1,0
17982183,855,-8305,100,-1,-5,1,0
17982188,856,-8306,92,-1,-7,1,0
17982193,870,-8306,85,-1,-9,1,0
17982198,885,-8307,74,-1,-11,1,0
17982203,898,-8307,53,-1,-13,1,0
17982208,908,-8308,33,-1,-17,1,0
17982213,906,-8307,19,-1,-22,1,0
17982218,885,-8311,15,-1,-29,1,0
17982223,840,-8313,12,-1,-36,1,0
17982228,771,-8313,8,-1,-42,1,0
17982233,695,-8314,3,-1,-48,1,0
17982238,612,-8315,13,-1,-53,1,0
17982243,525,-8313,24,-1,-59,1,0
17982248,434,-8312,36,-1,-65,0,0
17982253,337,-8317,51,-1,-69,0,0
17982258,241,-8317,72,-1,-71,0,0
17982263,162,-8318,93,-1,-70,0,0
17982268,99,-8317,121,-1,-70,0,0
17982273,48,-8319,141,-1,-69,-1,0
17982278,16,-8318,166,-1,-69,-1,0
17982283,-11,-8318,183,-1,-68,-1,0
17982288,-44,-8317,179,-1,-66,-1,0
17982293,-69,-8313,177,-1,-62,-1,0
17982298,-86,-8314,162,-1,-55,-1,0
17982303,-97,-8313,133,-1,-49,-2,0
17982308,-107,-8312,100,-1,-42,-2,0
17982313,-107,-8312,61,-1,-34,-2,0
17982318,-103,-8310,27,-2,-26,-2,0
17982323,-86,-8309,-3,-2,-17,-2,0
17982328,-51,-8308,-23,-2,-8,-2,0
17982333,-4,-8308,-33,-2,-1,-2,0
17982338,56,-8310,-30,-2,5,-2,0
17982343,118,-8308,-24,-2,8,-2,0
17982348,163,-8305,-30,-2,10,-2,0
17982353,194,-8305,-54,-2,14,-2,0
17982358,213,-8303,-104,-2,21,-2,0
17982363,221,-8305,-167,-2,29,-2,0
17982368,228,-8307,-242,-2,38,-2,0
17982373,242,-8306,-310,-2,47,-2,0
17982378,260,-8306,-375,-2,55,-2,0
17982383,284,-8303,-425,-2,62,-2,0
17982388,313,-8303,-457,-1,68,-2,0
17982393,349,-8303,-471,-1,73,-2,0
17982398,387,-8302,-468,-1,76,-2,0
17982403,425,-8302,-462,-1,78,-2,0
17982408,464,-8305,-446,-1,80,-2,0
17982413,498,-8304,-424,-1,80,-2,0
17982418,516,-8304,-398,-1,80,-2,0
17982423,532,-8307,-372,-1,81,-2,0
17982428,546,-8310,-330,-1,81,-2,0
17982433,566,-8313,-274,-1,79,-2,0
17982438,592,-8315,-194,-1,74,-2,0
17982443,629,-8313,-107,-1,69,-1,0
17982448,674,-8312,-16,-1,63,-1,0
17982453,737,-8308,72,-1,58,-1,0
17982458,832,-8303,163,-1,51,-1,0
17982463,947,-8299,246,-1,42,-1,0
17982468,1063,-8300,305,-1,30,-1,0
17982473,1151,-8302,335,-1,16,-1,0
17982478,1181,-8304,353,-1,4,-1,0
17982483,1151,-8306,340,-1,0,-1,0
17982488,1107,-8308,307,-1,0,-1,0
17982493,1042,-8309,259,-1,-1,-1,0
17982498,948,-8308,207,-1,-1,-1,0
17982503,873,-8309,163,-1,-1,0,0
17982508,814,-8309,132,-1,-1,0,0
17982513,769,-8309,120,-1,-2,0,0
17982518,755,-8310,132,-1,-3,0,0
17982523,762,-8311,165,-1,-4,0,0
17982528,792,-8309,226,-1,-8,0,0
17982533,835,-8310,294,-1,-15,0,0
17982538,888,-8310,356,-1,-24,0,0
17982543,952,-8308,407,-1,-35,0,0
17982548,1026,-8305,440,-1,-46,0,0
17982553,1110,-8303,454,-1,-57,0,0
17982558,1198,-8301,455,-1,-69,0,0
17982563,1271,-8300,450,-1,-81,0,0
17982568,1308,-8298,430,-1,-93,0,0
17982573,1291,-8293,391,-1,-103,0,0
17982578,1232,-8297,348,-1,-112,0,0
17982583,1141,-8297,306,-1,-120,0,0
17982588,1019,-8296,251,-1,-128,0,0
17982593,880,-8299,197,-1,-134,0,0
17982598,732,-8298,132,-1,-136,0,0
17982603,603,-8299,59,-1,-134,0,0
17982608,496,-8304,-7,0,-128,0,0
17982613,422,-8309,-63,-1,-122,0,0
17982618,367,-8311,-104,-1,-114,0,0
17982623,330,-8309,-133,-1,-107,0,0
17982628,316,-8307,-139,-1,-99,0,0
17982633,309,-8308,-135,-1,-92,0,0
17982638,314,-8306,-123,-1,-85,0,0
17982643,326,-8305,-118,-1,-79,0,0
17982648,337,-8306,-120,-1,-74,0,0
17982653,342,-8308,-127,-1,-71,0,0
17982658,334,-8309,-143,-1,-67,0,0
17982663,312,-8307,-158,-1,-63,0,0
17982668,279,-8308,-177,-1,-57,0,0
17982673,241,-8306,-204,-1,-50,0,0
17982678,202,-8308,-226,-1,-42,0,0
17982683,173,-8310,-254,-1,-34,0,0
17982688,160,-8313,-285,-1,-27,0,0
17982693,155,-8313,-326,0,-20,0,0
17982698,161,-8315,-367,0,-14,0,0
17982703,176,-8312,-396,0,-6,0,0
17982708,208,-8312,-411,0,1,0,0
17982713,251,-8311,-410,0,5,0,0
17982718,281,-8311,-403,0,8,0,0
17982723,298,-8305,-402,0,11,0,0
17982728,304,-8299,-402,0,15,0,0
17982733,297,-8296,-429,0,21,0,0
17982738,281,-8297,-470,0,28,0,0
17982743,252,-8298,-530,0,38,0,0
17982748,206,-8306,-592,0,50,0,0
17982753,154,-8309,-640,0,63,0,0
17982758,127,-8311,-655,0,76,0,0
17982763,136,-8312,-624,0,86,0,0
17982768,175,-8309,-543,0,91,0,0
17982773,235,-8308,-436,0,93,0,0
17982778,309,-8306,-307,0,92,0,0
17982783,388,-8302,-180,0,88,0,0
17982788,455,-8302,-73,0,83,0,0
17982793,493,-8303,10,0,77,0,0
17982798,492,-8305,41,0,70,0,0
17982803,461,-8306,40,0,64,0,0
17982808,430,-8307,20,0,57,-1,0
17982813,424,-8308,-13,1,47,0,0
17982818,448,-8310,-46,1,34,0,0
17982823,497,-8312,-68,1,18,0,0
17982828,572,-8312,-66,1,3,0,0
17982833,667,-8313,-34,1,-11,0,0
17982838,797,-8310,25,1,-25,-1,0
17982843,950,-8308,104,1,-43,-1,0
17982848,1097,-8304,184,1,-66,0,0
17982853,1208,-8298,263,1,-91,0,0
17982858,1267,-8296,326,2,-115,0,0
17982863,1278,-8297,370,2,-133,0,0
17982868,1250,-8297,384,2,-147,0,0
17982873,1179,-8296,372,2,-155,0,0
17982878,1075,-8297,341,2,-157,0,0
17982883,959,-8298,299,2,-153,0,0
17982888,850,-8301,254,2,-146,0,0
17982893,748,-8303,228,1,-136,0,0
17982898,649,-8307,230,1,-124,0,0
17982903,571,-8307,268,1,-114,0,0
17982908,504,-8306,335,0,-107,0,0
17982913,417,-8303,422,0,-103,0,0
17982918,332,-8296,511,0,-100,-1,0
17982923,250,-8295,570,0,-97,-1,0
17982928,194,-8296,607,0,-95,-1,0
17982933,171,-8299,595,0,-94,0,0
17982938,192,-8295,535,0,-93,0,0
17982943,254,-8297,433,0,-93,0,0
17982948,323,-8299,297,0,-93,0,0
17982953,392,-8298,145,0,-91,0,0
17982958,455,-8296,-4,0,-89,0,0
17982963,505,-8299,-165,0,-86,0,0
17982968,525,-8302,-310,0,-83,0,0
17982973,510,-8303,-417,1,-78,0,0
17982978,473,-8304,-495,0,-71,0,0
17982983,409,-8306,-522,0,-62,0,0
17982988,332,-8309,-492,0,-51,-1,0
17982993,253,-8307,-416,0,-38,-1,0
17982998,206,-8304,-311,0,-25,-1,0
17983003,218,-8299,-238,0,-17,0,0
17983008,251,-8295,-222,1,-13,0,0
17983013,269,-8296,-262,2,-9,0,0
17983018,298,-8303,-351,2,-2,0,0
17983023,328,-8309,-465,2,6,0,0
17983028,333,-8313,-564,1,14,-1,0
17983033,304,-8315,-633,1,22,-1,0
17983038,250,-8313,-652,0,32,-1,0
17983043,188,-8308,-628,1,42,-1,0
17983048,137,-8302,-580,1,52,-1,0
17983053,117,-8297,-523,1,61,0,0
17983058,132,-8294,-480,2,68,0,0
17983063,190,-8295,-447,2,71,0,0
17983068,282,-8297,-414,2,71,0,0
17983073,393,-8297,-374,2,66,0,0
17983078,507,-8296,-320,2,56,0,0
17983083,613,-8292,-249,2,41,0,0
17983088,703,-8290,-144,2,24,0,0
17983093,769,-8292,-17,2,4,0,0
17983098,803,-8293,96,2,-16,0,0
17983103,818,-8292,193,2,-35,0,0
17983108,812,-8294,268,2,-51,0,0
17983113,776,-8294,310,3,-63,0,0
17983118,717,-8296,320,3,-69,0,0
17983123,647,-8299,292,3,-70,0,0
17983128,581,-8304,260,2,-67,0,0
17983133,512,-8305,235,2,-61,-1,0
17983138,450,-8306,215,2,-52,-1,0
17983143,396,-8308,209,2,-43,0,0
17983148,350,-8314,212,2,-32,-1,0
17983153,317,-8316,228,1,-21,-1,0
17983158,297,-8316,244,1,-11,0,0
17983163,290,-8314,264,1,-3,-1,0
17983168,293,-8313,280,1,4,-1,0
17983173,300,-8311,290,1,8,-1,0
17983178,310,-8310,299,1,11,-1,0
17983183,317,-8310,312,1,13,-1,0
17983188,323,-8309,329,1,14,-1,0
17983193,335,-8308,350,0,15,-1,0
17983198,347,-8302,371,0,15,-1,0
17983203,364,-8300,387,0,15,-1,0
17983208,377,-8303,399,0,16,-1,0
17983213,390,-8303,401,0,16,-1,0
17983218,399,-8304,399,0,18,-1,0
17983223,397,-8304,390,0,20,-1,0
17983228,391,-8306,391,0,22,-1,0
17983233,386,-8309,401,0,23,-1,0
17983238,381,-8314,416,-1,23,-1,0
17983243,379,-8314,441,-1,21,-1,0
17983248,387,-8311,466,-1,18,-1,0
17983253,399,-8311,487,-1,15,-1,0
17983258,417,-8308,499,-1,12,-1,0
17983263,440,-8309,495,-1,10,-1,0
17983268,457,-8310,472,-1,7,-1,0
17983273,470,-8309,440,-1,5,-1,0
17983278,481,-8311,406,-1,3,-1,0
17983283,486,-8311,368,-1,1,-1,0
17983288,486,-8309,337,-1,0,-1,0
17983293,486,-8307,312,-1,-2,-1,0
17983298,489,-8306,295,-1,-2,-1,0
17983303,502,-8305,284,-1,-1,-1,0
17983308,519,-8305,274,-1,-1,-1,0
17983313,542,-8305,256,-1,0,-1,0
17983318,564,-8307,232,-1,1,-1,0
17983323,580,-8308,204,-1,1,-1,0
17983328,586,-8310,181,-1,1,-1,0
17983333,586,-8309,159,-1,2,-1,0
17983338,581,-8308,142,-1,2,-1,0
17983343,580,-8307,127,-1,3,-1,0
17983348,582,-8305,107,-1,3,-1,0
17983353,593,-8306,87,-1,2,-1,0
17983358,613,-8306,73,-1,1,-1,0
17983363,634,-8307,59,-1,-1,0,0
17983368,649,-8308,49,-1,-4,0,0
17983373,653,-8308,41,-1,-6,-1,0
17983378,649,-8309,43,-1,-6,0,0
17983383,641,-8310,44,-1,-6,0,0
17983388,629,-8309,53,-1,-6,0,0
17983393,621,-8311,56,-1,-5,0,0
17983398,616,-8312,44,-1,-5,0,0
17983403,620,-8311,32,-1,-5,0,0
17983408,633,-8307,15,-1,-7,0,0
17983413,658,-8309,5,-1,-13,0,0
17983418,673,-8308,4,-1,-19,0,0
17983423,669,-8309,16,-1,-25,0,0
17983428,663,-8309,50,-1,-29,0,0
17983433,665,-8310,87,-1,-31,0,0
17983438,663,-8309,125,-1,-32,0,0
17983443,662,-8307,149,-1,-32,0,0
17983448,672,-8309,114,0,-30,0,0
17983453,667,-8305,93,0,-28,0,0
17983458,656,-8303,43,0,-25,0,0
17983463,629,-8304,-7,-1,-20,0,0
17983468,597,-8303,-37,-1,-17,0,0
17983473,555,-8304,-47,-1,-14,0,0
17983478,519,-8306,-23,-1,-11,0,0
17983483,500,-8305,4,-1,-9,0,0
17983488,491,-8305,34,-1,-8,0,0
17983493,502,-8303,58,-1,-8,0,0
17983498,522,-8300,60,-1,-9,0,0
17983503,539,-8301,56,0,-10,0,0
17983508,553,-8304,37,-1,-11,0,0
17983513,551,-8308,13,-1,-13,0,0
17983518,535,-8308,-8,-1,-13,0,0
17983523,504,-8307,-32,-1,-12,0,0
17983528,472,-8308,-54,-1,-11,0,0
17983533,451,-8310,-65,0,-9,0,0
17983538,439,-8312,-71,0,-7,0,0
17983543,439,-8313,-79,0,-6,0,0
17983548,446,-8311,-84,0,-5,0,0
17983553,455,-8313,-80,0,-5,0,0
17983558,456,-8312,-64,0,-5,0,0
17983563,444,-8312,-45,0,-5,0,0
17983568,419,-8307,-15,0,-4,0,0
17983573,392,-8302,14,0,-4,0,0
17983578,367,-8301,40,0,-3,0,0
17983583,354,-8300,56,0,-4,0,0
17983588,348,-8300,79,0,-5,0,0
17983593,351,-8301,99,0,-7,0,0
17983598,368,-8303,123,0,-10,0,0
17983603,391,-8304,141,0,-14,0,0
17983608,409,-8305,159,0,-18,0,0
17983613,422,-8306,175,0,-21,0,0
17983618,426,-8303,180,0,-23,0,0
17983623,429,-8306,175,0,-24,0,0
17983628,429,-8308,162,0,-25,0,0
17983633,434,-8306,141,0,-27,0,0
17983638,447,-8305,121,0,-28,0,0
17983643,459,-8308,105,0,-29,0,0
17983648,479,-8306,91,0,-30,0,0
17983653,500,-8307,74,0,-32,0,0
17983658,528,-8304,46,0,-34,0,0
17983663,560,-8305,15,0,-35,0,0
17983668,594,-8302,-19,0,-37,0,0
17983673,623,-8301,-68,0,-38,0,0
17983678,645,-8300,-124,0,-40,0,0
17983683,667,-8299,-183,1,-41,0,0
17983688,683,-8301,-229,1,-43,0,0
17983693,688,-8300,-264,1,-44,0,0
17983698,676,-8302,-287,1,-46,0,0
17983703,650,-8303,-281,1,-47,0,0
17983708,613,-8302,-236,1,-47,0,0
17983713,564,-8301,-161,1,-47,0,0
17983718,513,-8301,-58,1,-46,0,0
17983723,468,-8303,53,1,-44,0,0
17983728,435,-8302,166,1,-41,0,0
17983733,412,-8302,267,1,-38,0,0
17983738,393,-8302,349,0,-35,0,0
17983743,381,-8305,398,0,-32,0,0
17983748,371,-8305,424,0,-29,0,0
17983753,362,-8304,425,0,-26,0,0
17983758,356,-8303,410,0,-23,0,0
17983763,359,-8303,375,0,-21,0,0
17983768,376,-8303,332,0,-19,0,0
17983773,404,-8302,288,0,-20,0,0
17983778,440,-8297,239,0,-21,0,0
17983783,476,-8298,193,0,-24,0,0
17983788,508,-8301,150,0,-26,0,0
17983793,533,-8302,117,0,-29,0,0
17983798,550,-8299,83,0,-31,0,0
17983803,558,-8298,45,0,-33,0,0
17983808,556,-8295,15,0,-34,0,0
17983813,542,-8296,-6,0,-34,0,0
17983818,521,-8296,-17,0,-33,0,0
17983823,494,-8299,-20,0,-31,0,0
17983828,463,-8301,-13,0,-28,0,0
17983833,436,-8302,2,0,-25,0,0
17983838,411,-8300,25,0,-21,0,0
17983843,395,-8299,50,0,-18,0,0
17983848,385,-8299,83,0,-16,0,0
17983853,377,-8299,110,0,-14,0,0
17983858,378,-8299,143,0,-13,0,0
17983863,391,-8300,169,0,-13,0,0
17983868,417,-8302,199,0,-15,0,0
17983873,446,-8303,229,0,-19,0,0
17983878,473,-8304,252,0,-24,0,0
17983883,490,-8305,266,0,-29,0,0
17983888,495,-8305,266,0,-33,0,0
17983893,487,-8303,250,0,-36,0,0
17983898,467,-8304,225,0,-36,0,0
17983903,440,-8304,198,0,-36,0,0
17983908,413,-8305,171,0,-35,0,0
17983913,388,-8307,150,0,-34,0,0
17983918,367,-8308,135,0,-32,0,0
17983923,356,-8309,129,0,-30,0,0
17983928,361,-8311,137,0,-28,0,0
17983933,373,-8312,152,0,-27,0,0
17983938,387,-8312,173,0,-27,0,0
17983943,398,-8312,189,0,-28,0,0
17983948,403,-8313,207,0,-29,0,0
17983953,400,-8312,220,0,-29,0,0
17983958,391,-8306,229,0,-30,0,0
17983963,378,-8306,236,0,-29,0,0
17983968,367,-8307,238,-1,-29,0,0
17983973,361,-8309,233,-1,-28,0,0
17983978,355,-8313,225,-1,-26,0,0
17983983,352,-8314,219,-1,-24,0,0
17983988,351,-8314,213,-1,-21,0,0
17983993,356,-8316,209,-1,-18,-1,0
17983998,368,-8312,211,-1,-17,-1,0
17984003,381,-8309,219,-1,-17,-1,0
17984008,397,-8307,238,-1,-19,0,0
17984013,410,-8305,264,-1,-22,-1,0
17984018,419,-8305,280,-1,-24,0,0
17984023,421,-8304,286,-1,-25,0,0
17984028,418,-8304,276,-1,-25,0,0
17984033,414,-8305,247,-1,-23,-1,0
17984038,408,-8308,206,-1,-21,-1,0
17984043,399,-8313,160,-1,-19,-1,0
17984048,383,-8311,111,-1,-17,-1,0
17984053,367,-8310,65,-1,-14,-1,0
17984058,352,-8309,27,-1,-10,-1,0
17984063,338,-8308,0,-1,-6,-1,0
17984068,330,-8306,-20,-1,-1,-1,0
17984073,327,-8305,-39,-1,3,-1,0
17984078,329,-8305,-51,-1,6,-1,0
17984083,337,-8308,-71,-1,8,-1,0
17984088,346,-8310,-89,-1,9,-1,0
17984093,363,-8309,-102,-1,10,-1,0
17984098,381,-8308,-98,-1,11,-1,0
17984103,398,-8309,-95,-1,11,-1,0
17984108,411,-8310,-90,0,10,-1,0
17984113,423,-8309,-82,0,10,-1,0
17984118,439,-8312,-82,0,9,-1,0
17984123,455,-8313,-82,0,7,-1,0
17984128,463,-8314,-85,0,6,-1,0
17984133,467,-8312,-87,0,5,-1,0
17984138,468,-8313,-91,0,5,-1,0
17984143,468,-8314,-100,0,7,0,0
17984148,466,-8310,-108,0,9,0,0
17984153,465,-8306,-112,0,12,-1,0
17984158,461,-8307,-116,0,13,-1,0
17984163,454,-8308,-113,0,13,-1,0
17984168,443,-8312,-108,0,13,-1,0
17984173,434,-8313,-89,0,13,-1,0
17984178,433,-8310,-63,0,13,0,0
17984183,445,-8307,-31,0,12,0,0
17984188,472,-8305,6,0,10,0,0
17984193,508,-8307,44,0,7,0,0
17984198,541,-8310,83,0,3,0,0
17984203,554,-8311,124,0,-1,0,0
17984208,548,-8310,163,0,-5,0,0
17984213,522,-8308,187,0,-6,-1,0
17984218,480,-8309,207,0,-6,-1,0
17984223,434,-8311,216,0,-5,-1,0
17984228,395,-8311,221,0,-3,-1,0
17984233,359,-8310,212,0,-1,0,0
17984238,338,-8308,203,0,1,-1,0
17984243,338,-8306,192,0,3,-1,0
17984248,347,-8307,186,0,5,-1,0
17984253,373,-8305,186,0,5,-1,0
17984258,399,-8304,190,0,5,-1,0
17984263,430,-8305,200,0,3,-1,0
17984268,456,-8304,209,0,0,-1,0
17984273,465,-8303,221,0,-3,-1,0
17984278,457,-8300,232,0,-6,-1,0
17984283,438,-8300,238,0,-8,-1,0
17984288,415,-8300,242,0,-8,-1,0
17984293,394,-8303,237,0,-7,-1,0
17984298,382,-8303,229,0,-6,-1,0
17984303,380,-8302,221,0,-6,-1,0
17984308,382,-8304,219,0,-5,-1,0
17984313,386,-8305,216,0,-4,-1,0
17984318,388,-8307,212,0,-4,-1,0
17984323,389,-8308,212,0,-3,-1,0
17984328,389,-8308,218,0,-2,-1,0
17984333,385,-8305,220,0,-2,-1,0
17984338,379,-8307,225,0,-1,-1,0
17984343,372,-8306,225,0,0,-1,0
17984348,369,-8306,226,0,1,-1,0
17984353,369,-8305,229,0,2,-1,0
17984358,376,-8308,226,0,3,-1,0
17984363,386,-8309,218,0,4,-1,0
17984368,395,-8310,207,0,4,-1,0
17984373,396,-8313,197,-1,4,-1,0
17984378,397,-8312,186,-1,5,-1,0
17984383,395,-8314,173,-1,6,-1,0
17984388,397,-8312,159,-1,8,-1,0
17984393,409,-8313,149,-1,11,-1,0
17984398,426,-8310,134,-1,13,-1,0
17984403,445,-8309,117,-1,15,-1,0
17984408,467,-8306,104,-1,17,-1,0
17984413,488,-8306,94,-1,18,-1,0
17984418,508,-8303,87,0,19,-1,0
17984423,530,-8301,80,0,19,-1,0
17984428,548,-8299,75,0,17,-1,0
17984433,562,-8298,70,0,15,-1,0
17984438,569,-8298,63,0,13,-1,0
17984443,572,-8298,61,0,12,-1,0
17984448,572,-8297,52,0,11,-1,0
17984453,570,-8295,47,0,11,-1,0
17984458,567,-8297,36,0,11,-1,0
17984463,562,-8301,29,0,10,0,0
17984468,556,-8303,25,0,9,0,0
17984473,551,-8304,24,0,8,0,0
17984478,551,-8307,27,0,8,0,0
17984483,553,-8306,40,0,9,0,0
17984488,557,-8306,53,0,10,0,0
17984493,564,-8306,70,0,11,0,0
17984498,565,-8307,94,0,11,0,0
17984503,568,-8307,114,0,10,0,0
17984508,561,-8309,133,0,8,0,0
17984513,550,-8306,146,0,6,0,0
17984518,538,-8306,160,0,4,0,0
17984523,528,-8304,175,0,3,0,0
17984528,528,-8305,183,0,2,0,0
17984533,531,-8306,191,0,0,0,0
17984538,530,-8305,203,0,-2,0,0
17984543,521,-8304,208,0,-3,0,0
17984548,503,-8305,212,0,-2,0,0
17984553,487,-8307,211,0,-1,0,0
17984558,471,-8308,207,0,1,0,0
17984563,459,-8309,206,0,2,0,0
17984568,453,-8311,209,0,3,0,0
17984573,445,-8310,213,0,3,0,0
17984578,441,-8309,212,0,4,0,0
17984583,433,-8311,203,0,4,0,0
17984588,426,-8311,197,0,5,0,0
17984593,420,-8311,189,0,6,0,0
17984598,407,-8309,182,0,8,0,0
17984603,395,-8308,179,-1,10,0,0
17984608,386,-8308,179,-1,12,0,0
17984613,381,-8307,184,-1,13,0,0
17984618,376,-8306,186,-1,13,0,0
17984623,377,-8306,191,-1,13,0,0
17984628,384,-8304,198,-1,13,0,0
17984633,391,-8304,199,-1,12,0,0
17984638,404,-8306,193,0,11,0,0
17984643,414,-8305,187,-1,10,0,0
17984648,420,-8307,178,-1,8,0,0
17984653,419,-8309,169,0,7,0,0
17984658,411,-8311,161,-1,7,0,0
17984663,404,-8311,156,-1,7,0,0
17984668,396,-8311,150,0,8,0,0
17984673,394,-8311,147,0,9,0,0
17984678,392,-8310,143,0,9,-1,0
17984684,391,-8307,134,0,10,0,0
17984688,391,-8306,126,0,10,0,0
17984693,395,-8306,114,0,11,0,0
17984698,401,-8305,98,0,11,-1,0
17984703,406,-8305,95,0,12,0,0
17984708,406,-8305,92,0,12,0,0
17984713,408,-8304,91,0,13,0,0
17984718,414,-8305,94,0,14,0,0
17984723,420,-8306,99,0,14,0,0
17984728,429,-8308,99,0,14,0,0
17984733,438,-8310,107,0,14,0,0
17984738,445,-8311,111,0,12,-1,0
17984743,448,-8311,111,0,11,0,0
17984748,451,-8309,117,0,10,0,0
17984753,455,-8310,121,0,8,0,0
17984758,461,-8311,126,0,7,0,0
17984764,465,-8309,128,0,7,0,0
17984768,463,-8305,120,0,6,0,0
17984773,458,-8302,114,0,7,0,0
17984778,453,-8302,105,0,8,0,0
17984783,447,-8303,95,0,10,0,0
17984788,447,-8306,86,0,12,0,0
17984794,454,-8305,83,0,12,0,0
17984799,463,-8304,88,0,12,0,0
17984803,469,-8307,91,0,12,0,0
17984809,470,-8305,93,0,12,0,0
17984813,471,-8305,102,0,12,0,0
17984818,474,-8306,113,0,12,0,0
17984823,472,-8305,120,0,11,0,0
17984829,468,-8304,125,0,11,0,0
17984833,462,-8306,139,0,10,0,0
17984838,450,-8307,155,0,11,0,0
17984843,433,-8306,158,0,11,0,0
17984848,420,-8307,165,0,13,0,0
17984853,408,-8308,172,0,14,0,0
17984858,404,-8307,182,0,15,0,0
17984864,403,-8305,199,0,16,0,0
17984868,406,-8305,212,0,16,0,0
17984873,407,-8305,228,0,16,0,0
17984878,407,-8302,241,0,15,0,0
17984883,405,-8300,261,-1,14,0,0
17984888,401,-8304,281,-1,14,0,0
17984893,396,-8306,297,-1,13,0,0
17984898,395,-8308,304,-1,12,0,0
17984903,397,-8313,305,-1,12,-1,0
17984909,400,-8313,301,-1,11,0,0
17984914,413,-8312,292,-1,10,0,0
17984918,429,-8306,286,-1,9,0,0
17984923,450,-8302,283,-1,5,-1,0
17984928,469,-8301,282,-1,1,-1,0
17984933,480,-8300,286,-1,-4,-1,0
17984939,483,-8300,293,-1,-8,-1,0
17984943,494,-8300,311,-1,-12,-1,0
17984948,511,-8302,333,-1,-16,-1,0
17984953,529,-8303,368,-1,-22,0,0
17984958,550,-8305,412,-1,-29,-1,0
17984964,571,-8302,456,-1,-36,0,0
17984968,586,-8299,485,-1,-41,0,0
17984973,589,-8298,501,-1,-44,0,0
17984979,600,-8298,484,-1,-45,0,0
17984983,616,-8300,438,-1,-46,0,0
17984988,638,-8302,366,-1,-47,0,0
17984993,663,-8303,280,-1,-48,0,0
17984998,683,-8302,185,-1,-48,0,0
17985003,689,-8302,78,-1,-46,0,0
17985009,690,-8298,-39,-1,-41,0,0
17985013,691,-8298,-142,-1,-33,0,0
17985019,689,-8298,-238,0,-23,0,0
17985023,689,-8298,-320,0,-15,1,0
17985029,694,-8296,-371,0,-8,1,0
17985034,703,-8297,-393,0,-4,1,0
17985039,717,-8298,-385,0,-2,1,0
17985043,724,-8296,-337,0,-1,1,0
17985048,726,-8296,-259,0,0,1,0
17985054,727,-8297,-161,0,3,2,0
17985059,719,-8301,-47,0,5,2,0
17985063,697,-8302,64,0,9,2,0
17985069,671,-8302,176,0,13,2,0
17985074,638,-8303,268,0,17,2,0
17985079,609,-8302,332,-1,21,2,0
17985084,590,-8306,375,-1,24,2,0
17985089,571,-8307,390,-1,26,2,0
17985094,544,-8307,380,-1,28,2,0
17985099,515,-8307,346,-1,31,2,0
17985104,475,-8305,302,-1,36,2,0
17985109,420,-8306,253,-1,41,2,0
17985114,364,-8307,211,-1,46,2,0
17985118,317,-8307,185,-1,48,2,0
17985124,284,-8306,172,-1,46,2,0
17985129,265,-8304,174,-2,40,2,0
17985134,255,-8302,176,-1,32,2,0
17985139,255,-8299,173,-1,23,2,0
17985144,261,-8301,158,-1,16,2,0
17985148,270,-8304,122,-1,11,1,0
17985154,278,-8305,81,-1,8,1,0
17985159,292,-8302,37,-1,7,1,0
17985164,307,-8304,7,-1,7,1,0
17985169,323,-8305,-8,-1,7,1,0
17985174,338,-8305,-2,-1,7,1,0
17985179,359,-8307,25,-1,6,1,0
17985184,372,-8306,66,-1,5,1,0
17985189,384,-8306,112,-1,5,1,0
17985194,394,-8303,149,-1,5,1,0
17985199,406,-8303,173,0,6,1,0
17985204,417,-8306,179,0,6,1,0
17985209,430,-8310,172,0,7,1,0
17985214,440,-8321,159,-1,7,1,0
17985219,449,-8350,140,-1,6,1,0
17985223,452,-8391,114,-1,5,1,0
17985229,454,-8434,86,-1,2,2,0
17985234,460,-8470,65,-1,0,2,0
17985239,472,-8495,51,-1,-2,2,0
17985244,478,-8515,57,-1,-3,2,0
17985249,470,-8526,58,0,-4,2,0
17985254,450,-8526,48,0,-4,2,0
17985259,424,-8521,36,0,-4,2,0
17985264,403,-8510,31,-1,-2,2,0
17985269,391,-8493,34,-1,-1,2,0
17985274,387,-8467,52,-1,0,2,0
17985279,379,-8440,80,-1,0,3,0
17985284,357,-8407,112,-1,0,3,0
17985289,332,-8376,132,-1,0,3,0
17985294,306,-8349,147,-1,0,3,0
17985299,286,-8321,174,-1,0,3,0
17985304,267,-8294,205,-1,-2,3,0
17985309,252,-8268,229,-1,-4,3,0
17985314,235,-8249,241,-1,-5,3,0
17985319,220,-8232,236,-2,-6,3,0
17985324,196,-8221,217,-2,-7,3,0
17985329,167,-8210,204,-2,-7,3,0
17985334,137,-8202,202,-2,-6,2,0
17985339,111,-8188,197,-2,-5,3,0
17985344,94,-8174,193,-2,-4,2,0
17985349,87,-8164,185,-2,-3,2,0
17985354,82,-8164,176,-2,-2,2,0
17985359,76,-8172,167,-2,-2,2,0
17985364,67,-8185,167,-2,-1,2,0
17985369,58,-8196,179,-2,0,2,0
17985374,55,-8209,205,-2,1,2,0
17985379,63,-8213,230,-2,0,2,0
17985384,70,-8214,248,-2,-1,2,0
17985389,70,-8215,248,-2,-2,2,0
17985394,62,-8220,237,-3,-2,2,0
17985399,47,-8225,221,-3,-2,2,0
17985404,32,-8232,201,-3,0,2,0
17985409,21,-8243,188,-3,1,2,0
17985414,17,-8259,180,-3,2,2,0
17985419,28,-8279,171,-3,4,2,0
17985424,51,-8304,163,-3,4,2,0
17985429,78,-8326,157,-3,4,3,0
17985434,108,-8349,147,-3,2,3,0
17985439,132,-8367,147,-3,1,3,0
17985444,153,-8380,141,-2,0,3,0
17985449,171,-8391,133,-2,-1,3,0
17985454,184,-8411,122,-2,0,3,0
17985459,194,-8435,109,-2,0,3,0
17985464,205,-8462,100,-2,0,3,0
17985469,213,-8490,95,-2,0,3,0
17985474,223,-8519,94,-2,0,3,0
17985479,232,-8540,95,-2,0,3,0
17985484,242,-8553,92,-2,0,3,0
17985489,251,-8556,88,-2,-1,3,0
17985494,260,-8546,83,-2,-1,3,0
17985499,275,-8528,85,-2,-2,3,0
17985504,293,-8499,78,-2,-3,3,0
17985509,306,-8466,63,-1,-5,3,0
17985514,315,-8430,29,-1,-6,3,0
17985519,312,-8401,-6,-1,-6,3,0
17985524,301,-8381,-42,-1,-5,3,0
17985529,294,-8368,-76,-1,-3,3,0
17985534,297,-8357,-98,-1,-3,3,0
17985539,310,-8349,-112,0,-4,3,0
17985544,331,-8344,-109,0,-6,3,0
17985549,346,-8335,-103,0,-8,3,0
17985554,351,-8320,-95,0,-10,3,0
17985559,345,-8300,-88,0,-12,3,0
17985564,337,-8276,-78,0,-14,2,0
17985569,326,-8247,-65,1,-16,2,0
17985574,310,-8215,-51,1,-16,2,0
17985579,293,-8180,-50,1,-16,2,0
17985584,274,-8147,-54,1,-14,2,0
17985589,254,-8120,-63,1,-12,2,0
17985594,234,-8104,-66,1,-11,1,0
17985599,216,-8100,-64,1,-9,1,0
17985604,200,-8105,-65,2,-7,1,0
17985609,188,-8118,-64,2,-5,1,0
17985614,185,-8137,-57,2,-4,1,0
17985619,192,-8160,-31,2,-4,0,0
17985624,202,-8189,0,2,-5,0,0
17985629,214,-8217,39,2,-7,0,0
17985634,225,-8242,70,2,-9,0,0
17985639,231,-8261,90,2,-10,0,0
17985644,224,-8265,103,2,-11,-1,0
17985649,209,-8258,112,2,-10,-1,0
17985654,182,-8246,121,2,-9,-1,0
17985659,155,-8231,139,2,-6,-1,0
17985664,134,-8218,149,2,-4,-1,0
17985669,122,-8216,150,2,-1,-2,0
17985674,124,-8214,143,2,2,-2,0
17985679,135,-8217,138,2,4,-2,0
17985684,149,-8225,151,2,3,-2,0
17985689,160,-8227,172,2,1,-2,0
17985694,164,-8217,188,2,-2,-2,0
17985699,161,-8195,188,2,-3,-3,0
17985704,151,-8170,179,2,-3,-3,0
17985709,131,-8142,161,2,-3,-3,0
17985714,112,-8116,151,2,-1,-3,0
17985719,94,-8094,156,2,1,-3,0
17985724,92,-8087,157,2,3,-3,0
17985729,102,-8088,153,2,4,-3,0
17985734,112,-8097,147,2,5,-3,0
17985739,111,-8111,143,2,5,-4,0
17985744,104,-8124,149,2,6,-4,0
17985749,99,-8129,153,2,7,-4,0
17985754,101,-8124,160,2,7,-4,0
17985759,110,-8109,167,2,5,-4,0
17985764,121,-8082,157,2,3,-4,0
17985769,122,-8043,143,2,3,-4,0
17985774,114,-7998,123,2,3,-4,0
17985779,100,-7955,106,2,5,-4,0
17985784,90,-7922,97,2,6,-4,0
17985789,92,-7900,97,2,9,-4,0
17985794,111,-7893,103,1,10,-4,0
17985799,133,-7909,118,1,10,-4,0
17985804,144,-7955,136,1,11,-5,0
17985809,146,-8026,157,1,12,-5,0
17985814,148,-8110,172,1,13,-5,0
17985819,156,-8193,186,1,13,-5,0
17985824,173,-8272,203,1,13,-5,0
17985829,198,-8338,231,0,13,-5,0
17985834,228,-8386,248,0,12,-5,0
17985839,253,-8416,257,0,11,-5,0
17985844,270,-8431,247,0,8,-5,0
17985849,283,-8430,226,0,6,-5,0
17985854,295,-8411,203,0,4,-5,0
17985859,309,-8386,182,0,2,-4,0
17985864,323,-8359,169,0,1,-4,0
17985869,332,-8331,158,0,1,-4,0
17985874,336,-8305,148,0,1,-4,0
17985879,330,-8286,144,0,0,-4,0
17985884,323,-8276,148,0,0,-4,0
17985889,319,-8275,153,0,0,-4,0
17985894,325,-8282,162,0,0,-4,0
17985899,335,-8293,173,0,-2,-4,0
17985904,345,-8311,175,0,-4,-4,0
17985909,357,-8330,162,0,-5,-4,0
17985914,367,-8348,140,0,-6,-3,0
17985919,374,-8354,122,0,-7,-3,0
17985924,367,-8342,107,0,-8,-3,0
17985929,354,-8319,100,0,-7,-3,0
17985934,490,-9078,111,0,-6,-3,0
17985939,455,-8923,134,0,-7,-3,0
17985944,117,-8692,199,-1,-21,-1,0
17985949,49,-8844,194,-1,-12,-1,0
17985954,39,-8654,178,-1,6,-1,0
17985959,70,-8621,206,-1,2,0,0
17985964,10,-8593,204,-1,-2,1,0
17985969,7,-8532,248,-1,-5,1,0
17985974,59,-8508,241,0,-1,1,0
17985979,100,-8477,232,0,-3,1,0
17985984,231,-8452,200,0,-7,1,0
17985989,247,-8437,127,0,-6,1,0
17985994,244,-8421,107,0,-8,1,0
17985999,264,-8400,62,0,-7,0,0
17986004,198,-8388,40,0,-5,0,0
17986009,147,-8371,73,0,-6,1,0
17986014,143,-8360,60,0,-4,1,0
17986019,104,-8354,108,0,-4,1,0
17986024,109,-8347,147,0,-6,1,0
17986029,152,-8342,140,0,-5,1,0
17986034,150,-8341,186,0,-3,1,0
17986039,163,-8332,190,0,-3,0,0
17986044,184,-8327,185,0,-2,0,0
17986049,146,-8326,210,0,-1,0,0
17986054,123,-8322,190,0,-2,0,0
17986059,115,-8320,182,0,-2,0,0
17986064,92,-8323,183,0,-2,0,0
17986069,103,-8320,155,0,-3,0,0
17986074,139,-8321,143,0,-3,0,0
17986079,159,-8318,144,0,-3,0,0
17986084,186,-8315,143,0,-4,0,0
17986089,207,-8316,153,0,-4,0,0
17986094,200,-8314,164,0,-3,0,0
17986099,189,-8313,174,0,-3,0,0
17986104,172,-8311,177,0,-2,0,0
17986109,151,-8311,171,0,-2,0,0
17986114,134,-8309,166,0,-1,0,0
17986119,138,-8308,156,0,0,0,0
17986124,154,-8307,148,0,1,0,0
17986129,172,-8306,150,0,2,0,0
17986134,196,-8304,152,0,2,0,0
17986139,212,-8301,164,0,1,0,0
17986144,212,-8302,174,0,0,0,0
17986149,214,-8302,172,0,-1,0,0
17986154,204,-8302,162,0,-1,0,0
17986159,192,-8303,154,0,-2,0,0
17986164,193,-8304,134,0,-2,0,0
17986169,197,-8305,116,0,-2,0,0
17986174,205,-8307,107,0,-2,0,0
17986179,230,-8308,95,0,-2,0,0
17986184,249,-8307,97,0,-3,0,0
17986189,256,-8305,105,0,-4,0,0
17986194,256,-8303,99,0,-5,0,0
17986199,241,-8304,101,0,-5,0,0
17986204,212,-8303,98,1,-4,0,0
17986209,193,-8304,98,1,-3,0,0
17986214,167,-8306,101,0,0,0,0
17986219,140,-8306,114,0,1,0,0
17986224,141,-8305,133,0,3,0,0
17986229,146,-8304,165,0,3,0,0
17986234,157,-8303,208,0,2,0,0
17986239,183,-8298,252,0,-1,0,0
17986244,191,-8295,287,0,-3,-1,0
17986249,192,-8293,316,0,-4,-1,0
17986254,201,-8294,333,0,-6,-1,0
17986259,193,-8299,344,0,-7,-1,0
17986264,170,-8303,351,0,-8,-1,0
17986269,151,-8307,347,0,-9,-1,0
17986274,128,-8303,352,0,-8,-1,0
17986279,113,-8302,356,0,-7,-1,0
17986284,119,-8301,363,0,-7,-1,0
17986289,125,-8300,382,0,-7,-1,0
17986294,136,-8298,390,0,-7,-1,0
17986299,157,-8296,389,0,-8,-1,0
17986304,170,-8297,392,0,-8,-1,0
17986309,177,-8297,385,0,-9,-1,0
17986314,178,-8297,379,0,-9,-1,0
17986319,162,-8300,372,0,-8,-1,0
17986324,147,-8302,363,-1,-8,-1,0
17986329,139,-8302,361,-1,-6,-1,0
17986334,123,-8300,367,-1,-5,-1,0
17986339,123,-8300,373,-1,-4,-1,0
17986344,136,-8299,373,-1,-3,-1,0
17986349,151,-8297,380,-1,-3,-1,0
17986354,178,-8299,377,-1,-3,-1,0
17986359,202,-8300,374,-1,-3,-1,0
17986364,219,-8298,368,-1,-4,-1,0
17986369,238,-8298,356,-1,-5,-1,0
17986374,249,-8299,342,-1,-6,-1,0
17986379,247,-8299,333,-1,-6,-1,0
17986384,255,-8301,325,-1,-6,-1,0
17986389,262,-8302,325,-1,-6,-1,0
17986394,261,-8301,330,-1,-6,-1,0
17986399,267,-8303,326,-1,-7,-1,0
17986404,271,-8302,323,-1,-7,-1,0
17986409,269,-8301,318,-1,-7,-1,0
17986414,279,-8300,316,-1,-6,-1,0
17986419,282,-8301,320,-1,-6,-1,0
17986424,278,-8300,317,-1,-6,-1,0
17986429,278,-8297,315,-1,-6,-1,0
17986434,277,-8295,304,-1,-5,-1,0
17986439,275,-8291,296,-1,-4,-1,0
17986444,285,-8290,288,-1,-4,-1,0
17986449,289,-8291,280,-1,-3,-1,0
17986454,292,-8293,278,-1,-4,-1,0
17986459,303,-8293,279,-1,-3,-1,0
17986464,305,-8297,286,-1,-3,-1,0
17986469,307,-8297,287,-1,-3,-1,0
17986474,307,-8299,287,-1,-2,-1,0
17986479,303,-8301,294,-1,-2,-1,0
17986484,300,-8301,296,-1,-3,-1,0
17986489,300,-8301,297,-1,-3,-1,0
17986494,294,-8302,298,-1,-3,-1,0
17986499,288,-8304,289,-1,-3,-1,0
17986504,287,-8305,279,-1,-3,-1,0
17986509,289,-8305,275,-1,-2,-1,0
17986514,292,-8304,267,-1,-2,-1,0
17986519,297,-8304,261,-1,-2,-1,0
17986524,290,-8302,257,-1,-2,-1,0
17986529,289,-8301,252,-1,-2,-1,0
17986534,284,-8301,238,-1,-1,-1,0
17986539,281,-8301,224,-1,0,-1,0
17986544,288,-8299,207,-1,0,-1,0
17986549,295,-8299,189,-1,1,-1,0
17986554,309,-8299,173,-1,1,-1,0
17986559,328,-8299,153,-1,0,-1,0
17986564,344,-8301,136,-1,-1,-1,0
17986569,355,-8300,126,-1,-1,-1,0
17986574,369,-8299,112,-1,-1,-1,8
17986579,377,-8298,97,-1,0,-1,8
17986584,385,-8300,83,-1,0,-1,8
17986589,397,-8303,74,-1,0,-1,8
17986594,408,-8302,69,-1,0,-1,8
17986599,418,-8301,71,-1,0,-1,8
17986604,428,-8301,81,-1,-1,-1,8
17986609,433,-8300,94,-1,-1,-1,8
17986614,435,-8302,113,-1,-1,-1,8
17986619,435,-8304,129,-1,-1,-1,8
17986624,430,-8303,138,-1,-1,-1,8
17986629,424,-8304,141,-1,-1,-1,8
17986634,417,-8303,138,-1,-1,-1,8
17986639,407,-8303,134,-1,-1,-1,8
17986644,400,-8300,128,-1,-1,-1,8
17986649,391,-8301,127,-1,0,-1,8
17986654,382,-8302,121,-1,0,-1,8
17986659,386,-8301,124,-1,1,0,8
17986664,392,-8301,128,-1,0,0,8
17986669,398,-8300,136,-1,0,0,8
17986674,402,-8297,141,-1,-1,0,8
17986679,408,-8298,146,-1,-1,0,8
17986684,411,-8299,152,-1,0,0,8
17986689,420,-8301,156,-1,1,0,8
17986694,428,-8301,156,-1,2,0,8
17986699,434,-8301,154,-1,3,0,8
17986704,442,-8303,149,-1,3,0,8
17986709,455,-8304,141,-1,4,0,8
17986714,462,-8305,138,-1,4,0,8
17986719,475,-8303,138,-1,5,0,8
17986724,482,-8302,144,-1,5,0,8
17986729,485,-8303,142,-1,5,0,8
17986734,491,-8302,138,-1,6,0,8
17986739,492,-8304,137,-1,6,0,8
17986744,500,-8305,145,-1,7,0,8
17986749,506,-8305,155,-1,7,0,8
17986754,510,-8306,168,-1,7,1,8
17986759,516,-8308,177,-1,6,1,8
17986764,524,-8307,190,-1,6,1,8
17986769,528,-8306,195,-1,6,1,8
17986774,534,-8304,203,-1,5,1,8
17986779,538,-8300,206,-1,3,1,8
17986784,537,-8301,203,-1,3,1,8
17986789,533,-8301,195,-1,2,1,8
17986794,531,-8301,185,-1,3,1,8
17986799,521,-8303,180,-1,3,1,8
17986804,509,-8304,183,-1,4,1,8
17986809,497,-8303,192,-1,4,1,8
17986814,483,-8301,210,-1,4,1,8
17986819,466,-8302,241,-1,4,1,8
17986824,453,-8304,269,-1,5,1,8
17986829,441,-8303,288,-1,5,1,8
17986834,434,-8306,305,-1,6,1,8
17986839,432,-8306,317,-1,6,2,8
17986844,426,-8302,318,-1,7,1,8
17986849,423,-8303,307,-1,6,2,8
17986854,408,-8304,290,-1,6,1,8
17986859,390,-8304,271,-1,5,1,8
17986864,376,-8305,255,-1,3,1,8
17986869,361,-8303,239,-1,1,2,8
17986874,352,-8302,224,-1,0,2,8
17986879,350,-8302,217,-1,2,2,8
17986884,346,-8301,206,-1,5,2,8
17986889,347,-8303,195,-1,10,2,8
17986894,330,-8303,192,-1,14,2,8
17986899,297,-8303,185,-1,17,1,8
17986904,242,-8305,183,-1,19,1,8
17986909,172,-8306,208,-2,21,1,8
17986914,99,-8308,237,-2,22,1,8
17986919,36,-8309,279,-2,23,1,8
17986924,-4,-8309,321,-2,23,1,8
17986929,-21,-8308,363,-2,22,1,8
17986934,-13,-8305,387,-2,20,1,8
17986939,6,-8304,392,-2,17,1,8
17986944,19,-8302,389,-2,14,1,8
17986949,33,-8300,362,-2,12,1,8
17986954,31,-8299,323,-2,11,1,8
17986959,18,-8301,281,-2,10,1,8
17986964,8,-8303,231,-2,9,1,8
17986969,-7,-8308,194,-2,9,1,8
17986974,-21,-8307,168,-2,8,0,8
17986979,-35,-8307,149,-2,8,0,8
17986984,-45,-8307,151,-2,7,0,8
17986989,-56,-8305,166,-2,7,0,8
17986994,-64,-8307,188,-2,5,0,8
17986999,-84,-8306,210,-2,3,0,8
17987004,-116,-8305,233,-2,0,0,8
17987009,-160,-8304,251,-2,-1,-1,8
17987014,-211,-8305,266,-2,-1,-1,8
17987019,-261,-8305,276,-2,-1,-1,8
17987024,-296,-8306,284,-2,0,-1,8
17987029,-326,-8307,275,-2,0,-1,8
17987034,-349,-8310,296,-2,-1,-1,8
17987039,-380,-8312,324,-2,0,-2,8
17987044,-420,-8314,375,-3,1,-2,8
17987049,-465,-8318,440,-3,1,-2,8
17987054,-522,-8320,519,-3,2,-3,8
17987059,-586,-8322,607,-3,4,-3,8
17987064,-649,-8318,691,-4,6,-3,8
17987069,-705,-8317,774,-4,7,-4,8
17987074,-766,-8318,849,-4,9,-4,8
17987079,-822,-8317,911,-4,9,-4,8
17987084,-872,-8317,962,-5,10,-5,8
17987089,-926,-8314,1003,-5,12,-5,8
17987094,-971,-8312,1034,-5,13,-6,8
17987099,-1014,-8312,1045,-6,12,-6,8
17987104,-1060,-8312,1046,-6,10,-7,8
17987109,-1107,-8310,1026,-6,8,-7,8
17987114,-1164,-8310,997,-6,8,-7,8
17987119,-1219,-8307,963,-7,11,-8,8
17987124,-1258,-8305,929,-7,16,-9,8
17987129,-1283,-8301,914,-7,20,-9,8
17987134,-1300,-8299,911,-8,22,-10,8
17987139,-1306,-8298,907,-8,23,-10,8
17987144,-1320,-8295,908,-8,23,-11,8
17987149,-1343,-8292,909,-8,23,-11,8
17987154,-1365,-8283,911,-8,25,-12,8
17987159,-1381,-8278,914,-9,25,-12,8
17987164,-1409,-8275,910,-9,25,-13,8
17987169,-1452,-8274,910,-9,29,-13,8
17987174,-1489,-8267,922,-10,35,-14,8
17987179,-1495,-8260,933,-10,43,-14,8
17987184,-1462,-8252,940,-10,49,-15,8
17987189,-1378,-8243,914,-10,50,-15,8
17987194,-1271,-8233,831,-10,46,-16,8
17987199,-1184,-8225,696,-10,42,-16,8
17987204,-1110,-8217,546,-9,42,-17,8
17987209,-1025,-8213,383,-9,44,-17,8
17987214,-944,-8207,213,-9,45,-18,8
17987219,-889,-8207,54,-9,43,-18,8
17987224,-854,-8208,-85,-9,41,-19,8
17987229,-830,-8209,-210,-9,38,-19,8
17987234,-847,-8205,-313,-9,34,-20,8
17987239,-893,-8203,-417,-9,33,-20,8
17987244,-934,-8200,-501,-8,36,-21,8
17987249,-954,-8190,-574,-8,38,-22,8
17987254,-958,-8181,-662,-7,35,-22,8
17987259,-935,-8172,-753,-7,31,-22,8
17987264,-895,-8162,-850,-6,27,-23,8
17987269,-831,-8151,-942,-5,25,-23,8
17987274,-751,-8142,-1033,-5,26,-24,8
17987279,-667,-8132,-1116,-4,28,-24,8
17987284,-585,-8127,-1201,-3,30,-24,8
17987289,-522,-8127,-1315,-3,31,-25,8
17987294,-481,-8124,-1422,-3,30,-25,8
17987299,-441,-8119,-1531,-3,31,-25,8
17987304,-379,-8112,-1619,-3,32,-25,8
17987309,-297,-8100,-1648,-3,33,-25,8
17987314,-184,-8089,-1654,-2,32,-25,8
17987319,-50,-8077,-1631,-1,29,-26,8
17987324,83,-8065,-1606,0,24,-26,8
17987329,190,-8053,-1624,0,23,-26,8
17987334,293,-8045,-1674,1,29,-26,8
17987339,419,-8035,-1733,2,34,-26,8
17987344,574,-8027,-1864,3,31,-26,8
17987349,745,-8022,-2055,4,23,-26,8
17987354,899,-8016,-2233,5,18,-25,8
17987359,1026,-8011,-2392,6,15,-24,8
17987364,1152,-8005,-2534,6,15,-24,8
17987369,1293,-8000,-2655,7,14,-23,8
17987374,1446,-7995,-2742,8,10,-22,8
17987379,1622,-7986,-2789,9,5,-22,8
17987384,1771,-7991,-2788,10,-2,-21,8
17987389,1886,-7987,-2700,10,-8,-22,8
17987394,1994,-7969,-2533,10,-11,-24,8
17987399,2136,-7948,-2385,10,-9,-25,8
17987404,2678,-7963,-2643,13,-5,-22,8
17987409,3062,-7949,-2709,15,2,-19,8
17987414,3378,-7923,-2775,17,-11,-18,8
17987419,3770,-7920,-3217,17,-15,-18,8
17987424,4118,-7915,-3463,18,-5,-18,8
17987429,4381,-7919,-3647,18,-6,-17,8
17987434,4498,-7916,-3843,19,-4,-16,8
17987439,4687,-7911,-3881,19,-2,-15,8
17987444,4879,-7902,-3924,21,-2,-13,8
17987449,5109,-7888,-3954,23,-9,-10,8
17987454,5490,-7877,-3960,25,-18,-8,8
17987459,5867,-7861,-4018,27,-26,-7,8
17987464,6261,-7845,-4047,28,-37,-5,8
17987469,6649,-7829,-4063,29,-46,-4,8
17987474,6934,-7811,-4062,30,-50,-3,8
17987479,7156,-7794,-3970,31,-51,-1,8
17987484,7350,-7779,-3820,32,-52,0,8
17987489,7481,-7756,-3621,33,-55,2,8
17987494,7590,-7730,-3365,33,-62,4,8
17987499,7703,-7703,-3104,35,-69,6,8
17987504,7812,-7679,-2827,36,-76,8,8
17987509,7918,-7654,-2550,37,-83,10,8
17987514,8040,-7629,-2275,37,-89,12,8
17987519,8128,-7602,-1977,37,-93,13,8
17987524,8171,-7576,-1662,37,-96,15,8
17987529,8183,-7550,-1328,37,-98,16,8
17987534,8145,-7526,-964,37,-98,17,8
17987539,8062,-7504,-595,38,-98,18,8
17987544,8000,-7487,-203,38,-99,20,8
17987549,8031,-7474,257,37,-99,22,8
17987554,8031,-7449,631,36,-96,24,8
17987559,8083,-7424,978,36,-96,26,8
17987564,8167,-7398,1341,36,-93,27,8
17987569,8224,-7373,1670,35,-88,28,8
17987574,8239,-7351,1978,34,-85,29,8
17987579,8181,-7329,2250,33,-82,31,8
17987584,8062,-7311,2496,32,-79,32,8
17987589,7858,-7293,2754,31,-73,33,8
17987594,7659,-7277,3035,31,-67,35,8
17987599,7473,-7259,3296,30,-59,36,8
17987604,7245,-7244,3533,29,-53,38,8
17987609,7041,-7228,3851,29,-49,39,8
17987614,6808,-7209,4104,28,-42,40,8
17987619,6551,-7188,4284,28,-37,42,8
17987624,6304,-7179,4580,27,-32,43,8
17987629,6017,-7174,4877,25,-27,43,8
17987634,5734,-7165,5098,23,-28,44,8
17987639,5466,-7162,5350,21,-32,45,8
17987644,5163,-7157,5627,20,-38,45,8
17987649,4818,-7156,5900,19,-45,46,8
17987654,4470,-7154,6150,17,-49,47,8
17987659,4143,-7151,6358,16,-50,48,8
17987664,3829,-7152,6510,15,-48,48,8
17987669,3546,-7154,6632,14,-46,49,8
17987674,3292,-7158,6711,12,-43,49,8
17987679,3032,-7163,6760,11,-40,49,8
17987684,2797,-7167,6752,9,-37,49,8
17987689,2581,-7164,6679,8,-32,49,8
17987694,2338,-7169,6630,7,-28,50,8
17987699,2003,-7192,6711,5,-25,49,8
17987704,1541,-7203,6878,2,-24,48,8
17987709,1088,-7204,6974,-1,-23,47,8
17987714,644,-7206,7091,-2,-17,46,8
17987719,229,-7214,7213,-3,-11,46,8
17987724,-166,-7227,7312,-4,-7,46,8
17987729,-581,-7247,7385,-5,-4,46,8
17987734,-1006,-7274,7353,-7,-2,45,8
17987739,-1421,-7309,7296,-9,2,44,8
17987744,-1839,-7340,7252,-11,9,43,8
17987749,-2268,-7368,7235,-14,18,41,8
17987754,-2687,-7393,7283,-16,28,40,8
17987759,-3076,-7413,7342,-18,38,39,8
17987764,-3434,-7434,7388,-20,46,37,8
17987769,-3763,-7457,7373,-21,52,36,8
17987774,-4029,-7480,7268,-23,55,34,8
17987779,-4280,-7502,7118,-25,55,32,8
17987784,-4550,-7525,6912,-27,55,30,8
17987789,-4833,-7546,6703,-28,56,27,8
17987794,-5131,-7563,6492,-30,59,24,8
17987799,-5436,-7577,6254,-31,64,22,8
17987804,-5720,-7593,6006,-31,66,19,8
17987809,-6020,-7604,5695,-32,66,17,8
17987814,-6295,-7620,5376,-32,64,15,8
17987819,-6517,-7630,4995,-34,62,13,8
17987824,-6738,-7648,4603,-36,64,12,8
17987829,-7031,-7655,4113,-37,68,10,8
17987834,-7356,-7679,3560,-38,69,6,8
17987839,-7574,-7696,3210,-38,71,3,8
17987844,-7866,-7714,2821,-38,79,0,8
17987849,-8052,-7723,2458,-39,82,-2,8
17987854,-8177,-7725,2159,-39,86,-4,8
17987859,-8139,-7722,1804,-39,90,-6,8
17987864,-8030,-7718,1500,-38,95,-9,8
17987869,-7846,-7713,1192,-38,99,-12,8
17987874,-7608,-7709,831,-37,102,-14,8
17987879,-7461,-7711,481,-37,103,-17,8
17987884,-7266,-7708,150,-36,101,-20,8
17987889,-7120,-7704,-185,-35,99,-22,8
17987894,-6990,-7703,-517,-34,94,-24,8
17987899,-6804,-7693,-839,-33,90,-25,8
17987904,-6607,-7681,-1156,-33,87,-27,8
17987909,-6360,-7667,-1439,-32,83,-28,8
17987914,-6071,-7655,-1701,-31,80,-30,8
17987919,-5753,-7639,-1937,-29,77,-32,8
17987924,-5432,-7622,-2157,-28,72,-33,8
17987929,-5128,-7605,-2349,-27,66,-35,8
17987934,-4846,-7590,-2509,-25,62,-36,8
17987939,-4598,-7578,-2674,-24,58,-37,8
17987944,-4359,-7572,-2821,-23,55,-38,8
17987949,-4130,-7569,-2952,-22,52,-39,8
17987954,-3909,-7562,-3073,-21,48,-40,8
17987959,-3681,-7550,-3170,-20,46,-41,8
17987964,-3457,-7542,-3264,-19,45,-41,8
17987969,-3228,-7532,-3339,-17,45,-42,8
17987974,-2990,-7523,-3380,-16,47,-43,8
17987979,-2756,-7512,-3407,-15,50,-44,8
17987984,-2500,-7502,-3415,-14,53,-44,8
17987989,-2228,-7489,-3401,-13,55,-45,8
17987994,-1953,-7474,-3376,-12,55,-45,8
17987999,-1659,-7462,-3346,-11,55,-45,8
17988004,-1350,-7457,-3322,-10,55,-45,8
17988009,-1034,-7451,-3313,-8,55,-44,8
17988014,-706,-7441,-3333,-7,53,-44,8
17988019,-380,-7439,-3417,-5,50,-43,8
17988024,-51,-7441,-3563,-3,47,-42,8
17988029,253,-7444,-3715,-2,44,-41,8
17988034,614,-7436,-3969,-1,41,-40,8
17988039,1011,-7448,-4273,1,40,-38,8
17988044,1455,-7452,-4439,2,39,-38,8
17988049,1944,-7453,-4566,3,39,-39,8
17988054,2423,-7459,-4653,4,38,-40,8
17988059,3065,-7469,-4661,5,34,-40,8
17988064,3627,-7485,-4653,6,32,-37,8
17988069,3959,-7506,-4638,8,29,-35,8
17988074,4379,-7525,-4629,10,22,-34,8
17988079,4794,-7542,-4704,12,20,-34,8
17988084,4995,-7563,-4710,13,18,-32,8
17988089,5217,-7596,-4761,14,7,-31,8
17988094,5303,-7621,-4803,16,1,-28,8
17988099,5470,-7644,-4802,17,-3,-26,8
17988104,5696,-7660,-4820,18,-2,-24,8
17988109,5997,-7670,-4788,19,-4,-22,8
17988114,6319,-7681,-4731,21,-12,-21,8
17988119,6583,-7691,-4672,22,-21,-19,8
17988124,6833,-7697,-4608,23,-31,-18,8
17988129,6987,-7707,-4536,24,-40,-16,8
17988134,7050,-7715,-4461,26,-49,-15,8
17988140,7083,-7728,-4373,27,-57,-13,8
17988144,7025,-7736,-4266,28,-62,-12,8
17988149,6939,-7745,-4104,28,-67,-10,8
17988154,6855,-7751,-3877,29,-69,-9,8
17988159,6736,-7754,-3584,29,-70,-7,8
17988164,6556,-7758,-3293,30,-72,-7,8
17988170,6363,-7762,-2948,30,-75,-6,8
17988174,6180,-7768,-2522,31,-78,-5,8
17988180,5975,-7778,-2076,30,-78,-4,8
17988184,5823,-7792,-1583,30,-75,-3,8
17988189,5717,-7798,-1038,29,-69,-1,8
17988195,5612,-7802,-532,28,-63,-1,8
17988199,5536,-7812,-52,27,-59,0,8
17988204,5437,-7822,399,26,-56,0,8
17988209,5294,-7838,798,25,-54,0,8
17988214,5108,-7859,1158,24,-52,1,8
17988219,4901,-7877,1481,22,-51,1,8
17988224,4687,-7898,1791,21,-47,2,8
17988230,4492,-7911,2079,20,-42,3,8
17988235,4326,-7926,2413,19,-36,3,8
17988239,4202,-7941,2806,18,-30,4,8
17988244,4096,-7957,3166,18,-27,5,8
17988250,4017,-7971,3446,17,-27,6,8
17988254,3958,-7989,3664,17,-30,7,8
17988259,3889,-8007,3793,16,-32,7,8
17988264,3831,-8028,3835,15,-33,8,8
17988269,3769,-8047,3829,14,-30,8,8
17988275,3722,-8062,3795,12,-24,9,8
17988279,3722,-8073,3759,11,-17,10,8
17988284,3750,-8083,3732,9,-10,11,8
17988289,3821,-8092,3703,8,-6,12,8
17988294,3921,-8093,3661,8,-4,12,8
17988300,4024,-8095,3593,7,-2,13,8
17988305,4139,-8095,3487,7,-1,14,8
17988309,4241,-8096,3350,6,0,15,8
17988315,4320,-8096,3185,5,1,16,8
17988320,4387,-8090,3006,5,3,17,8
17988324,4440,-8085,2831,4,5,18,8
17988329,4461,-8079,2651,3,5,20,8
17988335,4464,-8070,2462,3,6,20,8
17988339,4450,-8059,2268,3,6,21,8
17988345,4410,-8048,2074,3,5,22,8
17988350,4342,-8038,1886,3,2,23,8
17988354,4235,-8029,1704,2,-1,24,8
17988359,4079,-8020,1540,2,-4,24,8
17988365,3896,-8016,1397,2,-6,25,8
17988369,3691,-8011,1277,2,-7,25,8
17988375,3461,-8006,1180,2,-7,26,8
17988380,3222,-8002,1104,2,-7,27,8
17988384,2979,-7998,1050,2,-6,27,8
17988390,2725,-7997,1018,2,-5,27,8
17988395,2463,-7993,1005,1,-5,27,8
17988400,2183,-7991,1007,1,-5,27,8
17988404,1878,-7993,1014,1,-4,27,8
17988409,1554,-8002,1025,1,-2,26,8
17988414,1216,-8020,1036,1,0,26,8
17988420,838,-8044,1051,0,0,25,8
17988424,463,-8060,1059,0,-1,24,8
17988430,144,-8071,1038,0,-1,23,8
17988435,-152,-8074,1006,0,0,23,8
17988440,-458,-8080,991,0,0,22,8
17988445,-768,-8089,972,0,-2,21,8
17988450,-1037,-8095,935,0,-3,21,8
17988455,-1253,-8104,883,0,-2,20,8
17988460,-1450,-8120,828,0,0,19,8
17988465,-1614,-8135,767,0,0,18,8
17988470,-1746,-8145,696,0,0,18,8
17988475,-1879,-8157,643,-1,1,17,8
17988480,-1994,-8168,589,-1,1,16,8
17988485,-2098,-8179,552,-1,2,15,8
17988490,-2202,-8193,532,-1,2,14,8
17988495,-2290,-8205,508,-1,1,13,8
17988500,-2369,-8218,485,-1,0,12,8
17988505,-2443,-8230,458,-1,-2,11,8
17988510,-2492,-8239,423,-1,-3,11,8
17988515,-2518,-8253,387,-1,-3,10,8
17988520,-2525,-8264,346,-1,-3,9,8
17988525,-2501,-8273,305,-1,-4,8,8
17988530,-2464,-8280,272,-1,-3,8,8
17988535,-2417,-8286,249,-1,-3,7,8
17988540,-2347,-8292,238,-1,-2,6,8
17988545,-2277,-8294,243,-1,-1,5,8
17988550,-2205,-8296,257,-1,-1,4,8
17988555,-2130,-8299,272,-1,-1,4,8
17988560,-2057,-8305,293,-1,-1,3,8
17988565,-1976,-8307,313,-1,-1,3,8
17988570,-1885,-8310,340,-1,-1,2,8
17988575,-1790,-8313,370,-1,-1,2,0
17988580,-1685,-8314,397,-1,-1,1,0
17988585,-1570,-8312,428,-1,0,1,0
17988590,-1447,-8313,464,-1,1,1,0
17988595,-1321,-8311,505,-1,1,0,0
17988600,-1199,-8308,534,-1,0,0,0
17988605,-1085,-8308,545,-1,0,0,0
17988610,-980,-8306,540,-1,0,0,0
17988615,-883,-8303,514,-1,1,-1,0
17988620,-785,-8307,475,-1,2,-1,0
17988625,-687,-8310,425,-1,2,-1,0
17988630,-590,-8311,380,-1,2,-1,0
17988635,-493,-8310,331,-2,1,-1,0
17988640,-396,-8308,278,-1,1,-1,0
17988645,-299,-8308,238,-1,1,-1,0
17988650,-207,-8305,205,-1,1,-1,0
17988655,-117,-8302,176,-1,0,-1,0
17988660,-47,-8301,151,-1,-1,-1,0
17988665,11,-8301,127,-1,-2,-1,0
17988670,57,-8299,114,-1,-3,-1,0
17988675,95,-8299,111,-1,-3,-1,0
17988680,126,-8300,105,-1,-4,-1,0
17988685,151,-8303,111,-1,-3,-1,0
17988690,173,-8301,112,-1,-2,-1,0
17988695,204,-8300,121,-1,-1,-1,0
17988700,233,-8300,133,-1,0,-1,0
17988705,258,-8300,138,-1,0,-1,0
17988710,282,-8300,139,-1,0,-1,0
17988715,300,-8297,135,-1,1,-1,0
17988720,325,-8299,133,0,2,-1,0
17988725,355,-8298,125,0,2,-1,0
17988730,385,-8297,103,0,2,-1,0
17988735,417,-8300,90,0,2,-1,0
17988740,443,-8299,78,0,1,-1,0
17988745,462,-8298,73,0,0,-1,0
17988750,473,-8294,76,0,-1,-1,0
17988755,478,-8294,76,0,-1,-1,0
17988760,479,-8296,81,0,-2,-1,0
17988765,473,-8298,83,0,-4,-1,0
17988770,459,-8300,88,0,-5,0,0
17988775,438,-8301,93,0,-5,0,0
17988780,418,-8303,105,0,-4,0,0
17988785,400,-8303,118,0,-3,0,0
17988790,383,-8302,144,0,-3,0,0
17988795,371,-8304,177,0,-2,0,0
17988800,367,-8307,215,0,-2,0,0
17988805,363,-8307,246,0,-2,0,0
17988810,373,-8306,269,0,-2,0,0
17988815,379,-8309,282,0,-3,0,0
17988820,383,-8307,291,0,-2,0,0
17988825,391,-8308,298,0,-2,0,0
17988830,395,-8308,303,0,-1,0,0
17988835,398,-8306,312,0,-1,0,0
17988840,402,-8309,319,0,-1,0,0
17988845,404,-8307,327,0,-1,0,0
17988850,405,-8306,334,0,-1,0,0
17988855,408,-8305,336,0,-1,0,0
17988860,408,-8304,339,0,-1,0,0
17988865,410,-8303,336,0,-2,0,0
17988870,406,-8302,334,0,-2,0,0
17988875,391,-8304,324,0,-3,0,0
17988880,378,-8300,321,0,-2,0,0
17988885,367,-8301,317,0,-2,0,0
17988890,354,-8300,314,0,-2,0,0
17988895,344,-8303,311,0,-2,0,0
17988900,332,-8303,301,0,-2,0,0
17988905,322,-8304,287,0,-2,0,0
17988910,316,-8303,287,0,-2,0,0
17988915,313,-8304,284,0,-2,0,0
17988920,309,-8307,286,0,-2,0,0
17988925,306,-8309,289,0,-1,0,0
17988930,303,-8306,307,0,-1,0,0
17988935,300,-8306,330,0,-1,0,0
17988940,295,-8304,355,0,-2,0,0
17988945,289,-8304,373,0,-2,0,0
17988950,284,-8303,384,0,-3,0,0
17988955,277,-8302,399,0,-3,0,0
17988960,272,-8302,405,0,-3,0,0
17988965,269,-8305,406,0,-2,0,0
17988970,267,-8308,409,0,-2,0,0
17988975,263,-8309,414,0,-1,0,0
17988980,253,-8308,420,0,0,0,0
17988985,241,-8306,429,0,0,0,0
17988990,233,-8304,433,0,0,0,0
17988995,229,-8304,432,0,-1,0,0
17989000,229,-8303,422,0,-1,0,0
17989005,236,-8300,400,0,-1,0,0
17989010,244,-8302,370,0,-1,0,0
17989015,254,-8301,342,0,-1,0,0
17989020,257,-8301,327,0,-2,0,0
17989025,252,-8301,319,0,-2,0,0
17989030,243,-8302,316,0,-2,0,0
17989035,233,-8305,321,0,-2,0,0
17989040,219,-8306,332,0,-1,0,0
17989045,212,-8307,348,0,-1,0,0
17989050,210,-8308,369,0,-1,0,0
17989055,211,-8309,388,0,-1,0,0
17989060,213,-8308,410,0,-1,0,0
17989065,212,-8305,441,0,-1,0,0
17989070,212,-8304,466,-1,0,0,0
17989075,214,-8303,499,-1,0,0,0
17989080,213,-8302,527,-1,0,0,0
17989085,207,-8301,556,-1,-1,0,0
17989090,198,-8302,579,-1,-1,0,0
17989095,189,-8302,596,-1,0,0,0
17989100,180,-8302,595,-1,0,0,0
17989105,180,-8303,594,-1,1,0,0
17989110,185,-8306,588,-1,1,0,0
17989115,192,-8306,576,-1,0,0,0
17989120,203,-8304,557,-1,0,0,0
17989125,216,-8302,540,-1,0,0,0
17989130,224,-8301,528,-1,-1,-1,0
17989135,230,-8297,516,-1,-1,-1,0
17989140,230,-8296,506,-1,-1,-1,0
17989145,227,-8296,493,-1,-1,-1,0
17989150,227,-8297,477,-1,-1,-1,0
17989155,225,-8298,462,-1,-2,-1,0
17989160,220,-8298,447,-1,-2,-1,0
17989165,209,-8298,432,-1,-2,-1,0
17989170,200,-8300,419,-1,-2,-1,0
17989175,195,-8300,407,-2,-2,-1,0
17989180,190,-8301,396,-2,-2,-1,0
17989185,187,-8300,394,-2,-2,-1,0
17989190,183,-8298,400,-2,-1,-1,0
17989195,184,-8299,399,-2,-1,-1,0
17989200,183,-8296,391,-2,-1,-1,0
17989205,192,-8297,378,-2,1,-1,0
17989210,207,-8295,370,-2,1,-1,0
17989215,222,-8295,365,-2,1,-1,0
17989220,229,-8297,368,-2,0,-1,0
17989225,230,-8298,373,-2,0,-1,0
17989230,230,-8299,382,-2,1,-1,0
17989235,238,-8300,402,-2,1,-1,0
17989240,244,-8299,416,-2,1,-1,0
17989245,253,-8299,418,-2,1,-1,0
17989250,262,-8299,414,-2,0,-1,0
17989255,271,-8301,402,-2,0,-1,0
17989260,282,-8301,388,-2,0,-1,0
17989265,289,-8301,369,-2,0,-1,0
17989270,299,-8301,353,-2,1,-1,0
17989275,313,-8301,346,-2,1,-1,0
17989280,323,-8299,343,-2,1,-1,0
17989285,328,-8297,341,-2,1,-1,0
17989290,334,-8297,337,-2,2,-1,0
17989295,339,-8295,337,-2,1,-1,0
17989300,332,-8297,326,-2,1,-1,0
17989305,320,-8297,310,-2,0,-1,0
17989310,309,-8297,303,-2,0,-1,0
17989315,300,-8299,300,-2,0,-1,0
17989320,295,-8297,301,-2,0,-1,0
17989325,294,-8297,310,-2,-1,-1,0
17989330,298,-8299,328,-2,-1,-1,0
17989335,307,-8299,351,-2,-2,-1,0
17989340,320,-8300,364,-2,-3,-1,0
17989345,329,-8299,370,-2,-5,-1,0
17989350,330,-8296,361,-2,-7,-1,0
17989355,318,-8297,345,-2,-8,-1,0
17989360,305,-8299,330,-2,-7,-1,0
17989365,289,-8299,318,-2,-6,-1,0
17989370,271,-8303,311,-2,-5,-1,0
17989375,257,-8302,305,-2,-5,-1,0
17989380,250,-8302,303,-2,-4,-1,0
17989385,255,-8301,286,-2,-4,-1,0
17989390,268,-8300,263,-2,-4,-1,0
17989395,290,-8300,220,-2,-4,-1,0
17989400,303,-8299,169,-2,-5,-1,0
17989405,304,-8298,111,-1,-6,-1,0
17989410,297,-8299,55,-1,-6,-1,0
17989415,274,-8298,-9,-1,-4,-1,0
17989420,229,-8299,-77,-1,-2,-1,0
17989425,189,-8301,-132,-1,1,-1,0
17989430,168,-8306,-165,-1,3,-1,0
17989435,163,-8310,-173,-1,3,-1,0
17989440,175,-8310,-163,-1,2,0,0
17989445,206,-8308,-139,-1,1,0,0
17989450,247,-8307,-100,-1,0,0,0
17989455,284,-8308,-49,-1,-1,-1,0
17989460,310,-8308,-6,-1,-1,-1,0
17989465,332,-8308,35,-1,-2,-1,0
17989470,336,-8306,67,-1,-2,-1,0
17989475,334,-8308,94,-1,-1,-1,0
17989480,331,-8309,123,-1,-1,-1,0
17989485,330,-8308,150,-1,0,-1,0
17989490,334,-8306,176,-1,0,0,0
17989495,338,-8301,195,-1,-1,0,0
17989500,339,-8301,205,-1,-2,0,0
17989505,342,-8301,216,-1,-3,0,0
17989510,346,-8304,224,-1,-3,0,0
17989515,346,-8306,242,-1,-3,0,0
17989520,345,-8309,260,-1,-3,0,0
17989525,344,-8311,282,-1,-3,0,0
17989530,332,-8314,309,-2,-3,0,0
17989535,314,-8312,339,-2,-3,0,0
17989540,297,-8309,379,-2,-2,1,0
17989545,278,-8305,413,-2,-1,1,0
17989550,285,-8303,462,-2,0,1,0
17989555,309,-8300,503,-1,1,0,0
17989560,351,-8296,532,-1,1,0,0
17989565,392,-8297,542,-1,-1,0,0
17989570,418,-8296,522,-1,-3,0,0
17989575,428,-8297,487,-1,-5,0,0
17989580,425,-8298,446,-1,-6,0,0
17989585,409,-8299,406,-2,-7,0,0
17989590,382,-8300,382,-2,-7,0,0
17989595,364,-8300,365,-2,-7,0,0
17989600,354,-8299,355,-2,-6,0,0
17989605,352,-8295,337,-1,-6,0,0
17989610,367,-8292,301,-1,-6,0,0
17989615,380,-8293,254,-1,-6,0,0
17989620,388,-8297,196,-1,-6,0,0
17989625,395,-8299,139,-1,-6,0,0
17989630,396,-8301,89,-1,-6,0,0
17989635,395,-8301,57,-1,-6,0,0
17989640,390,-8298,37,-1,-7,0,0
17989645,384,-8297,24,-1,-7,0,0
17989650,379,-8296,23,-1,-8,0,0
17989655,378,-8296,22,-1,-9,0,0
17989660,372,-8298,15,0,-9,0,0
17989665,358,-8300,7,0,-9,0,0
17989670,334,-8301,8,0,-8,0,0
17989675,302,-8301,17,0,-6,0,0
17989680,266,-8300,32,0,-5,0,0
17989685,228,-8300,58,0,-3,0,0
17989690,190,-8301,76,0,-2,0,0
17989695,156,-8300,86,0,0,0,0
17989700,130,-8300,87,0,3,0,0
17989705,100,-8302,73,0,6,0,0
17989710,80,-8303,55,0,9,0,0
17989715,63,-8305,38,0,13,0,0
17989720,54,-8306,39,0,17,0,0
17989725,56,-8306,55,0,21,0,0
17989730,68,-8306,85,0,24,0,0
17989735,89,-8303,119,0,27,0,0
17989740,113,-8301,150,0,31,0,0
17989745,152,-8301,180,0,35,0,0
17989750,199,-8301,207,0,36,0,0
17989755,251,-8300,233,0,36,0,0
17989760,296,-8300,254,0,35,0,0
17989765,330,-8300,280,-1,31,0,0
17989770,361,-8296,311,-1,28,0,0
17989775,376,-8293,344,-1,23,0,0
17989780,381,-8292,369,-1,18,0,0
17989785,381,-8293,381,-1,13,0,0
17989790,368,-8295,388,-1,8,0,0
17989795,347,-8299,388,-1,2,0,0
17989800,312,-8303,381,-1,-4,0,0
17989805,269,-8304,370,-1,-10,0,0
17989810,226,-8302,353,-1,-14,0,0
17989815,182,-8303,334,-1,-17,0,0
17989820,144,-8302,313,-1,-19,0,0
17989825,108,-8302,278,0,-20,-1,0
17989830,79,-8303,243,0,-20,-1,0
17989835,55,-8305,203,0,-19,-1,0
17989840,36,-8308,168,0,-17,-1,0
17989845,22,-8309,139,0,-15,-1,0
17989850,7,-8307,119,0,-13,-1,0
17989855,-7,-8308,106,0,-10,-1,0
17989860,-18,-8311,103,0,-7,-1,0
17989865,-24,-8312,118,0,-3,-1,0
17989870,-21,-8310,142,0,0,-1,0
17989875,-16,-8305,173,0,2,-1,0
17989880,-5,-8305,211,0,2,-2,0
17989885,11,-8306,251,0,2,-1,0
17989890,26,-8304,288,-1,1,-2,0
17989895,33,-8304,324,-1,1,-2,0
17989900,36,-8301,354,-1,2,-2,0
17989905,33,-8301,376,-1,2,-2,0
17989910,30,-8299,387,-1,2,-2,0
17989915,27,-8300,389,-1,3,-2,0
17989920,21,-8300,382,-1,3,-2,0
17989925,17,-8301,372,-1,4,-2,0
17989930,22,-8302,361,-1,5,-2,0
17989935,36,-8301,345,-1,5,-2,0
17989940,55,-8301,338,-1,5,-2,0
17989945,74,-8302,334,-1,4,-2,0
17989950,86,-8302,339,-1,3,-2,0
17989955,93,-8304,332,-1,2,-2,0
17989960,89,-8306,321,-1,1,-3,0
17989965,77,-8307,316,-1,0,-3,0
17989970,55,-8308,308,-1,-1,-3,0
17989975,25,-8312,303,-1,-3,-3,0
17989980,-10,-8313,306,-1,-3,-3,0
17989985,-41,-8311,307,-1,-2,-3,0
17989990,-68,-8311,303,-1,0,-3,0
17989995,-81,-8311,290,-1,3,-3,0
17990000,-85,-8308,271,-1,5,-3,0
17990005,-83,-8305,250,-1,7,-3,0
17990010,-82,-8304,218,-1,9,-3,0
17990015,-89,-8305,173,-1,13,-4,0
17990020,-104,-8304,123,-1,17,-4,0
17990025,-125,-8306,65,-1,23,-4,0
17990030,-145,-8308,11,-1,29,-4,0
17990035,-164,-8305,-44,-1,35,-4,0
17990040,-173,-8305,-87,-1,41,-4,0
17990045,-166,-8306,-125,-1,45,-4,0
17990050,-149,-8308,-157,-1,49,-4,0
17990055,-129,-8307,-173,0,51,-4,0
17990060,-102,-8308,-173,0,54,-4,0
17990065,-64,-8306,-144,0,55,-5,0
17990070,-11,-8306,-87,0,53,-5,0
17990075,50,-8306,3,0,47,-5,0
17990080,105,-8306,110,0,38,-5,0
17990085,143,-8306,225,0,28,-5,0
17990090,164,-8304,346,0,18,-5,0
17990095,170,-8300,453,0,9,-5,0
17990100,166,-8300,534,0,2,-5,0
17990105,155,-8300,578,0,-2,-5,0
17990110,139,-8300,579,0,-3,-5,0
17990115,130,-8304,547,0,-3,-5,0
17990120,130,-8304,491,0,-1,-5,0
17990125,139,-8304,433,-1,2,-5,0
17990130,157,-8303,378,-1,3,-6,0
17990135,176,-8304,332,-1,5,-6,0
17990140,195,-8302,292,-1,7,-6,0
17990145,221,-8299,255,-1,10,-6,0
17990150,246,-8297,222,-1,14,-6,0
17990155,272,-8298,175,-1,18,-6,0
17990160,295,-8301,123,0,23,-6,0
17990165,317,-8298,71,0,28,-5,0
17990170,338,-8299,29,0,34,-6,0
17990175,357,-8298,1,-1,39,-5,0
17990180,378,-8300,-9,-1,43,-5,0
17990185,405,-8300,-12,0,46,-5,0
17990190,444,-8300,1,0,48,-5,0
17990195,491,-8301,31,0,47,-5,0
17990200,545,-8300,61,0,43,-5,0
17990205,597,-8297,98,0,38,-5,0
17990210,644,-8294,134,0,31,-5,0
17990215,679,-8294,169,0,25,-5,0
17990220,696,-8293,206,0,19,-5,0
17990225,702,-8294,239,0,15,-5,0
17990230,701,-8296,260,0,12,-5,0
17990235,698,-8293,278,0,11,-5,0
17990240,702,-8292,285,0,10,-4,0
17990245,715,-8293,292,0,10,-4,0
17990250,738,-8293,298,0,10,-4,0
17990255,764,-8293,299,0,9,-4,0
17990260,788,-8296,298,0,7,-4,0
17990265,804,-8298,289,0,5,-4,0
17990270,814,-8299,274,0,4,-4,0
17990275,821,-8299,257,0,2,-4,0
17990280,833,-8299,231,0,1,-4,0
17990285,850,-8299,202,0,1,-4,0
17990290,869,-8297,175,0,1,-4,0
17990295,892,-8296,146,0,1,-3,0
17990300,914,-8296,127,0,1,-3,0
17990305,936,-8297,111,0,2,-3,0
17990310,948,-8296,108,0,2,-3,0
17990315,951,-8294,114,0,3,-3,0
17990320,948,-8295,125,0,3,-3,0
17990325,937,-8295,147,0,4,-3,0
17990330,921,-8298,166,0,4,-3,0
17990335,907,-8300,184,0,5,-3,0
17990340,895,-8300,203,0,6,-2,0
17990345,889,-8300,217,0,6,-2,0
17990350,892,-8303,220,0,7,-2,0
17990355,896,-8303,227,0,8,-2,0
17990360,902,-8301,230,0,9,-2,0
17990365,910,-8303,234,0,10,-2,0
17990370,915,-8305,236,0,11,-2,0
17990375,918,-8304,244,0,11,-2,0
17990380,923,-8301,257,0,11,-2,0
17990385,925,-8302,269,0,10,-1,0
17990390,926,-8302,280,0,9,-1,0
17990395,924,-8299,293,0,7,-1,0
17990400,917,-8298,301,0,7,-1,0
17990405,904,-8298,306,0,6,-1,0
17990410,886,-8300,311,0,7,-1,0
17990415,863,-8303,318,0,7,-1,0
17990420,831,-8309,318,0,9,-1,0
17990425,795,-8310,317,0,12,-1,0
17990430,761,-8312,317,0,15,-1,0
17990435,729,-8312,315,0,18,-1,0
17990440,695,-8313,321,0,21,-1,0
17990445,668,-8311,327,0,23,-1,0
17990450,645,-8310,341,-1,26,-1,0
17990455,630,-8310,359,-1,29,-1,0
17990460,623,-8310,378,-1,32,-1,0
17990465,628,-8312,395,-1,34,-1,0
17990470,632,-8309,410,-1,36,-1,0
17990475,639,-8311,419,-1,37,-1,0
17990480,649,-8310,424,-1,36,-1,0
17990485,657,-8310,425,-1,35,-1,0
17990490,665,-8310,420,-1,33,-1,0
17990495,676,-8308,408,-1,30,-1,0
17990500,686,-8306,390,-1,27,0,0
17990505,696,-8305,362,-1,23,0,0
17990510,707,-8304,337,-1,20,0,0
17990515,710,-8303,315,-1,18,0,0
17990520,708,-8304,298,-1,16,0,0
17990525,700,-8305,283,-1,14,0,0
17990530,692,-8303,278,-1,12,0,0
17990535,681,-8303,276,-1,10,0,0
17990540,668,-8302,263,-1,8,0,0
17990545,656,-8302,247,-1,6,0,0
17990550,645,-8303,225,-1,4,0,0
17990555,636,-8303,202,-1,2,0,0
17990560,626,-8302,182,-1,0,0,0
17990565,614,-8302,164,-1,-1,0,0
17990570,600,-8305,148,-1,-2,0,0
17990575,588,-8306,143,-1,-2,0,0
17990580,584,-8305,141,-1,-3,-1,0
17990585,587,-8307,139,-1,-4,0,0
17990590,592,-8307,132,0,-5,-1,0
17990595,587,-8308,137,0,-6,0,0
17990600,589,-8307,147,0,-6,0,0
17990605,594,-8305,155,0,-5,0,0
17990610,601,-8303,162,0,-5,0,0
17990615,609,-8302,173,0,-4,0,0
17990620,616,-8304,182,0,-3,0,0
17990625,624,-8304,188,0,-3,0,0
17990630,626,-8302,193,0,-3,-1,0
17990635,621,-8300,203,0,-5,0,0
17990640,607,-8298,220,0,-7,-1,0
17990645,589,-8301,245,-1,-7,0,0
17990650,572,-8303,282,-1,-8,0,0
17990655,550,-8305,319,-1,-7,0,0
17990660,523,-8304,368,-1,-6,-1,0
17990665,494,-8301,416,-1,-5,-1,0
17990670,472,-8302,462,-1,-3,-1,0
17990675,465,-8299,496,-1,-2,-1,0
17990680,475,-8296,503,-1,-3,-1,0
17990685,496,-8296,482,-1,-6,-1,0
17990690,521,-8298,434,-1,-7,0,0
17990695,551,-8302,370,-1,-7,0,0
17990700,584,-8305,296,-1,-6,-1,0
17990705,620,-8308,234,-1,-4,-1,0
17990710,650,-8306,186,-1,-3,-1,0
17990715,670,-8304,152,-1,-2,-1,0
17990720,681,-8301,134,-1,-2,-1,0
17990725,694,-8301,126,-1,-3,0,0
17990730,702,-8300,122,-1,-4,0,0
17990735,712,-8298,112,-1,-4,0,0
17990740,720,-8295,101,-1,-5,0,0
17990745,726,-8297,91,-1,-4,0,0
17990750,729,-8298,79,-1,-3,0,0
17990755,728,-8297,76,-1,0,0,0
17990760,734,-8300,80,-1,3,0,0
17990765,740,-8299,89,-1,5,0,0
17990770,737,-8299,97,-1,5,0,0
17990775,727,-8295,107,-1,6,0,0
17990780,718,-8296,113,-1,7,0,0
17990785,716,-8298,114,-1,8,0,0
17990790,716,-8302,112,-1,8,0,0
17990795,714,-8305,112,-1,9,0,0
17990800,715,-8307,108,-1,10,1,0
17990805,716,-8306,113,-1,11,1,0
17990810,722,-8307,120,-1,12,1,0
17990815,724,-8304,119,-1,12,1,0
17990820,721,-8304,121,0,12,1,0
17990825,717,-8303,118,0,11,1,0
17990830,712,-8302,107,0,12,1,0
17990835,705,-8303,91,0,12,1,0
17990840,697,-8305,79,0,12,1,0
17990845,688,-8308,72,0,13,1,0
17990850,683,-8308,73,0,14,1,0
17990855,674,-8307,82,0,15,1,0
17990860,660,-8305,94,0,16,1,0
17990865,643,-8302,107,0,17,1,0
17990870,627,-8303,124,0,18,1,0
17990875,608,-8305,136,0,19,1,0
17990880,589,-8307,148,0,20,1,0
17990885,572,-8308,169,0,20,1,0
17990890,557,-8310,199,0,20,1,0
17990895,543,-8311,230,0,19,1,0
17990900,528,-8309,261,-1,18,1,0
17990905,514,-8307,292,-1,17,1,0
17990910,505,-8302,321,-1,17,1,0
17990915,498,-8301,345,-1,16,1,0
17990920,493,-8298,357,-1,15,1,0
17990925,486,-8301,361,-1,14,1,0
17990930,474,-8302,364,-1,12,1,0
17990935,458,-8304,362,-1,12,1,0
17990940,446,-8303,362,-1,11,1,0
17990945,435,-8304,364,-1,10,1,0
17990950,427,-8305,370,-1,9,1,0
17990955,421,-8305,365,-1,8,0,0
17990960,415,-8304,366,-1,6,0,0
17990965,407,-8305,357,-1,3,0,0
17990970,403,-8306,345,-1,1,0,0
17990975,399,-8306,332,-1,-1,0,0
17990980,388,-8307,314,-1,-3,0,0
17990985,379,-8309,292,-1,-4,0,0
17990990,374,-8311,275,-1,-5,0,0
17990995,369,-8314,265,-1,-6,0,0
17991000,365,-8314,260,-1,-8,0,0
17991005,359,-8313,257,-1,-10,0,0
17991010,354,-8315,258,-1,-11,0,0
17991015,346,-8313,261,-1,-12,0,0
17991020,341,-8315,260,-1,-14,0,0
17991025,335,-8315,261,-1,-14,0,0
17991030,328,-8312,257,-1,-15,0,0
17991035,318,-8312,252,-1,-15,0,0
17991040,308,-8312,242,-1,-15,-1,0
17991045,296,-8313,234,-1,-14,-1,0
17991050,289,-8312,229,-1,-13,-1,0
17991055,283,-8312,223,-1,-12,-1,0
17991060,282,-8309,216,-1,-11,-1,0
17991065,289,-8306,208,-1,-9,-1,0
17991070,302,-8305,202,-1,-8,-1,0
17991075,318,-8306,208,-1,-7,-1,0
17991080,336,-8307,214,-1,-7,-1,0
17991085,353,-8308,227,-1,-8,-1,0
17991090,370,-8310,232,-1,-9,-1,0
17991095,383,-8309,235,-1,-11,-1,0
17991100,395,-8309,238,-1,-11,-1,0
17991105,410,-8309,238,-1,-12,-1,0
17991110,438,-8307,238,-1,-14,-1,0
17991115,470,-8308,237,-1,-17,-1,0
17991120,504,-8306,240,-1,-20,-1,0
17991125,538,-8307,233,-1,-21,-1,0
17991130,568,-8303,220,-1,-21,-1,0
17991135,597,-8302,203,-1,-19,-1,0
17991140,626,-8303,179,-1,-17,-1,0
17991145,658,-8303,148,-1,-14,-1,0
17991150,690,-8302,126,-1,-12,-1,0
17991155,719,-8301,102,-1,-10,0,0
17991160,745,-8302,77,-1,-9,0,0
17991165,771,-8302,53,-1,-8,0,0
17991170,794,-8301,35,-1,-8,0,0
17991175,814,-8300,14,-1,-9,0,0
17991180,827,-8302,-5,-1,-9,0,0
17991185,840,-8302,-28,-1,-10,0,0
17991190,842,-8302,-51,0,-10,0,0
17991195,822,-8304,-64,0,-10,0,0
17991200,794,-8302,-56,-1,-9,0,0
17991205,762,-8302,-35,-1,-8,0,0
17991210,726,-8303,3,-1,-6,1,0
17991215,691,-8301,47,-1,-4,1,0
17991220,665,-8299,98,-1,-2,1,0
17991225,650,-8300,143,0,1,1,0
17991230,648,-8301,176,0,2,1,0
17991235,647,-8300,197,-1,2,1,0
17991240,640,-8302,207,-1,2,1,0
17991245,620,-8302,205,-1,2,1,0
17991250,595,-8302,208,-1,3,1,0
17991255,572,-8300,205,-1,5,1,0
17991260,553,-8300,199,-1,6,1,0
17991265,547,-8301,193,-1,6,1,0
17991270,547,-8302,187,-1,6,1,0
17991275,550,-8303,181,-1,6,1,0
17991280,555,-8306,177,-1,5,1,0
17991285,557,-8305,166,-1,5,1,0
17991290,553,-8306,163,-1,4,1,0
17991295,542,-8306,164,-1,3,1,0
17991300,523,-8304,164,-1,3,1,0
17991305,502,-8301,162,-1,3,1,0
17991310,482,-8303,158,-1,4,1,0
17991315,470,-8302,149,-1,4,1,0
17991320,458,-8304,142,-1,4,1,0
17991325,446,-8307,137,-1,3,1,0
17991330,431,-8306,138,-1,3,1,0
17991335,414,-8304,139,-1,2,1,0
17991340,394,-8304,151,-1,3,1,0
17991345,373,-8307,162,-1,3,1,0
17991350,352,-8306,169,-1,4,1,0
17991355,333,-8307,174,-1,4,0,0
17991360,313,-8309,185,-1,5,0,0
17991365,299,-8309,205,-1,5,0,0
17991370,287,-8308,227,-1,5,0,0
17991375,273,-8309,249,-1,4,0,0
17991380,258,-8309,268,-1,3,0,0
17991385,248,-8307,285,-1,2,0,0
17991390,240,-8303,293,-1,2,0,0
17991395,233,-8306,290,-1,2,0,0
17991400,235,-8309,290,-1,3,0,0
17991405,240,-8309,283,-1,3,0,0
17991410,247,-8312,268,-1,4,0,0
17991415,256,-8311,260,-1,4,0,0
17991420,269,-8307,250,-1,4,0,0
17991425,284,-8306,242,-1,4,-1,0
17991430,301,-8304,241,-1,3,-1,0
17991435,313,-8306,237,-1,3,0,0
17991440,323,-8307,225,-1,3,-1,0
17991445,333,-8312,205,-1,3,-1,0
17991450,344,-8314,190,-1,4,-1,0
17991455,355,-8312,180,-1,4,-1,0
17991460,366,-8311,169,-1,5,-1,0
17991465,376,-8308,163,-1,5,-1,0
17991470,384,-8308,152,-1,4,-1,0
17991475,389,-8307,151,-1,4,-1,0
17991480,390,-8304,148,-1,4,-1,0
17991485,388,-8303,143,-1,4,-1,0
17991490,388,-8300,136,-1,3,-1,0
17991495,391,-8298,131,-1,3,-1,0
17991500,396,-8299,126,-1,3,-1,0
17991505,401,-8302,118,-1,3,-1,0
17991510,407,-8303,115,-1,2,-1,0
17991515,413,-8304,115,-1,2,-1,0
17991520,422,-8304,108,-1,2,-1,0
17991525,431,-8303,99,-1,2,-1,0
17991530,439,-8302,91,-1,2,-1,0
17991535,448,-8302,84,-1,2,-1,0
17991540,455,-8303,72,-1,2,-1,0
17991545,462,-8303,67,-1,2,-1,0
17991550,470,-8302,64,-1,2,-1,0
17991555,481,-8302,65,-1,2,-1,0
17991560,493,-8302,70,-1,1,-1,0
17991565,504,-8301,74,-1,1,-1,0
17991570,510,-8301,65,-1,0,-1,0
17991575,517,-8301,58,-1,0,-1,0
17991580,523,-8301,50,-1,-1,-1,0
17991585,528,-8297,39,0,-1,-1,0
17991590,537,-8299,29,0,-1,-1,0
17991595,545,-8297,21,0,-1,0,0
17991600,555,-8297,18,0,-1,-1,0
17991605,565,-8300,16,0,-2,0,0
17991610,578,-8302,13,0,-2,0,0
17991615,591,-8304,9,0,-3,0,0
17991620,604,-8305,8,0,-3,0,0
17991625,613,-8304,8,0,-3,0,0
17991630,618,-8304,10,0,-3,0,0
17991635,619,-8303,10,0,-3,0,0
17991640,615,-8304,20,0,-3,0,0
17991645,612,-8305,35,0,-3,0,0
17991650,603,-8303,50,0,-3,0,0
17991655,595,-8302,66,0,-3,0,0
17991660,586,-8303,81,0,-3,0,0
17991665,579,-8302,95,0,-3,0,0
17991670,571,-8300,105,0,-3,0,0
17991675,565,-8299,114,0,-3,0,0
17991680,560,-8300,123,0,-3,0,0
17991685,553,-8303,135,0,-2,0,0
17991690,552,-8303,150,0,-2,0,0
17991695,551,-8306,169,0,-2,0,0
17991700,547,-8309,183,0,-2,0,0
17991705,546,-8310,197,0,-2,0,0
17991710,547,-8310,204,0,-2,0,0
17991715,549,-8310,210,0,-2,0,0
17991720,552,-8311,207,0,-2,0,0
17991725,554,-8310,199,0,-2,0,0
17991730,555,-8309,198,0,-2,0,0
17991735,550,-8310,201,0,-2,0,0
17991740,544,-8309,198,0,-1,0,0
17991745,536,-8306,203,0,-1,0,0
17991750,525,-8305,208,0,-1,0,0
17991755,516,-8304,215,0,-1,0,0
17991760,506,-8305,218,0,-1,0,0
17991766,497,-8303,221,0,-2,0,0
17991770,484,-8304,223,0,-2,0,0
17991775,471,-8303,229,0,-2,0,0
17991780,458,-8302,235,0,-2,0,0
17991785,447,-8305,233,0,-2,0,0
17991791,435,-8307,234,0,-1,0,0
17991795,423,-8308,230,0,-1,0,0
17991800,416,-8310,229,0,-1,0,0
17991805,406,-8311,225,0,-1,0,0
17991811,398,-8312,213,0,-2,0,0
17991816,389,-8311,207,0,-2,0,0
17991820,382,-8310,199,0,-2,0,0
17991825,375,-8310,194,0,-2,0,0
17991830,366,-8310,185,0,-2,0,0
17991836,355,-8310,181,0,-2,0,0
17991840,340,-8311,175,0,-1,0,0
17991845,325,-8309,176,-1,-1,0,0
17991850,315,-8312,176,-1,-1,0,0
17991855,311,-8314,179,-1,0,0,0
17991860,308,-8310,176,-1,0,0,0
17991865,309,-8311,174,-1,0,0,0
17991870,306,-8312,176,0,0,0,0
17991876,305,-8313,171,0,0,0,0
17991880,302,-8313,171,-1,0,-1,0
17991886,296,-8313,165,0,0,-1,0
17991890,292,-8311,162,0,0,-1,0
17991895,288,-8312,159,0,0,-1,0
17991900,285,-8310,158,0,-1,-1,0
17991905,282,-8310,173,-1,-1,-1,0
17991910,278,-8312,184,-1,-1,-1,0
17991915,269,-8313,204,-1,-1,-1,0
17991920,262,-8314,229,-1,-1,-1,0
17991925,251,-8313,249,-1,-1,-1,0
17991930,241,-8311,270,-1,-1,-1,0
17991935,232,-8310,286,-1,-1,-1,0
17991940,224,-8309,300,-1,0,-1,0
17991945,217,-8307,311,-1,0,-1,0
17991950,214,-8304,323,-1,0,-1,0
17991956,217,-8303,329,-1,0,-2,0
17991961,222,-8308,332,-1,0,-2,0
17991965,235,-8311,329,-1,0,-2,0
17991970,255,-8310,325,-1,0,-2,0
17991976,277,-8310,318,-1,0,-2,0
17991980,294,-8310,308,-1,0,-2,0
17991985,313,-8310,297,-1,1,-2,0
17991990,331,-8307,285,-1,1,-2,0
17991995,347,-8305,277,-1,1,-2,0
17992001,361,-8304,272,-1,1,-2,0
17992006,375,-8305,270,-1,0,-2,0
17992010,387,-8302,263,-1,0,-2,0
17992016,397,-8300,257,-1,1,-2,0
17992021,409,-8301,250,-1,1,-2,0
17992026,422,-8303,243,-1,1,-2,0
17992031,436,-8303,235,-1,1,-2,0
17992036,449,-8302,226,-1,2,-2,0
17992040,462,-8303,216,-1,2,-2,0
17992045,473,-8304,201,-2,2,-2,0
17992050,483,-8304,183,-1,3,-2,0
17992056,495,-8305,168,-1,3,-2,0
17992060,502,-8304,149,-1,3,-2,0
17992065,511,-8304,129,-1,3,-2,0
17992070,519,-8305,102,-1,3,-2,0
17992076,526,-8305,70,-1,2,-2,0
17992081,532,-8307,46,-1,2,-1,0
17992086,535,-8305,29,-1,2,-2,0
17992091,536,-8303,22,-1,2,-2,0
17992096,533,-8303,19,-1,2,-1,0
17992100,533,-8305,18,-1,1,-1,0
17992106,533,-8308,12,-1,1,-1,0
17992111,534,-8306,9,-1,1,-1,0
17992115,538,-8308,7,-1,0,-1,0
17992121,542,-8308,10,-1,0,-1,0
17992126,549,-8309,17,-1,0,-1,0
17992131,561,-8310,23,-1,0,-1,0
17992135,571,-8311,28,-1,0,-1,0
17992140,577,-8310,32,-1,-1,-1,0
17992146,583,-8308,42,-1,-1,-1,0
17992150,587,-8308,62,-1,-1,-1,0
17992156,591,-8310,80,-1,-1,-1,0
17992160,593,-8309,104,-1,-1,-1,0
17992166,595,-8308,125,-1,-1,-1,0
17992171,598,-8310,146,-1,-1,-1,0
17992176,602,-8312,166,-1,-2,-1,0
17992181,602,-8312,190,-1,-2,-1,0
17992186,599,-8312,208,-1,-2,-1,0
17992190,595,-8311,222,-1,-2,-1,0
17992196,595,-8311,237,-1,-2,-1,0
17992201,590,-8309,252,-1,-2,-1,0
17992206,589,-8308,263,-1,-2,-1,0
17992211,591,-8307,271,-1,-2,-1,0
17992216,596,-8308,272,-1,-1,-1,0
17992221,600,-8309,273,-1,-1,-1,0
17992226,604,-8308,272,-1,-1,-1,0
17992231,614,-8308,265,-1,-1,-1,0
17992236,626,-8309,267,-1,-1,-1,0
17992241,628,-8309,255,-1,-2,-1,0
17992246,629,-8309,249,-2,-2,-1,0
17992251,631,-8310,242,-2,-2,-1,0
17992256,637,-8309,230,-2,-1,0,0
17992261,644,-8308,218,-2,-1,0,0
17992266,649,-8307,205,-2,-1,0,0
17992271,658,-8304,188,-2,-1,0,0
17992276,663,-8304,174,-2,-1,0,0
17992281,665,-8302,158,-2,-1,0,0
17992286,662,-8302,138,-2,-2,0,0
17992291,659,-8304,119,-1,-2,0,0
17992296,659,-8306,97,-1,-3,0,0
17992301,656,-8306,80,-1,-3,0,0
17992306,653,-8306,58,-1,-4,0,0
17992311,652,-8306,33,-1,-4,0,0
17992316,650,-8306,10,-1,-4,0,0
17992321,645,-8308,-7,-1,-5,0,0
17992326,638,-8307,-26,-1,-5,0,0
17992331,632,-8309,-43,-1,-6,0,0
17992336,623,-8309,-56,-1,-6,0,0
17992341,614,-8308,-69,-1,-6,0,0
17992346,603,-8307,-81,-1,-7,0,0
17992351,591,-8307,-93,-1,-7,0,0
17992356,581,-8307,-97,-1,-7,0,0
17992361,572,-8309,-104,-1,-7,0,0
17992366,564,-8310,-105,-1,-7,0,0
17992371,558,-8306,-106,-1,-7,0,0
17992376,553,-8307,-104,-1,-7,0,0
17992381,550,-8306,-89,0,-7,0,0
17992386,544,-8306,-74,0,-7,0,0
17992391,533,-8304,-63,0,-7,0,0
17992396,524,-8305,-55,0,-7,0,0
17992401,518,-8305,-41,0,-7,0,0
17992406,512,-8307,-23,0,-7,0,0
17992411,503,-8309,-2,0,-7,0,0
17992416,497,-8307,17,0,-6,0,0
17992421,492,-8307,39,0,-6,0,0
17992426,484,-8306,59,0,-5,0,0
17992431,479,-8305,75,0,-4,0,0
17992436,477,-8307,90,0,-4,0,0
17992441,475,-8307,103,0,-3,0,0
17992446,474,-8307,113,-1,-2,0,0
17992451,474,-8305,125,-1,-1,0,0
17992456,476,-8305,137,-1,0,0,0
17992461,480,-8302,146,-1,0,0,0
17992466,481,-8302,148,-1,0,0,0
17992471,479,-8304,157,-1,0,0,0
17992476,476,-8306,164,-1,0,0,0
17992481,473,-8308,163,-1,0,0,0
17992486,465,-8308,160,-1,0,0,0
17992491,454,-8310,155,-1,0,0,0
17992496,444,-8309,157,-1,-1,0,0
17992501,439,-8307,158,-1,0,0,0
17992506,437,-8309,163,-1,0,0,0
17992511,425,-8308,163,-1,1,0,0
17992516,417,-8311,156,-1,1,0,0
17992521,413,-8310,151,-1,0,0,0
17992526,400,-8309,135,-1,-1,0,0
17992531,390,-8307,114,-1,0,0,0
17992536,385,-8307,97,-1,0,0,0
17992541,389,-8306,87,-1,0,0,0
17992546,394,-8307,77,-1,0,0,0
17992551,403,-8308,68,-1,0,0,0
17992556,412,-8311,64,-1,0,0,0
17992561,412,-8312,64,-1,0,0,0
17992566,415,-8310,62,-1,0,0,0
17992571,415,-8310,60,-1,0,0,0
17992576,409,-8311,61,-1,0,0,0
17992581,404,-8312,61,-1,0,0,0
17992586,401,-8310,56,-1,0,0,0
17992591,401,-8313,49,-1,0,0,0
17992596,403,-8313,38,-1,0,0,0
17992601,408,-8311,30,-1,0,0,0
17992606,417,-8314,14,0,0,0,0
17992611,420,-8316,3,0,0,0,0
17992616,420,-8317,-7,0,0,0,0
17992621,420,-8320,-19,0,0,0,0
17992626,421,-8316,-29,0,-1,0,0
17992631,414,-8317,-27,0,-1,0,0
17992636,405,-8317,-28,0,-1,0,0
17992641,404,-8314,-28,0,-1,0,0
17992646,402,-8312,-30,0,-1,0,0
17992651,402,-8306,-28,0,-2,0,0
17992656,405,-8306,-25,0,-2,0,0
17992661,401,-8304,-18,0,-2,0,0
17992666,401,-8303,-15,0,-1,0,0
17992671,401,-8303,-5,0,-2,0,0
17992676,396,-8302,2,0,-1,0,0
17992681,391,-8301,15,0,-1,0,0
17992686,391,-8301,32,0,-1,0,0
17992691,394,-8299,49,0,-1,0,0
17992696,399,-8298,65,0,-1,0,0
17992701,404,-8297,75,0,-2,0,0
17992706,406,-8298,82,0,-2,0,0
17992711,400,-8299,95,0,-2,0,0
17992716,394,-8300,113,0,-2,-1,0
17992721,384,-8301,136,0,-1,-1,0
17992726,375,-8303,162,0,-1,0,0
17992731,371,-8303,188,0,0,-1,0
17992736,372,-8301,211,0,0,-1,0
17992741,374,-8302,222,0,0,0,0
17992746,384,-8302,219,0,0,0,0
17992751,399,-8302,207,0,0,-1,0
17992756,413,-8302,198,0,0,-1,0
17992761,430,-8305,186,0,1,-1,0
17992766,441,-8308,175,0,0,-1,0
17992771,448,-8312,166,0,-1,-1,0
17992776,451,-8315,164,0,-1,-1,0
17992781,457,-8315,160,0,-1,0,0
17992786,465,-8313,155,0,-1,0,0
17992791,479,-8311,150,0,-1,0,0
17992796,488,-8310,150,0,-1,0,0
17992801,498,-8310,150,0,-1,0,0
17992806,502,-8307,156,-1,0,0,0
17992811,504,-8307,167,-1,0,0,0
17992816,500,-8307,174,-1,0,0,0
17992821,492,-8306,184,-1,0,0,0
17992826,483,-8304,187,-1,0,0,0
17992831,473,-8305,184,-1,0,0,0
17992836,467,-8305,178,-1,0,0,0
17992841,466,-8305,172,-1,0,0,0
17992846,467,-8304,173,-1,0,0,0
17992851,468,-8304,170,-1,0,0,0
17992856,469,-8304,170,-1,0,0,0
17992861,469,-8304,167,-1,0,0,0
17992866,465,-8303,165,-1,0,0,0
17992871,460,-8305,164,-1,0,0,0
17992876,454,-8306,160,-1,0,0,0
17992881,446,-8307,156,-1,0,0,0
17992886,438,-8303,154,-1,1,0,0
17992891,434,-8301,150,-1,1,0,0
17992896,435,-8301,147,-1,2,0,0
17992901,435,-8302,148,-1,3,0,0
17992906,435,-8301,145,-1,4,0,0
17992911,435,-8299,139,-1,4,0,0
17992916,436,-8298,128,-1,5,0,0
17992921,433,-8299,114,-1,6,0,0
17992926,428,-8299,100,-1,7,0,0
17992931,422,-8301,87,-1,7,0,0
17992936,418,-8303,74,-1,8,0,0
17992941,421,-8303,67,-1,8,0,0
17992946,417,-8301,65,-1,7,-1,0
17992951,416,-8300,69,-1,7,0,0
17992956,418,-8300,86,-1,5,-1,0
17992961,415,-8301,97,-1,3,-1,0
17992966,409,-8300,108,-1,2,-1,0
17992971,393,-8303,116,-1,1,-1,0
17992976,380,-8305,113,-1,1,-1,0
17992981,376,-8306,112,-1,1,-1,0
17992986,370,-8308,109,-1,1,-1,0
17992991,375,-8309,102,-1,1,-1,0
17992996,379,-8309,93,-1,1,-1,0
17993001,385,-8312,86,-1,1,-1,0
17993006,394,-8313,75,-1,1,-1,0
17993011,401,-8312,67,-1,1,-1,0
17993016,410,-8309,66,-1,0,-1,0
17993021,417,-8309,63,-1,0,-1,0
17993026,426,-8308,59,-1,0,-1,0
17993031,435,-8310,54,-1,0,-1,0
17993036,441,-8307,56,-1,0,-1,0
17993041,450,-8307,57,-1,0,-1,0
17993046,459,-8307,54,-1,0,-1,0
17993051,463,-8309,49,-1,1,-1,0
17993056,469,-8310,46,-1,0,-1,0
17993061,470,-8307,41,0,0,-1,0
17993066,464,-8306,40,-1,0,-1,0
17993071,462,-8307,36,0,1,-1,0
17993076,461,-8305,34,0,1,-1,0
17993081,461,-8306,26,0,1,-1,0
17993086,467,-8309,24,0,2,-1,0
17993091,474,-8309,19,0,1,-1,0
17993096,481,-8310,13,0,1,-1,0
17993101,490,-8310,7,0,1,-1,0
17993106,500,-8310,12,0,1,-1,0
17993111,505,-8310,12,0,1,0,0
17993116,514,-8312,11,0,0,0,0
17993121,522,-8313,11,0,0,0,0
17993126,527,-8313,4,0,0,0,0
17993131,527,-8312,4,0,-1,0,0
17993136,527,-8311,8,0,-1,0,0
17993141,525,-8309,16,0,-1,0,0
17993146,523,-8310,24,0,0,0,0
17993151,520,-8311,34,0,0,0,0
17993156,514,-8313,47,0,-1,0,0
17993161,510,-8312,55,0,0,0,0
17993166,504,-8310,66,0,0,0,0
17993171,502,-8310,71,0,0,0,0
17993176,498,-8310,73,0,0,0,0
17993181,496,-8309,78,0,-1,0,0
17993186,494,-8309,76,0,-1,0,0
17993191,492,-8308,78,0,-1,0,0
17993196,491,-8310,75,0,0,0,0
17993201,495,-8310,78,0,0,0,0
17993206,498,-8311,79,0,0,0,0
17993211,499,-8313,83,0,0,0,0
17993216,501,-8312,91,0,-1,0,0
17993221,494,-8311,95,0,-1,0,0
17993226,484,-8311,98,0,-1,0,0
17993231,473,-8309,100,0,-1,0,0
17993236,469,-8312,107,0,-1,0,0
17993241,468,-8312,109,0,-1,0,0
17993246,464,-8313,106,0,-1,0,0
17993251,461,-8313,99,0,-1,0,0
17993256,457,-8314,97,0,-1,0,0
17993261,455,-8312,95,0,-1,0,0
17993266,448,-8311,95,0,-1,0,0
17993271,436,-8312,96,0,-1,0,0
17993276,425,-8312,99,0,-1,0,0
17993281,415,-8312,103,0,-1,0,0
17993286,407,-8310,106,0,-1,0,0
17993291,406,-8307,106,0,-1,0,0
17993296,406,-8304,105,0,-1,0,0
17993301,405,-8301,106,0,-1,0,0
17993306,405,-8303,113,0,-1,0,0
17993311,406,-8303,118,0,-1,0,0
17993316,407,-8304,117,0,-1,0,0
17993321,406,-8301,117,0,-1,0,0
17993326,401,-8302,124,0,-1,0,0
17993331,398,-8303,126,0,-1,0,0
17993336,396,-8302,125,0,-1,0,0
17993341,399,-8302,130,0,-1,0,0
17993346,400,-8304,132,0,-1,0,0
17993351,400,-8304,139,0,-1,-1,0
17993356,400,-8304,143,0,-1,-1,0
17993361,402,-8308,147,0,-1,0,0
17993366,399,-8307,152,0,-1,-1,0
17993371,399,-8308,155,0,-1,-1,0
17993376,400,-8310,162,0,-1,-1,0
17993381,404,-8312,166,0,-1,0,0
17993386,409,-8314,161,0,-1,0,0
17993391,415,-8315,157,0,-1,-1,0
17993396,421,-8316,151,0,-1,-1,0
17993401,425,-8316,151,0,-1,-1,0
17993406,429,-8315,152,0,-1,-1,0
17993411,434,-8312,154,0,-1,-1,0
17993416,438,-8311,146,0,-1,-1,0
17993421,440,-8311,145,0,-1,-1,0
17993426,441,-8311,142,0,-1,-1,0
17993431,443,-8309,140,0,-1,0,0
17993436,446,-8308,141,0,-1,-1,0
17993441,446,-8307,142,0,-1,0,0
17993446,449,-8305,138,0,-1,-1,0
17993451,447,-8306,133,0,-1,-1,0
17993456,448,-8309,126,0,-1,0,0
17993461,447,-8309,114,0,-1,0,0
17993466,449,-8310,114,0,-1,-1,0
17993471,448,-8310,114,0,-1,-1,0
17993476,449,-8309,119,0,-1,-1,0
17993481,451,-8305,121,0,-1,0,0
17993486,452,-8303,126,0,-1,-1,0
17993491,448,-8300,132,0,-1,-1,0
17993496,445,-8299,138,0,-1,-1,0
17993501,444,-8297,148,0,-1,0,0
17993506,447,-8298,149,0,-1,0,0
17993511,447,-8297,144,0,-1,0,0
17993516,450,-8296,137,0,-1,0,0
17993521,456,-8300,135,0,-2,0,0
17993526,460,-8303,129,0,-3,-1,0
17993531,465,-8305,123,0,-3,0,0
17993536,466,-8304,124,0,-4,-1,0
17993541,467,-8307,119,0,-4,-1,0
17993546,463,-8307,118,0,-4,0,0
17993551,459,-8309,128,-1,-4,-1,0
17993556,456,-8310,139,0,-4,-1,0
17993561,458,-8310,149,0,-4,-1,0
17993566,456,-8309,151,0,-5,0,0
17993571,455,-8307,157,0,-5,0,0
17993576,455,-8304,170,0,-4,0,0
17993581,454,-8305,173,0,-5,0,0
17993586,454,-8302,172,0,-5,0,0
17993591,453,-8300,171,-1,-5,0,0
17993596,451,-8301,161,-1,-5,-1,0
17993601,448,-8302,155,-1,-4,0,0
17993606,445,-8301,149,-1,-3,0,0
17993611,444,-8300,142,-1,-3,0,0
17993616,441,-8299,138,-1,-2,0,0
17993621,440,-8299,130,-1,-2,0,0
17993626,435,-8299,127,-1,-2,0,0
17993631,436,-8302,128,-1,-1,0,0
17993636,433,-8306,126,-1,-1,0,0
17993641,427,-8306,122,-1,-1,-1,0
17993646,426,-8304,118,-1,-1,0,0
17993651,425,-8304,110,-1,-1,0,0
17993656,427,-8304,106,-1,-1,0,0
17993661,430,-8305,101,-1,-1,0,0
17993666,432,-8305,98,-1,-1,0,0
17993671,434,-8306,93,0,-1,0,0
17993676,436,-8305,91,0,-1,-1,8
17993681,438,-8304,91,0,-1,0,8
17993686,435,-8304,92,0,-1,-1,8
17993691,433,-8303,92,0,-1,-1,8
17993696,432,-8306,84,0,-1,0,8
17993701,429,-8305,77,0,-1,-1,8
17993706,429,-8307,74,0,-1,0,8
17993711,431,-8306,73,0,-1,0,8
17993716,435,-8306,77,0,-1,0,8
17993721,435,-8304,78,0,-1,-1,8
17993726,436,-8304,82,0,-2,-1,8
17993731,438,-8302,89,0,-2,-1,8
17993736,436,-8301,89,0,-2,-1,8
17993741,436,-8299,95,0,-2,0,8
17993746,435,-8297,96,0,-2,-1,8
17993751,439,-8298,91,0,-2,-1,8
17993756,441,-8300,85,0,-2,-1,8
17993761,449,-8300,79,0,-2,-1,8
17993766,455,-8302,78,0,-2,-1,8
17993771,460,-8301,79,0,-2,-1,8
17993776,457,-8298,87,0,-2,-1,8
17993781,450,-8300,98,0,-2,-1,8
17993786,445,-8303,112,0,-2,-1,8
17993791,441,-8303,126,0,-2,-1,8
17993796,437,-8304,137,0,-2,-1,8
17993801,440,-8304,145,0,-2,0,8
17993806,447,-8302,151,0,-2,0,8
17993811,457,-8304,151,0,-2,0,8
17993816,471,-8303,151,0,-3,-1,8
17993821,481,-8304,160,0,-3,0,8
17993826,487,-8305,167,0,-2,0,8
17993831,499,-8303,175,0,-1,0,8
17993836,514,-8303,178,0,-1,0,8
17993841,527,-8303,179,0,-1,0,8
17993846,536,-8302,184,-1,-2,0,8
17993851,551,-8300,191,-1,-3,0,8
17993856,562,-8303,201,-1,-4,0,8
17993861,570,-8304,210,-1,-5,0,8
17993866,588,-8304,208,-1,-5,0,8
17993871,608,-8306,207,-1,-4,0,8
17993876,631,-8307,193,-1,-4,0,8
17993881,654,-8308,175,-1,-4,0,8
17993886,673,-8305,162,-1,-4,0,8
17993891,689,-8300,153,-1,-4,0,8
17993896,700,-8298,146,-1,-4,0,8
17993901,711,-8298,133,-1,-4,1,8
17993906,723,-8298,119,-1,-3,1,8
17993911,735,-8297,111,-1,-3,1,8
17993916,751,-8297,98,0,-3,1,8
17993921,763,-8299,91,0,-3,1,8
17993926,772,-8298,90,0,-4,1,8
17993931,776,-8296,86,0,-5,1,8
17993936,777,-8297,85,0,-6,1,8
17993941,775,-8296,87,0,-6,1,8
17993946,770,-8295,91,0,-6,2,8
17993951,761,-8295,91,0,-5,2,8
17993956,756,-8296,85,0,-5,2,8
17993961,748,-8294,87,0,-4,2,8
17993966,733,-8295,92,0,-5,2,8
17993971,713,-8295,103,0,-5,2,8
17993976,688,-8295,116,0,-6,2,8
17993981,658,-8294,127,0,-7,2,8
17993986,623,-8295,137,0,-7,2,8
17993991,587,-8296,143,0,-7,2,8
17993996,546,-8297,144,0,-6,2,8
17994001,512,-8298,139,0,-4,2,8
17994006,477,-8300,134,0,-3,2,8
17994011,437,-8302,132,0,-2,2,8
17994016,395,-8304,139,-1,-2,2,8
17994021,351,-8310,154,-1,-2,2,8
17994026,308,-8312,164,-1,-3,2,8
17994031,261,-8311,178,-1,-4,2,8
17994036,209,-8308,191,-1,-5,1,8
17994041,146,-8306,199,-1,-6,1,8
17994046,79,-8307,207,-1,-6,1,8
17994051,6,-8309,212,-1,-5,1,8
17994056,-70,-8309,219,-1,-3,1,8
17994061,-149,-8309,236,-1,-3,1,8
17994066,-231,-8310,251,-1,-2,0,8
17994071,-320,-8309,273,-1,-2,0,8
17994076,-416,-8313,300,-1,-2,0,8
17994081,-519,-8317,326,-1,-1,-1,8
17994086,-632,-8322,343,-1,-1,-1,8
17994091,-754,-8323,363,-1,0,-2,8
17994096,-884,-8327,378,-1,1,-2,8
17994101,-1028,-8328,387,-2,2,-3,8
17994106,-1173,-8328,396,-2,4,-4,8
17994111,-1325,-8329,413,-2,5,-5,8
17994116,-1480,-8328,428,-2,6,-5,8
17994121,-1629,-8328,443,-2,6,-6,8
17994126,-1774,-8330,448,-2,6,-7,8
17994131,-1906,-8329,445,-2,7,-8,8
17994136,-2033,-8328,444,-2,7,-9,8
17994141,-2155,-8327,441,-2,8,-10,8
17994146,-2271,-8324,434,-3,9,-11,8
17994151,-2372,-8319,427,-3,10,-11,8
17994156,-2444,-8315,425,-3,12,-12,8
17994161,-2492,-8310,427,-3,13,-13,8
17994166,-2516,-8306,429,-3,14,-14,8
17994171,-2526,-8301,423,-3,16,-15,8
17994176,-2529,-8295,412,-3,17,-16,8
17994181,-2537,-8288,396,-3,18,-17,8
17994186,-2569,-8280,356,-3,20,-18,8
17994191,-2613,-8271,306,-3,23,-19,8
17994196,-2659,-8262,241,-3,28,-20,8
17994201,-2698,-8252,175,-3,33,-21,8
17994206,-2728,-8239,122,-3,37,-22,8
17994211,-2746,-8227,69,-3,38,-23,8
17994216,-2742,-8221,16,-3,39,-24,8
17994221,-2696,-8211,-52,-2,37,-25,8
17994226,-2637,-8212,-146,-2,35,-26,8
17994231,-2533,-8199,-248,-2,36,-27,8
17994236,-2420,-8186,-356,-1,36,-28,8
17994241,-2309,-8170,-486,-1,39,-29,8
17994246,-2167,-8147,-630,0,43,-29,8
17994251,-2004,-8122,-773,0,44,-30,8
17994256,-1829,-8099,-934,1,44,-30,8
17994261,-1614,-8073,-1103,2,42,-30,8
17994266,-1381,-8050,-1275,2,40,-30,8
17994271,-1111,-8029,-1447,3,38,-31,8
17994276,-817,-8004,-1620,4,38,-31,8
17994281,-503,-7979,-1782,5,37,-31,8
17994286,-175,-7959,-1941,6,34,-30,8
17994291,141,-7936,-2094,7,31,-30,8
17994296,444,-7917,-2232,9,26,-30,8
17994301,727,-7900,-2360,10,22,-29,8
17994306,983,-7882,-2481,12,19,-28,8
17994311,1201,-7868,-2578,14,16,-27,8
17994316,1546,-7848,-2724,16,13,-26,8
17994321,1931,-7841,-2824,17,11,-26,8
17994326,2293,-7827,-2941,17,4,-26,8
17994331,2924,-7839,-3333,18,-3,-26,8
17994336,3411,-7838,-3605,19,-1,-24,8
17994341,3773,-7831,-3702,19,-8,-23,8
17994346,4168,-7820,-3857,20,-10,-22,8
17994351,4506,-7806,-3849,20,-4,-21,8
17994356,4861,-7796,-3754,22,-3,-19,8
17994361,5156,-7784,-3688,23,-4,-18,8
17994366,5509,-7775,-3552,25,-10,-16,8
17994371,5839,-7768,-3464,26,-16,-14,8
17994376,6155,-7763,-3421,28,-25,-12,8
17994381,6532,-7761,-3368,29,-32,-10,8
17994386,6837,-7751,-3350,30,-36,-8,8
17994391,7146,-7741,-3316,31,-40,-6,8
17994396,7469,-7730,-3255,32,-42,-4,8
17994401,7737,-7717,-3180,32,-45,-2,8
17994406,7995,-7700,-3037,33,-51,0,8
17994411,8226,-7683,-2863,34,-56,2,8
17994416,8400,-7663,-2661,35,-61,4,8
17994421,8540,-7641,-2422,36,-66,6,8
17994426,8661,-7614,-2173,37,-70,8,8
17994431,8747,-7588,-1907,37,-74,10,8
17994436,8809,-7560,-1634,38,-81,12,8
17994441,8856,-7533,-1361,38,-87,14,8
17994446,8863,-7509,-1065,39,-93,16,8
17994451,8846,-7484,-758,39,-99,17,8
17994456,8814,-7458,-444,39,-102,19,8
17994461,8763,-7432,-118,39,-105,20,8
17994466,8709,-7402,215,39,-107,22,8
17994471,8656,-7374,556,39,-108,24,8
17994476,8609,-7348,896,38,-109,25,8
17994481,8558,-7322,1233,38,-112,26,8
17994486,8505,-7299,1558,37,-115,28,8
17994491,8435,-7277,1874,36,-117,29,8
17994496,8345,-7249,2177,35,-117,30,8
17994501,8239,-7223,2527,35,-114,31,8
17994506,8157,-7199,2910,34,-110,33,8
17994511,8030,-7174,3321,33,-102,34,8
17994516,7887,-7146,3753,33,-94,35,8
17994521,7726,-7125,4185,33,-86,37,8
17994526,7548,-7109,4557,33,-80,38,8
17994531,7361,-7097,4850,32,-77,40,8
17994536,7149,-7087,5063,32,-77,41,8
17994541,6912,-7079,5217,31,-76,42,8
17994546,6644,-7069,5336,29,-73,43,8
17994551,6367,-7062,5448,28,-67,44,8
17994556,6086,-7052,5576,26,-59,45,8
17994561,5833,-7027,5620,25,-51,46,8
17994566,5618,-7001,5500,25,-47,47,8
17994571,5436,-7006,5601,25,-47,48,8
17994576,5118,-7023,5941,22,-50,48,8
17994581,4714,-7009,6169,18,-55,48,8
17994586,4380,-6987,6402,17,-54,48,8
17994591,4030,-6973,6641,17,-46,48,8
17994596,3655,-6974,6869,16,-43,49,8
17994601,3269,-6983,7064,16,-44,49,8
17994606,2888,-6992,7141,14,-46,49,8
17994611,2536,-7006,7127,13,-47,49,8
17994616,2185,-7032,7124,11,-46,50,8
17994621,1790,-7061,7223,9,-44,49,8
17994626,1393,-7077,7324,6,-41,49,8
17994631,1025,-7095,7437,4,-35,48,8
17994636,676,-7109,7592,3,-26,48,8
17994641,315,-7124,7756,2,-20,47,8
17994646,-43,-7148,7912,1,-18,47,8
17994651,-362,-7174,7966,-1,-18,46,8
17994656,-696,-7202,7965,-2,-15,45,8
17994661,-1008,-7235,7889,-4,-8,44,8
17994666,-1301,-7257,7754,-7,2,43,8
17994671,-1590,-7284,7663,-9,12,42,8
17994676,-1901,-7312,7586,-11,18,41,8
17994681,-2223,-7335,7529,-13,19,40,8
17994686,-2568,-7359,7512,-14,18,39,8
17994691,-2918,-7382,7468,-16,17,38,8
17994696,-3239,-7403,7417,-17,19,36,8
17994701,-3522,-7428,7357,-19,23,35,8
17994706,-3759,-7455,7262,-21,28,34,8
17994711,-3958,-7482,7171,-22,33,32,8
17994716,-4138,-7504,7077,-25,39,31,8
17994721,-4311,-7522,7005,-27,44,29,8
17994726,-4494,-7537,6959,-28,50,27,8
17994731,-4685,-7549,6905,-30,57,25,8
17994736,-4893,-7560,6831,-31,63,23,8
17994741,-5072,-7566,6705,-33,68,22,8
17994746,-5225,-7578,6545,-34,71,20,8
17994751,-5334,-7581,6349,-35,74,18,8
17994756,-5424,-7584,6138,-37,76,15,8
17994761,-5505,-7586,5917,-38,78,13,8
17994766,-5583,-7581,5678,-40,81,11,8
17994771,-5668,-7576,5437,-41,84,9,8
17994776,-5735,-7574,5175,-41,88,7,8
17994781,-5793,-7573,4891,-42,93,5,8
17994786,-5833,-7571,4587,-43,100,3,8
17994791,-5832,-7562,4247,-44,106,1,8
17994796,-5814,-7553,3908,-44,112,-1,8
17994801,-5785,-7543,3557,-45,118,-3,8
17994806,-5749,-7526,3196,-45,123,-5,8
17994811,-5707,-7512,2834,-45,127,-7,8
17994816,-5644,-7498,2469,-45,130,-9,8
17994821,-5553,-7486,2118,-44,132,-12,8
17994826,-5434,-7472,1729,-44,133,-13,8
17994831,-5331,-7464,1299,-44,134,-15,8
17994836,-5224,-7465,846,-43,134,-17,8
17994841,-5094,-7461,414,-43,134,-18,8
17994846,-4933,-7455,31,-42,134,-20,8
17994851,-4864,-7440,-396,-41,134,-22,8
17994856,-4849,-7447,-873,-40,130,-25,8
17994862,-4749,-7449,-1228,-38,124,-27,8
17994866,-4712,-7457,-1587,-37,122,-28,8
17994871,-4652,-7463,-1932,-36,118,-29,8
17994876,-4537,-7463,-2231,-34,115,-30,8
17994881,-4373,-7456,-2519,-33,111,-32,8
17994886,-4150,-7451,-2802,-31,106,-33,8
17994891,-3919,-7450,-3108,-29,99,-34,8
17994896,-3681,-7456,-3387,-26,91,-35,8
17994901,-3476,-7462,-3668,-25,84,-36,8
17994906,-3291,-7469,-3960,-23,79,-37,8
17994911,-3095,-7471,-4237,-21,75,-38,8
17994916,-2928,-7474,-4515,-20,72,-39,8
17994921,-2773,-7475,-4748,-18,67,-40,8
17994926,-2618,-7477,-4924,-16,64,-41,8
17994931,-2480,-7483,-5058,-15,63,-41,8
17994937,-2322,-7486,-5147,-13,61,-42,8
17994941,-2154,-7484,-5204,-12,61,-42,8
17994946,-1979,-7481,-5235,-10,60,-43,8
17994951,-1785,-7479,-5249,-8,58,-43,8
17994956,-1604,-7480,-5244,-6,56,-43,8
17994961,-1444,-7483,-5205,-4,54,-43,8
17994966,-1265,-7486,-5168,-3,53,-44,8
17994971,-1058,-7481,-5153,-1,52,-44,8
17994976,-836,-7476,-5148,0,51,-44,8
17994981,-618,-7466,-5132,2,51,-43,8
17994986,-402,-7458,-5102,4,50,-43,8
17994991,-183,-7458,-5058,5,50,-42,8
17994996,52,-7455,-5006,6,50,-42,8
17995002,303,-7455,-4945,8,47,-41,8
17995006,543,-7452,-4853,9,42,-41,8
17995011,754,-7453,-4726,11,37,-40,8
17995017,986,-7435,-4665,12,30,-40,8
17995021,1436,-7446,-4842,14,23,-39,8
17995027,1916,-7447,-4819,16,20,-39,8
17995031,2493,-7451,-4788,17,16,-37,8
17995036,2970,-7454,-4811,18,16,-37,8
17995041,3343,-7452,-4683,18,14,-37,8
17995046,3648,-7457,-4557,19,10,-37,8
17995052,3817,-7461,-4410,20,8,-37,8
17995057,3934,-7468,-4190,21,4,-35,8
17995061,4001,-7482,-4031,23,-1,-33,8
17995066,4109,-7494,-3876,24,-5,-31,8
17995071,4420,-7500,-3698,25,-7,-30,8
17995076,4620,-7506,-3530,25,-3,-29,8
17995081,4888,-7525,-3351,25,-12,-27,8
17995087,5042,-7537,-3158,26,-19,-26,8
17995091,5132,-7548,-2982,26,-22,-25,8
17995096,5304,-7560,-2781,27,-21,-24,8
17995101,5618,-7581,-2488,27,-17,-22,8
17995106,5984,-7590,-2175,27,-12,-19,8
17995112,6272,-7593,-1968,27,-10,-17,8
17995117,6641,-7601,-1720,27,-13,-16,8
17995122,6941,-7610,-1497,28,-15,-15,8
17995127,7176,-7624,-1329,28,-21,-13,8
17995132,7364,-7638,-1169,28,-26,-12,8
17995136,7464,-7655,-1075,29,-31,-10,8
17995141,7555,-7674,-1005,29,-36,-8,8
17995146,7627,-7690,-911,29,-40,-5,8
17995151,7718,-7702,-817,29,-45,-3,8
17995156,7826,-7715,-673,29,-47,-1,8
17995161,7919,-7722,-503,29,-49,1,8
17995167,8028,-7727,-317,28,-51,2,8
17995171,8096,-7731,-93,28,-52,4,8
17995177,8123,-7737,134,28,-55,5,8
17995182,8117,-7744,355,28,-58,7,8
17995187,8053,-7747,579,28,-62,9,8
17995191,7950,-7750,807,28,-66,10,8
17995196,7823,-7756,1038,27,-68,12,8
17995202,7665,-7762,1276,27,-68,14,8
17995207,7488,-7769,1520,26,-68,15,8
17995211,7300,-7775,1764,24,-67,16,8
17995216,7085,-7786,2008,23,-66,17,8
17995221,6840,-7795,2240,21,-64,18,8
17995226,6559,-7802,2478,19,-60,18,8
17995232,6300,-7807,2764,18,-54,19,8
17995236,6008,-7802,3084,17,-47,20,8
17995242,5754,-7799,3493,17,-40,21,8
17995247,5536,-7806,3903,17,-35,22,8
17995252,5303,-7814,4248,16,-34,23,8
17995257,5113,-7829,4619,15,-38,24,8
17995262,4906,-7838,4824,14,-41,25,8
17995267,4718,-7844,4912,13,-41,26,8
17995272,4522,-7849,4988,12,-37,26,8
17995277,4316,-7858,4947,11,-32,27,8
17995282,4114,-7872,4890,9,-26,27,8
17995287,3898,-7882,4845,7,-20,28,8
17995292,3698,-7888,4789,6,-14,28,8
17995297,3500,-7893,4777,4,-8,29,8
17995302,3315,-7893,4763,3,-4,29,8
17995307,3150,-7891,4738,2,-1,30,8
17995312,2983,-7889,4706,1,1,30,8
17995317,2811,-7888,4634,0,2,30,8
17995321,2619,-7886,4533,-1,3,30,8
17995327,2410,-7887,4399,-2,6,31,8
17995332,2189,-7891,4248,-3,11,31,8
17995337,1976,-7895,4077,-4,16,31,8
17995342,1780,-7902,3910,-5,20,31,8
17995347,1582,-7905,3741,-6,22,31,8
17995352,1361,-7905,3568,-6,23,31,8
17995356,1123,-7907,3389,-7,26,31,8
17995362,882,-7910,3209,-8,31,30,8
17995367,638,-7918,3017,-8,35,30,8
17995372,382,-7928,2812,-9,38,29,8
17995377,94,-7936,2593,-9,39,28,8
17995381,-230,-7948,2366,-10,38,27,8
17995386,-513,-7960,2132,-10,39,25,8
17995392,-776,-7966,1853,-10,41,24,8
17995397,-1033,-7974,1620,-10,43,23,8
17995402,-1323,-7983,1401,-10,42,23,8
17995407,-1605,-7999,1190,-9,38,21,8
17995412,-1839,-8013,992,-9,34,20,8
17995417,-2045,-8030,779,-8,30,18,8
17995422,-2236,-8054,607,-8,26,18,8
17995427,-2467,-8074,360,-8,21,17,8
17995432,-2735,-8097,105,-8,16,17,8
17995437,-3015,-8121,-106,-9,12,16,8
17995442,-3252,-8143,-272,-9,12,15,8
17995447,-3419,-8161,-350,-10,13,13,8
17995452,-3524,-8175,-367,-9,15,12,8
17995457,-3554,-8186,-363,-9,16,11,8
17995462,-3537,-8200,-366,-8,14,10,8
17995467,-3495,-8213,-398,-7,11,9,8
17995472,-3444,-8227,-476,-7,7,8,8
17995477,-3413,-8240,-579,-6,5,6,8
17995482,-3386,-8254,-677,-6,4,5,8
17995487,-3355,-8267,-755,-6,5,4,8
17995492,-3318,-8276,-785,-6,6,3,8
17995497,-3243,-8283,-772,-6,6,3,8
17995502,-3139,-8287,-728,-6,7,2,8
17995507,-3011,-8291,-662,-5,6,1,8
17995512,-2856,-8294,-601,-5,5,0,8
17995517,-2692,-8299,-550,-5,5,0,8
17995522,-2535,-8301,-518,-4,4,-1,8
17995527,-2383,-8302,-504,-4,4,-2,8
17995532,-2249,-8302,-492,-4,5,-2,8
17995537,-2120,-8304,-489,-4,5,-3,8
17995542,-1979,-8305,-479,-4,6,-3,8
17995547,-1826,-8306,-459,-4,7,-3,8
17995552,-1654,-8307,-428,-4,7,-3,8
17995557,-1460,-8306,-389,-3,7,-4,8
17995562,-1263,-8305,-346,-3,6,-4,8
17995567,-1074,-8305,-308,-3,5,-4,8
17995572,-891,-8303,-278,-3,4,-4,8
17995577,-732,-8299,-259,-3,3,-5,8
17995582,-589,-8296,-244,-3,3,-5,8
17995587,-463,-8295,-237,-3,3,-5,8
17995592,-346,-8293,-241,-2,3,-4,8
17995597,-228,-8289,-254,-2,4,-4,8
17995602,-111,-8288,-264,-2,4,-4,8
17995607,11,-8288,-271,-2,4,-4,8
17995612,129,-8286,-270,-2,4,-4,8
17995617,236,-8284,-260,-2,3,-4,8
17995622,329,-8282,-245,-2,1,-4,8
17995627,400,-8284,-226,-2,0,-4,8
17995632,459,-8284,-206,-2,0,-4,8
17995637,505,-8286,-192,-2,0,-3,8
17995642,545,-8288,-176,-1,0,-3,8
17995647,586,-8291,-164,-1,-1,-3,8
17995652,628,-8293,-151,-1,-1,-3,8
17995657,673,-8292,-136,-1,-2,-3,8
17995662,716,-8290,-116,-1,-2,-2,8
17995667,751,-8291,-100,-1,-2,-2,8
17995672,778,-8291,-78,-1,-1,-2,8
17995677,801,-8289,-57,-1,0,-2,0
17995682,818,-8287,-42,-1,1,-2,0
17995687,831,-8287,-32,-1,1,-1,0
17995692,834,-8287,-33,-1,2,-1,0
17995697,831,-8289,-25,-1,2,-1,0
17995702,819,-8290,-12,-1,2,-1,0
17995707,805,-8293,-6,-1,1,-1,0
17995712,790,-8293,2,-1,1,-1,0
17995717,771,-8292,17,-1,1,-1,0
17995722,752,-8292,38,-1,1,0,0
17995727,732,-8296,53,-1,1,0,0
17995732,709,-8296,69,-1,0,0,0
17995737,687,-8298,80,-1,-1,0,0
17995742,660,-8299,93,-1,-2,0,0
17995747,628,-8298,112,-1,-2,0,0
17995752,597,-8297,122,-1,-1,0,0
17995757,567,-8298,130,-1,-1,0,0
17995762,538,-8300,140,-1,0,0,0
17995767,518,-8301,150,-1,1,0,0
17995772,495,-8302,163,-1,1,0,0
17995777,472,-8303,169,-1,1,0,0
17995782,450,-8302,176,-1,1,0,0
17995787,424,-8301,177,-1,2,0,0
17995792,397,-8302,182,-1,3,0,0
17995797,372,-8303,185,-1,4,0,0
17995802,350,-8304,190,-1,5,0,0
17995807,332,-8303,198,-1,5,0,0
17995812,321,-8300,199,-1,5,0,0
17995817,313,-8298,197,-1,5,0,0
17995822,305,-8300,193,-1,4,0,0
17995827,298,-8300,194,-1,4,0,0
17995832,290,-8300,186,-1,3,0,0
17995837,282,-8301,176,-1,2,0,0
17995842,272,-8302,159,-1,1,0,0
17995847,261,-8303,143,-1,1,0,0
17995852,255,-8302,133,-1,0,0,0
17995857,254,-8300,126,-1,0,0,0
17995862,251,-8299,121,-1,-1,0,0
17995867,245,-8304,114,-1,-1,0,0
17995872,236,-8308,106,-1,-1,0,0
17995877,220,-8308,105,-1,-1,0,0
17995882,202,-8306,109,-1,-1,0,0
17995887,175,-8306,115,-1,-1,0,0
17995892,143,-8306,127,-1,0,0,0
17995897,118,-8304,143,-1,0,0,0
17995902,94,-8305,160,-1,0,0,0
17995907,71,-8309,176,-1,0,0,0
17995912,55,-8307,188,-1,1,-1,0
17995917,44,-8308,196,-1,1,-1,0
17995922,42,-8310,202,-1,2,-1,0
17995927,37,-8309,204,-1,2,-1,0
17995932,32,-8306,193,-1,2,-1,0
17995937,29,-8306,189,-1,3,-1,0
17995942,30,-8305,184,-1,3,-1,0
17995947,33,-8305,179,-1,3,-1,0
17995952,40,-8306,177,-1,3,-1,0
17995957,50,-8307,173,-1,2,-1,0
17995962,64,-8305,173,-1,2,-1,0
17995967,76,-8305,176,-1,2,-1,0
17995972,87,-8306,181,-1,2,-1,0
17995977,89,-8307,190,-1,3,-1,0
17995982,91,-8308,199,-1,3,-1,0
17995987,93,-8307,208,-1,4,-1,0
17995992,96,-8306,209,-1,5,-2,0
17995997,98,-8306,210,-1,5,-2,0
17996002,101,-8308,208,-1,5,-2,0
17996007,106,-8308,205,-1,5,-2,0
17996012,113,-8309,199,-1,5,-2,0
17996017,122,-8310,195,-1,5,-2,0
17996022,134,-8309,192,-1,6,-2,0
17996027,146,-8311,189,-1,6,-2,0
17996032,156,-8309,183,-1,7,-2,0
17996037,172,-8310,177,-1,7,-2,0
17996042,188,-8307,172,-1,7,-2,0
17996047,203,-8310,163,-1,7,-2,0
17996052,216,-8308,163,-1,7,-2,0
17996057,222,-8307,168,-2,7,-2,0
17996062,223,-8304,174,-2,8,-2,0
17996067,221,-8301,181,-2,8,-2,0
17996072,221,-8300,185,-2,10,-2,0
17996077,224,-8301,189,-2,11,-2,0
17996082,233,-8302,182,-2,13,-2,0
17996087,245,-8301,168,-2,14,-2,0
17996092,258,-8302,157,-2,16,-2,0
17996097,273,-8302,143,-2,17,-2,0
17996102,287,-8301,135,-2,17,-2,0
17996107,291,-8301,128,-2,18,-2,0
17996112,291,-8299,119,-2,20,-2,0
17996117,293,-8300,118,-2,21,-2,0
17996122,295,-8298,120,-2,23,-2,0
17996127,301,-8299,122,-2,25,-2,0
17996132,312,-8300,125,-2,27,-2,0
17996137,329,-8300,122,-2,29,-2,0
17996142,343,-8302,121,-2,30,-2,0
17996147,346,-8302,120,-2,30,-2,0
17996152,336,-8304,117,-2,30,-2,0
17996157,317,-8307,121,-2,31,-2,0
17996162,290,-8309,130,-2,34,-2,0
17996167,261,-8308,136,-2,38,-2,0
17996172,235,-8309,148,-2,43,-2,0
17996177,222,-8310,164,-2,48,-2,0
17996182,221,-8310,179,-2,52,-1,0
17996187,229,-8312,186,-2,55,-1,0
17996192,241,-8311,182,-2,57,-1,0
17996197,257,-8311,171,-2,59,-1,0
17996202,271,-8312,161,-2,61,-1,0
17996207,281,-8310,139,-3,63,-2,0
17996212,294,-8312,114,-2,64,-2,0
17996217,302,-8311,84,-3,65,-2,0
17996222,304,-8310,59,-3,65,-2,0
17996227,308,-8308,39,-2,65,-1,0
17996232,311,-8307,23,-2,65,-1,0
17996237,311,-8306,12,-2,65,-1,0
17996242,307,-8307,6,-2,65,-1,0
17996247,299,-8309,7,-2,65,-2,0
17996252,285,-8309,11,-2,64,-2,0
17996257,264,-8310,18,-2,64,-2,0
17996262,239,-8311,24,-2,64,-2,0
17996267,220,-8312,23,-2,64,-2,0
17996272,201,-8311,16,-2,65,-2,0
17996277,181,-8311,5,-2,66,-2,0
17996282,170,-8312,-5,-2,68,-2,0
17996287,165,-8312,-17,-2,69,-2,0
17996292,165,-8312,-33,-2,69,-2,0
17996297,168,-8312,-36,-2,68,-2,0
17996302,180,-8312,-37,-2,66,-2,0
17996307,192,-8308,-32,-2,64,-2,0
17996312,211,-8305,-29,-2,60,-2,0
17996317,228,-8301,-31,-2,56,-2,0
17996322,248,-8299,-42,-2,52,-2,0
17996327,268,-8301,-62,-2,48,-3,0
17996332,276,-8305,-85,-2,45,-3,0
17996337,279,-8306,-99,-2,42,-3,0
17996342,271,-8306,-113,-1,39,-3,0
17996347,260,-8306,-117,-1,36,-3,0
17996352,250,-8306,-121,-1,33,-3,0
17996357,244,-8305,-121,-1,31,-3,0
17996362,250,-8305,-117,-1,28,-3,0
17996367,259,-8306,-119,-1,26,-3,0
17996372,276,-8305,-125,-1,23,-3,0
17996377,296,-8303,-139,-1,20,-3,0
17996382,309,-8303,-158,-1,17,-3,0
17996387,315,-8301,-179,-1,14,-3,0
17996392,312,-8300,-200,-1,12,-4,0
17996397,305,-8299,-222,-1,9,-3,0
17996402,298,-8297,-237,0,8,-4,0
17996407,295,-8297,-258,0,6,-4,0
17996412,300,-8297,-278,0,4,-4,0
17996417,312,-8294,-296,0,3,-4,0
17996422,334,-8296,-302,0,0,-4,0
17996427,356,-8296,-297,0,-2,-4,0
17996432,371,-8296,-285,0,-5,-4,0
17996437,382,-8298,-262,0,-7,-4,0
17996442,391,-8296,-228,0,-7,-4,0
17996447,404,-8297,-189,0,-5,-4,0
17996452,428,-8300,-140,0,-3,-4,0
17996457,464,-8301,-91,0,-1,-4,0
17996462,515,-8305,-49,0,1,-3,0
17996467,577,-8303,-9,0,1,-3,0
17996472,647,-8304,20,0,0,-3,0
17996477,718,-8302,37,0,-3,-3,0
17996482,790,-8302,37,0,-6,-3,0
17996487,857,-8300,32,0,-9,-3,0
17996492,915,-8299,21,0,-12,-3,0
17996497,974,-8299,17,0,-14,-2,0
17996502,1033,-8296,19,0,-15,-2,0
17996507,1081,-8293,24,0,-15,-2,0
17996512,1115,-8294,30,0,-15,-2,0
17996517,1135,-8290,38,0,-14,-2,0
17996522,1144,-8291,45,0,-14,-1,0
17996527,1144,-8296,54,0,-13,-1,0
17996532,1133,-8296,61,0,-12,-1,0
17996537,1114,-8296,68,0,-12,-1,0
17996542,1091,-8298,68,0,-13,0,0
17996547,1064,-8297,70,0,-13,0,0
17996552,1035,-8295,68,0,-12,0,0
17996557,1002,-8293,60,0,-12,0,0
17996562,970,-8294,44,0,-11,0,0
17996567,940,-8296,21,0,-9,0,0
17996572,915,-8298,1,0,-7,0,0
17996577,890,-8301,-20,0,-5,0,0
17996582,867,-8303,-34,0,-5,0,0
17996587,840,-8305,-44,0,-6,0,0
17996592,807,-8305,-55,0,-8,1,0
17996597,777,-8307,-61,0,-10,0,0
17996602,766,-8310,-61,0,-11,0,0
17996607,764,-8309,-68,0,-11,0,0
17996612,742,-8310,-83,0,-11,0,0
17996617,713,-8316,-101,0,-12,0,0
17996622,681,-8313,-112,0,-12,0,0
17996627,629,-8289,-126,0,-12,0,0
17996632,631,-8314,-129,0,-12,0,0
17996637,585,-8299,-130,0,-10,0,0
17996642,554,-8306,-120,0,-10,0,0
17996647,494,-8304,-132,0,-7,1,0
17996652,417,-8309,-139,0,-3,1,0
17996657,374,-8316,-135,0,1,1,0
17996662,353,-8314,-129,0,5,1,0
17996667,389,-8330,-107,0,8,1,0
17996672,436,-8360,-78,0,8,1,0
17996677,478,-8401,-42,0,4,0,0
17996682,488,-8447,-14,0,0,0,0
17996687,492,-8492,-2,0,-3,0,0
17996692,492,-8528,-14,0,-5,0,0
17996697,513,-8560,-20,0,-4,0,0
17996702,532,-8585,-27,0,-3,0,0
17996707,555,-8602,-11,0,-3,0,0
17996712,564,-8617,7,0,-5,0,0
17996717,571,-8630,13,0,-7,0,0
17996722,578,-8644,-6,0,-8,0,0
17996727,594,-8653,-28,0,-7,0,0
17996732,608,-8661,-48,-1,-7,0,0
17996737,622,-8664,-54,-1,-6,0,0
17996742,628,-8661,-52,-1,-6,0,0
17996747,637,-8655,-55,-1,-6,0,0
17996752,651,-8641,-67,-1,-6,0,0
17996757,668,-8615,-83,-1,-7,-1,0
17996762,677,-8580,-93,-1,-8,-1,0
17996767,682,-8536,-102,-1,-8,-1,0
17996772,685,-8487,-114,-1,-8,-1,0
17996777,693,-8431,-132,-1,-8,-1,0
17996782,710,-8383,-156,0,-7,-1,0
17996787,727,-8337,-177,0,-7,-1,0
17996792,739,-8294,-196,0,-6,-1,0
17996797,744,-8254,-203,0,-6,-1,0
17996802,743,-8215,-202,0,-7,-1,0
17996807,738,-8178,-210,0,-7,-1,0
17996812,740,-8144,-222,0,-6,-1,0
17996817,742,-8115,-231,0,-5,-1,0
17996822,743,-8084,-234,0,-5,-1,0
17996827,740,-8051,-214,0,-7,-1,0
17996832,735,-8018,-197,0,-10,-1,0
17996837,721,-7979,-187,0,-14,-1,0
17996842,707,-7934,-185,0,-16,-1,0
17996847,684,-7888,-191,0,-16,-1,0
17996852,656,-7847,-202,0,-15,-2,0
17996857,630,-7816,-200,0,-14,-2,0
17996862,608,-7800,-185,0,-14,-2,0
17996867,594,-7795,-163,0,-15,-2,0
17996872,587,-7799,-143,1,-17,-2,0
17996877,575,-7813,-137,1,-19,-3,0
17996882,559,-7837,-130,1,-21,-3,0
17996887,537,-7866,-126,1,-23,-3,0
17996892,512,-7891,-115,1,-23,-3,0
17996897,492,-7912,-97,1,-24,-4,0
17996902,477,-7923,-81,1,-23,-4,0
17996907,462,-7930,-71,1,-23,-4,0
17996912,448,-7932,-67,1,-23,-4,0
17996917,429,-7926,-64,1,-23,-4,0
17996922,403,-7913,-53,1,-22,-5,0
17996927,376,-7898,-39,1,-20,-5,0
17996932,350,-7884,-23,1,-17,-5,0
17996937,335,-7877,-16,0,-14,-5,0
17996942,326,-7882,-12,0,-11,-6,0
17996947,330,-7899,-8,0,-9,-6,0
17996952,344,-7927,1,0,-9,-6,0
17996957,363,-7964,12,0,-9,-6,0
17996962,387,-8006,24,0,-10,-6,0
17996967,409,-8046,28,0,-10,-6,0
17996972,432,-8086,33,0,-11,-7,0
17996977,456,-8119,39,0,-12,-7,0
17996982,477,-8147,52,0,-13,-7,0
17996987,500,-8165,66,0,-14,-7,0
17996992,527,-8404,86,0,-15,-7,0
17996997,1282,-8985,-2,0,-22,-8,0
17997002,849,-8699,135,0,-40,-4,0
17997007,282,-8441,317,1,-56,-1,0
17997012,121,-8608,328,0,-27,-2,0
17997017,508,-8525,214,-1,-6,-3,0
17997022,139,-8624,429,-1,1,-2,0
17997027,130,-8518,412,-1,-6,-2,0
17997032,-27,-8507,532,0,-3,0,0
17997037,217,-8459,404,0,-5,0,0
17997042,239,-8393,316,0,4,0,0
17997047,486,-8421,205,-1,0,0,0
17997052,522,-8392,153,-1,1,0,0
17997057,497,-8394,204,-1,-8,0,0
17997062,534,-8368,124,0,-12,0,0
17997067,576,-8331,148,0,-13,1,0
17997072,610,-8276,38,0,-13,1,0
17997077,642,-8231,16,0,-12,0,0
17997082,692,-8322,-2,-1,-11,0,0
17997087,559,-8309,51,0,-14,0,0
17997092,510,-8287,94,0,-16,1,0
17997097,452,-8319,101,0,-12,1,0
17997102,450,-8317,100,0,-11,1,0
17997107,424,-8310,112,0,-6,1,0
17997112,353,-8306,140,0,-4,1,0
17997117,385,-8306,135,0,-2,1,0
17997122,389,-8312,121,0,2,1,0
17997127,368,-8311,118,0,4,1,0
17997132,408,-8310,83,0,6,1,0
17997137,418,-8309,69,0,9,1,0
17997142,399,-8310,64,0,9,1,0
17997147,424,-8305,45,0,9,1,0
17997152,429,-8300,62,0,9,1,0
17997157,412,-8299,72,0,7,1,0
17997162,441,-8296,79,0,4,1,0
17997167,439,-8295,111,0,1,1,0
17997172,409,-8296,123,0,-2,1,0
17997177,399,-8297,132,0,-4,0,0
17997182,359,-8298,133,0,-4,0,0
17997187,311,-8302,122,0,-4,0,0
17997192,275,-8305,114,0,-4,0,0
17997197,244,-8309,115,0,-3,0,0
17997202,210,-8310,107,0,-4,0,0
17997207,194,-8313,102,0,-4,0,0
17997212,191,-8315,92,0,-4,0,0
17997217,171,-8315,85,0,-4,0,0
17997222,161,-8317,73,0,-4,-1,0
17997227,163,-8317,60,0,-4,-1,0
17997232,137,-8318,52,0,-4,-1,0
17997237,118,-8318,39,0,-3,-1,0
17997242,113,-8320,25,0,-2,-1,0
17997247,94,-8318,11,0,-1,-1,0
17997252,86,-8319,0,0,-1,-1,0
17997257,93,-8318,-16,0,0,-1,0
17997262,86,-8315,-26,0,1,-2,0
17997267,82,-8310,-39,0,2,-2,0
17997272,95,-8309,-50,0,3,-2,0
17997277,101,-8308,-54,0,4,-2,0
17997282,110,-8306,-58,0,6,-2,0
17997287,136,-8307,-55,0,7,-2,0
17997292,157,-8308,-47,0,9,-2,0
17997297,186,-8312,-32,0,10,-2,0
17997302,237,-8315,-15,0,10,-2,0
17997307,274,-8317,14,0,10,-2,0
17997312,318,-8317,53,0,10,-2,0
17997317,378,-8316,99,0,9,-2,0
17997322,418,-8318,148,0,7,-2,0
17997327,454,-8318,185,0,5,-2,0
17997332,492,-8315,208,-1,4,-2,0
17997337,502,-8315,232,0,3,-2,0
17997342,521,-8316,244,-1,3,-2,0
17997347,537,-8318,243,-1,3,-2,0
17997352,533,-8319,249,-1,5,-2,0
17997357,542,-8318,251,-1,6,-2,0
17997362,550,-8314,250,-1,8,-2,0
17997367,550,-8315,255,-1,11,-2,0
17997372,571,-8313,252,-1,13,-2,0
17997377,591,-8312,254,-1,14,-2,0
17997382,601,-8311,247,-1,15,-2,0
17997387,630,-8311,223,-1,16,-2,0
17997392,663,-8310,199,-1,17,-2,0
17997397,686,-8309,176,-1,17,-2,0
17997402,733,-8306,148,-1,16,-2,0
17997407,776,-8305,122,-1,15,-2,0
17997412,803,-8304,107,-1,13,-1,0
17997417,847,-8302,93,-1,10,-1,0
17997422,869,-8302,82,-1,7,-1,0
17997427,867,-8304,81,-1,4,-1,0
17997432,870,-8303,81,-1,1,-1,0
17997437,853,-8304,78,-1,0,-1,0
17997442,821,-8306,70,-1,-1,-1,0
17997447,803,-8308,58,-1,-1,-1,0
17997452,781,-8306,43,-1,0,-1,0
17997457,759,-8304,30,-1,0,-1,0
17997462,754,-8301,13,-1,0,-1,0
17997467,744,-8300,-2,-1,0,-1,0
17997472,735,-8297,-19,-1,1,-1,0
17997477,735,-8299,-39,-1,1,-1,0
17997482,730,-8302,-52,-1,2,-1,0
17997487,727,-8307,-63,-1,2,-1,0
17997492,732,-8311,-77,-1,2,-1,0
17997497,731,-8314,-85,-1,1,-1,0
17997502,735,-8315,-90,-1,0,-1,0
17997507,751,-8314,-99,-1,-1,-1,0
17997512,752,-8311,-108,-1,-1,-1,0
17997517,762,-8308,-121,-1,-2,-1,0
17997522,786,-8304,-138,0,-2,0,0
17997527,796,-8304,-156,0,-1,0,0
17997532,811,-8306,-171,0,-2,0,0
17997537,819,-8306,-190,0,-2,0,0
17997542,807,-8307,-198,0,-2,0,0
17997547,793,-8308,-199,0,-3,0,0
17997552,773,-8309,-192,0,-3,0,0
17997557,742,-8310,-177,0,-4,0,0
17997562,725,-8309,-154,0,-4,0,0
17997567,717,-8308,-132,0,-5,0,0
17997572,703,-8307,-109,0,-5,0,0
17997577,703,-8310,-90,0,-5,0,0
17997582,705,-8310,-75,0,-6,0,0
17997587,700,-8310,-50,0,-7,0,0
17997592,700,-8308,-26,0,-8,0,0
17997597,703,-8307,-4,0,-11,0,0
17997602,697,-8305,15,0,-13,0,0
17997607,698,-8305,29,0,-15,0,0
17997612,696,-8306,32,0,-16,0,0
17997617,689,-8309,38,0,-18,0,0
17997622,696,-8309,45,0,-20,0,0
17997627,697,-8309,50,0,-22,0,0
17997632,693,-8308,57,0,-24,0,0
17997637,689,-8306,60,0,-26,0,0
17997642,674,-8303,66,0,-27,0,0
17997647,663,-8302,72,0,-29,0,0
17997652,655,-8301,78,0,-29,0,0
17997657,643,-8302,84,0,-30,0,0
17997662,639,-8304,85,0,-30,0,0
17997667,642,-8306,82,0,-31,0,0
17997672,646,-8306,92,0,-32,0,0
17997677,661,-8307,107,0,-35,0,0
17997682,681,-8307,115,0,-38,0,0
17997687,699,-8307,125,0,-42,0,0
17997692,720,-8308,137,0,-47,0,0
17997697,745,-8306,147,0,-52,0,0
17997702,759,-8306,154,0,-58,0,0
17997707,775,-8309,156,0,-63,0,0
17997712,787,-8306,163,0,-68,0,0
17997717,791,-8305,178,0,-72,0,0
17997722,804,-8305,196,0,-78,0,0
17997727,817,-8305,225,0,-84,0,0
17997732,822,-8305,256,0,-90,0,0
17997737,834,-8305,288,0,-98,0,0
17997742,846,-8305,312,0,-104,0,0
17997747,853,-8308,325,1,-111,0,0
17997752,863,-8308,319,1,-117,0,0
17997757,857,-8308,310,1,-122,0,0
17997762,841,-8307,304,1,-126,0,0
17997767,824,-8307,296,0,-130,0,0
17997772,804,-8308,295,0,-133,0,0
17997777,789,-8307,299,0,-136,0,0
17997782,786,-8307,303,0,-139,0,0
17997787,789,-8307,315,1,-140,1,0
17997792,806,-8309,325,1,-142,1,0
17997797,830,-8312,328,1,-144,1,0
17997802,835,-8312,328,0,-146,1,0
17997807,830,-8312,341,0,-147,1,0
17997812,817,-8308,355,0,-147,1,0
17997817,782,-8310,384,0,-147,1,0
17997822,738,-8315,428,0,-146,1,0
17997827,695,-8316,472,0,-145,1,0
17997832,646,-8316,513,0,-142,1,0
17997837,612,-8318,540,0,-137,1,0
17997842,594,-8316,550,0,-131,1,0
17997847,577,-8318,545,-1,-124,1,0
17997852,568,-8317,517,-1,-117,1,0
17997857,559,-8315,474,-1,-110,1,0
17997862,535,-8311,425,-1,-102,1,0
17997867,508,-8307,370,-1,-95,1,0
17997872,471,-8303,313,-1,-87,1,0
17997877,410,-8303,258,-1,-78,1,0
17997882,337,-8305,201,-1,-69,1,0
17997887,255,-8305,152,-1,-59,1,0
17997892,157,-8309,101,-1,-48,1,0
17997897,65,-8311,50,-1,-38,1,0
17997902,-17,-8311,7,-2,-30,1,0
17997907,-88,-8314,-21,-2,-22,1,0
17997912,-135,-8316,-48,-2,-15,1,0
17997917,-164,-8316,-69,-2,-8,1,0
17997922,-170,-8316,-93,-2,-2,1,0
17997927,-150,-8315,-108,-2,4,0,0
17997932,-120,-8315,-127,-2,9,0,0
17997937,-96,-8314,-136,-2,12,0,0
17997942,-70,-8312,-145,-2,17,0,0
17997947,-56,-8313,-157,-2,22,0,0
17997952,-46,-8314,-166,-2,28,0,0
17997957,-33,-8315,-175,-2,35,0,0
17997962,-16,-8316,-182,-2,42,0,0
17997967,15,-8315,-180,-2,47,0,0
17997972,56,-8317,-179,-2,51,0,0
17997977,101,-8317,-172,-2,53,0,0
17997982,148,-8316,-166,-2,54,0,0
17997987,190,-8313,-160,-2,55,0,0
17997992,223,-8310,-152,-1,55,-1,0
17997997,241,-8311,-148,-1,55,-1,0
17998002,237,-8313,-145,-1,56,-1,0
17998007,221,-8313,-144,-1,57,-1,0
17998012,204,-8312,-144,-1,57,-1,0
17998017,204,-8312,-147,-1,58,-1,0
17998022,217,-8309,-139,-1,57,-1,0
17998027,254,-8305,-121,-1,55,-1,0
17998032,305,-8303,-107,-1,52,-1,0
17998037,349,-8301,-91,-1,50,-1,0
17998042,394,-8299,-77,-1,48,-1,0
17998047,442,-8295,-72,-1,45,-1,0
17998052,481,-8295,-75,-1,41,-1,0
17998057,523,-8295,-84,-1,34,-1,0
17998062,562,-8296,-94,-1,26,-1,0
17998067,599,-8299,-115,0,19,-1,0
17998072,634,-8300,-143,0,13,-1,0
17998077,647,-8302,-185,0,9,-1,0
17998082,648,-8304,-226,0,6,-1,0
17998087,638,-8305,-265,0,4,-1,0
17998092,610,-8307,-299,0,1,-1,0
17998097,564,-8308,-322,0,-1,-1,0
17998102,506,-8308,-328,0,-2,-1,0
17998107,448,-8309,-307,1,-3,-1,0
17998112,409,-8309,-263,1,-4,-1,0
17998117,405,-8310,-198,1,-8,-1,0
17998122,439,-8310,-124,1,-15,-1,0
17998127,507,-8312,-47,1,-25,-1,0
17998132,599,-8313,19,1,-35,-1,0
17998137,684,-8313,66,1,-42,-1,0
17998142,753,-8314,90,1,-47,-1,0
17998147,797,-8312,105,1,-49,-1,0
17998152,795,-8315,111,0,-48,-1,0
17998157,765,-8311,121,0,-44,-1,0
17998162,720,-8306,133,0,-39,-1,0
17998167,669,-8303,141,0,-34,-1,0
17998172,629,-8302,152,0,-30,-1,0
17998177,599,-8305,151,1,-26,-1,0
17998182,578,-8308,131,1,-24,-1,0
17998187,570,-8309,108,1,-22,-1,0
17998192,563,-8310,87,0,-21,-1,0
17998197,554,-8308,71,0,-21,-1,0
17998202,539,-8307,64,0,-21,-1,0
17998207,521,-8306,78,0,-20,-1,0
17998212,500,-8305,100,0,-20,-1,0
17998217,486,-8304,117,0,-18,-1,0
17998222,476,-8305,141,0,-16,-1,0
17998227,477,-8305,154,0,-14,-1,0
17998232,485,-8307,166,0,-12,-1,0
17998237,487,-8309,186,0,-10,-1,0
17998242,486,-8312,195,0,-8,-1,0
17998247,479,-8312,205,-1,-6,-1,0
17998252,461,-8311,213,-1,-5,-1,0
17998257,447,-8310,215,-1,-3,-1,0
17998262,439,-8310,208,-1,-2,-1,0
17998267,436,-8309,197,-1,-1,-1,0
17998272,445,-8309,179,-1,0,-1,0
17998277,457,-8310,164,-1,1,-1,0
17998282,468,-8311,154,-1,3,-1,0
17998287,479,-8310,145,-1,4,-1,0
17998292,483,-8309,142,-1,6,-1,0
17998297,487,-8309,139,-1,8,-1,0
17998302,487,-8308,130,-1,10,-1,0
17998307,488,-8305,123,-1,12,-1,0
17998312,496,-8305,114,-1,15,-1,0
17998317,512,-8307,115,-1,17,-1,0
17998322,530,-8307,127,-1,17,-1,0
17998327,545,-8306,144,-1,17,-1,0
17998332,564,-8308,155,-1,15,-1,0
17998337,575,-8306,165,-1,13,-1,0
17998342,576,-8305,168,-1,11,-1,0
17998347,574,-8306,160,-1,9,-1,0
17998352,570,-8307,150,-1,9,-1,0
17998357,564,-8309,137,-1,9,-1,0
17998362,569,-8309,122,-1,10,-1,0
17998367,572,-8310,106,-1,10,-1,0
17998372,583,-8310,100,-1,9,-1,0
17998377,602,-8310,85,-1,8,-1,0
17998382,621,-8310,74,-1,6,-1,0
17998387,639,-8311,58,-1,4,0,0
17998392,655,-8308,42,-1,2,0,0
17998397,656,-8304,33,-1,0,-1,0
17998402,649,-8300,22,-1,-2,-1,0
17998407,639,-8299,3,-1,-3,-1,0
17998412,626,-8301,1,-1,-3,-1,0
17998417,614,-8303,-1,-1,-4,-1,0
17998422,610,-8302,-5,-1,-5,0,0
17998427,607,-8302,-12,-1,-7,0,0
17998432,613,-8302,-22,-1,-9,0,0
17998437,628,-8303,-30,-1,-12,0,0
17998442,643,-8302,-43,-1,-14,0,0
17998447,662,-8302,-52,-1,-18,0,0
17998452,674,-8307,-59,0,-22,0,0
17998457,676,-8306,-63,-1,-25,0,0
17998462,674,-8308,-62,0,-28,-1,0
17998467,664,-8311,-52,0,-29,0,0
17998472,648,-8312,-38,0,-29,0,0
17998477,628,-8313,-28,0,-28,0,0
17998482,608,-8314,-11,0,-27,0,0
17998487,588,-8314,5,0,-25,0,0
17998492,573,-8313,23,0,-23,0,0
17998497,564,-8311,45,-1,-22,0,0
17998502,557,-8311,67,-1,-21,0,0
17998507,553,-8309,92,-1,-21,0,0
17998512,545,-8307,117,-1,-22,0,0
17998517,538,-8306,133,-1,-22,0,0
17998522,534,-8307,142,-1,-22,0,0
17998527,529,-8308,138,-1,-22,0,0
17998532,522,-8309,125,-1,-21,0,0
17998537,523,-8309,107,-1,-19,0,0
17998542,525,-8312,87,-1,-17,0,0
17998547,533,-8312,61,-1,-16,0,0
17998552,545,-8309,46,-1,-16,0,0
17998557,556,-8308,37,-1,-16,0,0
17998562,568,-8308,36,-1,-17,0,0
17998567,578,-8306,43,-1,-17,0,0
17998572,579,-8306,51,-1,-18,0,0
17998577,581,-8307,56,-1,-18,0,0
17998582,577,-8306,60,-1,-17,0,0
17998587,573,-8307,68,-1,-16,0,0
17998592,574,-8308,76,-1,-14,0,0
17998597,573,-8310,85,-1,-13,0,0
17998602,565,-8307,100,-1,-12,0,0
17998607,560,-8308,124,-1,-11,0,0
17998612,557,-8310,147,-1,-10,0,0
17998617,548,-8312,177,-1,-9,0,0
17998622,537,-8310,210,-2,-8,0,0
17998627,523,-8309,236,-2,-6,0,0
17998632,507,-8308,266,-2,-4,0,0
17998637,497,-8307,284,-2,-1,0,0
17998642,491,-8305,295,-2,1,0,0
17998647,485,-8310,295,-2,2,0,0
17998652,474,-8313,280,-2,3,0,0
17998657,463,-8312,267,-2,5,0,0
17998662,454,-8312,249,-2,7,0,0
17998667,448,-8311,227,-3,9,0,0
17998672,446,-8310,208,-3,10,0,0
17998677,449,-8310,187,-3,10,0,0
17998682,452,-8310,163,-3,10,0,0
17998687,458,-8309,138,-3,10,0,0
17998692,467,-8307,116,-3,9,0,0
17998697,483,-8305,92,-3,8,0,0
17998702,493,-8303,55,-3,7,0,0
17998707,499,-8305,19,-2,6,0,0
17998712,503,-8305,-13,-2,6,0,0
17998717,501,-8307,-39,-2,5,0,0
17998722,495,-8306,-65,-2,5,0,0
17998727,487,-8308,-84,-2,5,0,0
17998732,477,-8306,-95,-2,5,0,0
17998737,472,-8304,-105,-2,5,0,0
17998742,470,-8302,-110,-2,4,0,0
17998747,469,-8301,-109,-2,3,0,0
17998752,468,-8301,-115,-2,2,0,0
17998757,470,-8300,-130,-2,2,0,0
17998762,469,-8298,-144,-2,2,0,0
17998767,474,-8298,-164,-2,2,0,0
17998772,473,-8298,-184,-2,1,0,0
17998777,470,-8301,-200,-2,1,0,0
17998782,470,-8300,-206,-2,0,0,0
17998787,471,-8303,-213,-2,0,0,0
17998792,475,-8303,-220,-2,0,0,0
17998797,481,-8302,-223,-2,0,0,0
17998802,489,-8303,-230,-1,0,0,0
17998807,495,-8305,-232,-1,0,0,0
17998812,497,-8307,-239,-1,-1,0,0
17998817,499,-8309,-243,-1,-1,0,0
17998822,499,-8310,-238,-1,-1,0,0
17998827,496,-8308,-233,-1,-1,0,0
17998832,493,-8310,-227,-1,-1,0,0
17998837,490,-8308,-226,-1,-1,0,0
17998842,491,-8306,-226,-1,-1,0,0
17998847,490,-8307,-225,-1,0,0,0
17998852,486,-8308,-214,-1,0,0,0
17998857,485,-8307,-212,-1,-1,0,0
17998862,483,-8306,-211,-1,-1,0,0
17998867,480,-8308,-212,-1,-1,0,0
17998872,477,-8308,-217,-1,-1,0,0
17998877,475,-8309,-208,-1,-1,0,0
