millis,ax,ay,az,gx,gy,gz,label
54744,474,-8193,-35,-2,-4,-1,0
54749,480,-8193,-35,-2,-4,-1,0
54754,484,-8193,-31,-2,-4,-1,0
54759,488,-8193,-33,-2,-5,-1,0
54764,499,-8193,-38,-2,-5,-1,0
54769,510,-8194,-52,-2,-5,-1,0
54774,523,-8193,-67,-2,-5,-1,0
54779,536,-8192,-79,-2,-6,-1,0
54784,546,-8190,-88,-2,-6,-1,0
54789,557,-8189,-93,-2,-6,-1,0
54794,565,-8185,-100,-3,-6,-1,0
54799,576,-8186,-107,-2,-6,-1,0
54804,582,-8187,-113,-3,-7,-1,0
54810,588,-8189,-118,-2,-8,-1,0
54814,592,-8189,-125,-3,-9,-1,0
54819,599,-8190,-135,-3,-9,-1,0
54824,603,-8189,-142,-3,-10,-1,0
54830,606,-8187,-152,-3,-10,-1,0
54835,611,-8185,-167,-3,-9,-1,0
54840,617,-8186,-185,-3,-9,-1,0
54845,621,-8185,-202,-3,-8,-1,0
54851,630,-8185,-218,-3,-8,-1,0
54856,639,-8185,-231,-3,-7,-1,0
54861,649,-8187,-241,-3,-7,-1,0
54866,658,-8187,-251,-3,-7,-1,0
54872,665,-8185,-259,-3,-6,-1,0
54877,672,-8186,-261,-3,-6,-1,0
54882,680,-8189,-263,-3,-6,-1,0
54887,685,-8190,-266,-3,-6,-1,0
54893,691,-8189,-271,-3,-6,-1,0
54898,693,-8189,-284,-3,-6,-1,0
54903,695,-8190,-298,-2,-6,-1,0
54908,695,-8188,-308,-2,-6,-1,0
54913,692,-8188,-313,-3,-5,-1,0
54919,688,-8185,-322,-3,-5,-1,0
54923,684,-8185,-333,-2,-5,-1,0
54928,679,-8183,-340,-2,-5,-1,0
54934,675,-8181,-342,-2,-5,-1,0
54939,672,-8182,-346,-2,-5,-1,0
54944,671,-8182,-346,-2,-5,-1,0
54948,671,-8183,-350,-2,-6,-1,0
54953,671,-8181,-356,-2,-6,-1,0
54959,674,-8181,-361,-2,-6,-1,0
54963,676,-8182,-365,-2,-5,-1,0
54969,680,-8181,-377,-2,-5,-1,0
54974,683,-8180,-388,-2,-5,-1,0
54979,686,-8180,-398,-2,-4,-1,0
54983,689,-8180,-409,-2,-4,-1,0
54989,690,-8182,-417,-2,-4,-1,0
54994,690,-8181,-421,-2,-3,-1,0
54999,689,-8181,-417,-2,-3,-1,0
55004,685,-8181,-417,-2,-2,-1,0
55009,682,-8182,-415,-2,-2,-1,0
55014,679,-8182,-413,-2,-2,-1,0
55020,676,-8183,-410,-2,-2,-1,0
55024,673,-8183,-407,-2,-2,-1,0
55030,671,-8185,-402,-2,-2,-1,0
55035,668,-8184,-396,-2,-2,0,0
55040,665,-8182,-393,-1,-2,0,0
55044,664,-8178,-393,-1,-2,-1,0
55049,662,-8179,-390,-1,-2,-1,0
55053,662,-8179,-390,-1,-2,-1,0
55057,660,-8181,-384,-1,-2,0,0
55061,663,-8184,-383,-1,-2,0,0
55067,661,-8186,-380,-1,-2,0,0
55071,661,-8186,-380,-1,-2,-1,0
55075,660,-8185,-376,-1,-1,-1,0
55079,656,-8185,-375,-1,-1,-1,0
55084,650,-8184,-374,-1,-1,0,0
55089,645,-8185,-368,-1,-1,-1,0
55094,641,-8184,-357,-1,-2,-1,0
55099,637,-8185,-346,-1,-2,-1,0
55104,633,-8183,-337,-1,-2,-1,0
55109,630,-8186,-331,-1,-1,-1,0
55114,633,-8185,-326,-1,-1,-1,0
55119,634,-8184,-324,-1,-2,-1,0
55124,638,-8182,-320,-1,-2,-1,0
55129,642,-8182,-312,-1,-2,-1,0
55134,647,-8182,-306,-1,-2,-1,0
55139,656,-8181,-297,-1,-3,-1,0
55144,662,-8181,-294,-1,-3,-1,0
55149,670,-8180,-291,-1,-3,-1,0
55154,677,-8181,-290,-1,-3,-1,0
55160,686,-8182,-290,-1,-4,-1,0
55164,694,-8182,-291,-1,-4,-1,0
55169,702,-8181,-294,-1,-4,-1,0
55174,706,-8180,-295,-1,-4,-1,0
55179,707,-8181,-295,-1,-3,-1,0
55184,711,-8180,-296,-1,-3,0,0
55189,710,-8178,-293,-1,-3,-1,0
55194,711,-8178,-291,-1,-2,0,0
55199,708,-8177,-287,-1,-2,0,0
55204,711,-8177,-276,-1,-2,0,0
55209,713,-8178,-266,-1,-2,0,0
55214,715,-8182,-253,-1,-2,0,0
55219,717,-8183,-232,-1,-2,0,0
55224,716,-8183,-212,-1,-2,0,0
55229,717,-8179,-196,-1,-2,0,0
55234,716,-8177,-185,-1,-2,0,0
55239,718,-8176,-178,-1,-2,0,0
55244,717,-8179,-170,-1,-1,0,0
55249,715,-8180,-165,-1,-1,0,0
55254,712,-8181,-163,-1,-1,0,0
55259,712,-8184,-164,-1,-1,0,0
55264,710,-8183,-163,-1,-2,0,0
55270,707,-8183,-162,-1,-2,0,0
55276,705,-8186,-166,-1,-2,0,0
55281,704,-8186,-168,-1,-2,0,0
55287,704,-8186,-174,-1,-2,0,0
55293,705,-8187,-183,-1,-2,0,0
55299,702,-8188,-188,-1,-3,0,0
55304,702,-8189,-192,-1,-3,0,0
55309,701,-8186,-196,-1,-3,0,0
55315,700,-8187,-207,-1,-3,0,0
55321,695,-8187,-208,-1,-3,0,0
55327,691,-8189,-208,-1,-3,0,0
55333,689,-8191,-205,-1,-3,0,0
55339,687,-8191,-200,-1,-3,0,0
55344,688,-8191,-194,-1,-3,0,0
55350,688,-8189,-184,-1,-3,0,0
55356,688,-8188,-172,-1,-3,0,0
55362,692,-8188,-161,-1,-3,0,0
55367,694,-8191,-154,-1,-3,0,0
55372,690,-8189,-149,-1,-3,0,0
55377,690,-8186,-149,-1,-4,0,0
55382,689,-8185,-151,-1,-4,0,0
55387,688,-8183,-149,-1,-5,0,0
55392,687,-8184,-150,-1,-5,0,0
55397,686,-8184,-150,-1,-6,0,0
55402,686,-8185,-147,-1,-6,0,0
55407,686,-8183,-146,-1,-6,0,0
55412,688,-8185,-143,-1,-6,0,0
55417,691,-8183,-140,-1,-6,0,0
55422,697,-8184,-138,-1,-6,0,0
55426,702,-8185,-137,-1,-5,0,0
55432,707,-8186,-135,-1,-5,0,0
55437,710,-8185,-130,-1,-5,0,0
55442,714,-8185,-122,-1,-4,0,0
55447,716,-8183,-112,-1,-4,0,0
55452,720,-8183,-102,-1,-4,0,0
55456,721,-8183,-95,-1,-4,0,0
55460,721,-8181,-87,-2,-4,0,0
55465,720,-8183,-81,-2,-3,0,0
55469,716,-8185,-77,-2,-3,0,0
55473,708,-8185,-75,-2,-2,0,0
55477,702,-8185,-77,-2,-1,0,0
55482,701,-8184,-76,-2,0,0,0
55488,703,-8186,-76,-2,1,0,0
55494,705,-8188,-69,-2,2,0,0
55499,706,-8189,-53,-2,2,0,0
55503,707,-8187,-41,-2,2,0,0
55508,703,-8188,-27,-2,2,0,0
55513,698,-8187,-23,-2,2,0,0
55518,692,-8189,-22,-2,2,0,0
55522,685,-8190,-27,-2,2,0,0
55527,678,-8188,-30,-2,1,0,0
55532,669,-8187,-34,-2,1,0,0
55537,661,-8187,-41,-2,1,0,0
55541,656,-8187,-45,-2,1,0,0
55546,652,-8186,-46,-2,1,0,0
55551,650,-8183,-45,-2,0,0,0
55556,646,-8181,-50,-2,0,0,0
55560,637,-8183,-58,-2,0,0,0
55565,625,-8185,-65,-2,0,0,0
55570,612,-8189,-72,-2,-1,0,0
55575,602,-8190,-80,-2,-1,0,0
55580,596,-8189,-88,-2,-1,0,0
55584,587,-8191,-95,-2,-1,0,0
55589,582,-8192,-96,-2,-1,0,0
55594,583,-8192,-98,-2,-2,0,0
55599,583,-8190,-105,-2,-2,0,0
55603,585,-8191,-111,-2,-2,0,0
55609,588,-8193,-117,-2,-2,0,0
55613,587,-8192,-116,-2,-3,0,0
55618,584,-8190,-113,-2,-3,0,0
55623,579,-8188,-118,-2,-3,0,0
55628,577,-8187,-118,-2,-3,0,0
55633,576,-8188,-114,-2,-3,0,0
55638,578,-8189,-107,-3,-3,0,0
55642,582,-8189,-104,-3,-3,0,0
55648,586,-8190,-104,-3,-3,0,0
55653,592,-8189,-108,-3,-4,0,0
55658,595,-8187,-111,-3,-4,0,0
55663,597,-8187,-117,-3,-4,0,0
55669,599,-8185,-124,-3,-4,0,0
55675,600,-8183,-127,-3,-4,0,0
55680,602,-8181,-126,-3,-4,0,0
55685,604,-8182,-129,-3,-4,0,0
55691,608,-8181,-132,-3,-5,0,0
55697,610,-8181,-135,-3,-5,0,0
55703,615,-8181,-145,-3,-5,0,0
55709,623,-8179,-151,-3,-5,0,0
55714,629,-8179,-160,-3,-5,0,0
55720,631,-8178,-173,-3,-5,0,0
55725,635,-8178,-184,-3,-5,0,0
55731,638,-8177,-197,-2,-4,0,0
55737,636,-8179,-207,-3,-4,0,0
55742,635,-8181,-217,-3,-4,0,0
55746,634,-8183,-221,-3,-4,0,0
55750,637,-8184,-222,-3,-4,0,0
55754,640,-8184,-219,-3,-4,0,0
55759,645,-8183,-215,-2,-4,0,0
55763,647,-8182,-211,-2,-4,0,0
55767,649,-8176,-210,-2,-4,0,0
55771,654,-8177,-210,-2,-4,0,0
55775,654,-8179,-211,-2,-4,0,0
55779,657,-8179,-211,-3,-4,0,0
55783,657,-8178,-211,-3,-4,0,0
55787,656,-8178,-203,-3,-4,0,0
55791,659,-8178,-193,-3,-3,0,0
55795,662,-8180,-192,-3,-3,0,0
55799,661,-8180,-194,-2,-3,0,0
55803,661,-8181,-196,-2,-3,0,0
55808,659,-8180,-197,-2,-3,0,0
55813,655,-8180,-199,-3,-3,0,0
55818,647,-8183,-206,-3,-3,0,0
55823,642,-8185,-209,-3,-2,0,0
55828,638,-8184,-207,-3,-2,0,0
55833,638,-8182,-208,-2,-2,0,0
55838,635,-8183,-210,-2,-3,0,0
55843,633,-8185,-214,-2,-3,0,0
55848,628,-8185,-221,-2,-3,0,0
55853,626,-8185,-229,-2,-3,0,0
55858,624,-8187,-238,-2,-3,0,0
55863,623,-8188,-248,-2,-3,0,0
55868,623,-8187,-259,-2,-2,0,0
55873,622,-8187,-266,-2,-2,0,0
55878,625,-8186,-267,-2,-2,0,0
55883,623,-8185,-265,-2,-2,0,0
55888,616,-8184,-265,-2,-3,0,0
55893,613,-8183,-266,-2,-3,0,0
55898,610,-8182,-270,-2,-3,0,0
55903,608,-8183,-276,-2,-3,0,0
55908,610,-8182,-279,-2,-3,0,0
55913,614,-8181,-279,-2,-3,0,0
55918,618,-8182,-279,-2,-3,0,0
55923,621,-8178,-279,-2,-3,0,0
55928,620,-8177,-278,-2,-4,0,0
55933,621,-8178,-277,-2,-4,0,0
55938,622,-8180,-276,-2,-4,0,0
55943,621,-8181,-277,-2,-4,0,0
55948,622,-8181,-278,-2,-4,0,0
55953,623,-8179,-281,-2,-5,0,0
55958,623,-8177,-284,-2,-5,0,0
55963,627,-8177,-285,-2,-5,0,0
55968,627,-8179,-281,-2,-5,0,0
55973,626,-8178,-279,-2,-5,0,0
55978,627,-8179,-276,-2,-5,0,0
55983,626,-8180,-275,-2,-5,0,0
55988,621,-8184,-275,-2,-5,0,0
55993,618,-8183,-275,-2,-5,0,0
55998,615,-8186,-275,-2,-5,0,0
56003,612,-8186,-274,-2,-5,0,0
56008,611,-8186,-276,-2,-5,0,0
56013,610,-8185,-272,-2,-6,0,0
56018,612,-8186,-265,-2,-6,0,0
56023,608,-8185,-259,-2,-6,0,0
56028,606,-8183,-249,-2,-6,0,0
56033,604,-8183,-238,-2,-6,0,0
56038,602,-8183,-226,-2,-6,0,0
56043,601,-8185,-220,-2,-5,0,0
56047,598,-8186,-217,-2,-5,0,0
56053,596,-8186,-215,-2,-5,0,0
56058,594,-8186,-212,-2,-5,-1,0
56063,592,-8186,-208,-2,-5,0,0
56068,591,-8184,-202,-2,-5,0,0
56073,590,-8182,-196,-2,-5,0,0
56078,588,-8179,-191,-2,-4,0,0
56083,587,-8181,-186,-2,-4,-1,0
56088,587,-8182,-186,-2,-4,-1,0
56093,586,-8184,-186,-2,-4,-1,0
56098,587,-8185,-182,-2,-4,-1,0
56103,587,-8186,-173,-2,-4,-1,0
56108,587,-8186,-166,-2,-4,-1,0
56113,586,-8187,-166,-2,-3,-1,0
56118,587,-8185,-166,-2,-3,-1,0
56123,585,-8183,-167,-2,-3,-1,0
56129,585,-8184,-164,-2,-3,-1,0
56134,582,-8185,-163,-2,-3,-1,0
56140,580,-8184,-167,-2,-3,-1,0
56145,576,-8188,-168,-2,-2,-1,0
56151,573,-8186,-166,-2,-2,-1,0
56156,571,-8186,-165,-2,-2,-1,0
56160,569,-8188,-167,-2,-2,-1,0
56165,569,-8191,-171,-2,-2,-1,0
56170,568,-8193,-170,-2,-2,-1,0
56176,569,-8195,-173,-2,-2,-1,0
56181,570,-8195,-175,-2,-2,-1,0
56186,570,-8195,-179,-2,-2,-1,0
56191,570,-8196,-186,-2,-2,-1,0
56196,569,-8191,-192,-2,-2,-1,0
56202,567,-8190,-188,-2,-3,-1,0
56207,565,-8190,-179,-2,-3,-1,0
56213,562,-8193,-169,-2,-3,-1,0
56219,559,-8189,-157,-2,-2,-1,0
56224,561,-8188,-148,-2,-2,-1,0
56229,567,-8190,-145,-2,-2,-1,0
56235,575,-8194,-142,-2,-2,-1,0
56240,582,-8196,-143,-2,-2,-1,0
56245,590,-8194,-142,-2,-2,-1,0
56250,594,-8194,-143,-2,-2,-1,0
56256,599,-8193,-146,-2,-2,-1,0
56261,604,-8190,-147,-2,-2,-1,0
56266,614,-8191,-149,-2,-2,-1,0
56272,626,-8189,-147,-2,-2,-1,0
56277,637,-8185,-150,-2,-3,-1,0
56283,645,-8185,-152,-2,-3,-1,0
56289,655,-8188,-153,-2,-3,-1,0
56295,667,-8186,-157,-2,-4,-1,0
56300,682,-8184,-164,-2,-4,-1,0
56305,694,-8181,-172,-2,-4,-1,0
56310,705,-8181,-175,-2,-4,-1,0
56315,715,-8185,-175,-2,-4,-1,0
56321,725,-8184,-176,-2,-4,-1,0
56326,735,-8184,-179,-2,-4,-1,0
56333,745,-8186,-185,-2,-4,-1,0
56339,756,-8188,-188,-2,-4,-1,0
56344,765,-8188,-193,-2,-4,-1,0
56350,775,-8188,-199,-2,-3,-1,0
56356,787,-8184,-203,-2,-3,-1,0
56362,793,-8181,-204,-2,-3,0,0
56367,802,-8180,-204,-2,-3,0,0
56371,806,-8182,-202,-2,-3,0,0
56377,808,-8184,-197,-2,-3,0,0
56381,811,-8183,-194,-2,-3,0,0
56386,809,-8181,-192,-2,-3,0,0
56391,809,-8181,-192,-2,-3,0,0
56395,809,-8181,-193,-2,-3,0,0
56401,808,-8182,-192,-2,-3,0,0
56406,805,-8183,-188,-2,-3,0,0
56410,803,-8183,-184,-2,-3,0,0
56415,802,-8182,-180,-2,-2,0,0
56420,799,-8182,-173,-2,-2,0,0
56424,793,-8186,-167,-2,-2,0,0
56430,785,-8183,-165,-2,-2,0,0
56435,773,-8180,-163,-2,-1,0,0
56440,759,-8177,-159,-2,-1,0,0
56444,744,-8177,-150,-2,-1,0,0
56448,726,-8177,-149,-2,-1,0,0
56452,711,-8178,-149,-2,-1,0,0
56457,697,-8179,-151,-2,-1,0,0
56462,679,-8182,-146,-2,0,0,0
56467,661,-8184,-147,-2,0,0,0
56472,645,-8187,-149,-2,0,0,0
56477,633,-8188,-153,-2,0,0,0
56481,621,-8188,-156,-2,0,0,0
56486,609,-8185,-159,-2,0,0,0
56490,598,-8184,-164,-2,1,0,0
56495,587,-8185,-169,-2,1,0,0
56499,576,-8185,-176,-2,1,0,0
56504,566,-8185,-190,-2,1,0,0
56508,555,-8185,-200,-2,1,0,0
56513,543,-8182,-207,-2,1,0,0
56518,529,-8182,-215,-2,0,0,0
56522,516,-8182,-218,-2,0,0,0
56527,507,-8184,-222,-2,0,0,0
56531,501,-8186,-225,-2,0,0,0
56536,497,-8186,-228,-2,0,0,0
56540,496,-8187,-231,-2,0,0,0
56545,495,-8186,-236,-2,0,-1,0
56550,492,-8186,-233,-2,0,-1,0
56555,490,-8186,-235,-2,0,-1,0
56559,489,-8187,-236,-2,0,-1,0
56564,490,-8187,-241,-2,0,-1,0
56570,492,-8189,-243,-2,-1,-1,0
56575,496,-8187,-239,-2,-1,-1,0
56580,503,-8190,-238,-2,-1,-1,0
56585,505,-8192,-238,-2,-2,-1,0
56591,510,-8191,-235,-2,-2,-1,0
56595,518,-8192,-233,-2,-2,-1,0
56600,527,-8193,-236,-2,-2,-1,0
56605,535,-8194,-238,-2,-2,-1,0
56611,545,-8194,-243,-2,-3,-1,0
56617,555,-8194,-243,-2,-3,-1,0
56622,567,-8191,-244,-2,-3,-1,0
56627,580,-8190,-244,-2,-4,-1,0
56632,596,-8185,-238,-2,-4,-1,0
56637,610,-8186,-231,-2,-4,-1,0
56642,625,-8185,-226,-1,-4,-1,0
56648,639,-8184,-221,-1,-4,-1,0
56653,652,-8183,-212,-1,-5,-1,0
56658,665,-8183,-208,-1,-5,-1,0
56663,680,-8183,-207,-1,-6,-1,0
56669,691,-8184,-212,-1,-6,-1,0
56675,705,-8185,-211,-1,-6,-1,0
56682,719,-8186,-208,-1,-6,-1,0
56687,735,-8188,-206,-1,-7,-1,0
56693,753,-8186,-200,-1,-7,-1,0
56699,771,-8189,-198,-1,-7,-1,0
56705,789,-8189,-195,-1,-8,-1,0
56711,803,-8190,-189,-1,-8,-1,0
56717,815,-8191,-178,-1,-8,-1,0
56723,825,-8188,-170,-1,-8,-1,0
56729,833,-8188,-162,-1,-8,-1,0
56735,839,-8187,-156,-1,-8,-1,0
56741,846,-8190,-155,-1,-7,-1,0
56747,852,-8189,-151,-1,-7,0,0
56753,854,-8185,-149,-1,-7,0,0
56758,855,-8185,-147,-1,-6,0,0
56764,854,-8184,-144,-1,-5,0,0
56770,851,-8185,-140,-1,-5,0,0
56776,852,-8186,-137,-1,-4,0,0
56782,851,-8189,-130,-2,-4,0,0
56787,848,-8190,-127,-1,-3,0,0
56793,844,-8189,-121,-2,-3,0,0
56799,836,-8189,-112,-2,-3,0,0
56805,832,-8190,-103,-2,-3,0,0
56811,829,-8189,-94,-2,-2,0,0
56817,821,-8189,-86,-2,-2,0,0
56823,814,-8189,-84,-2,-2,0,0
56829,806,-8189,-79,-2,-2,0,0
56835,797,-8191,-72,-2,-2,0,0
56841,789,-8193,-67,-2,-1,0,0
56845,777,-8193,-64,-2,-1,0,0
56851,768,-8194,-62,-2,-1,0,0
56857,756,-8196,-56,-2,0,0,0
56862,745,-8193,-52,-2,0,0,0
56868,731,-8192,-47,-2,0,0,0
56874,712,-8192,-42,-2,1,0,0
56879,697,-8192,-39,-2,1,0,0
56885,682,-8191,-39,-2,1,0,0
56890,667,-8191,-36,-2,1,0,0
56896,651,-8193,-37,-2,1,0,0
56902,637,-8195,-39,-2,2,0,0
56906,623,-8198,-45,-2,2,0,0
56911,609,-8199,-51,-2,2,0,0
56915,597,-8197,-56,-2,2,0,0
56919,587,-8196,-58,-2,2,0,0
56923,577,-8193,-56,-2,2,0,0
56927,568,-8194,-55,-2,2,0,0
56932,559,-8193,-58,-2,2,0,0
56936,551,-8193,-60,-2,2,0,0
56940,543,-8191,-65,-2,2,0,0
56945,533,-8189,-70,-2,2,0,0
56951,526,-8187,-85,-2,2,0,0
56956,520,-8187,-94,-2,2,0,0
56962,515,-8189,-99,-2,2,0,0
56967,512,-8195,-107,-2,2,0,0
56972,507,-8197,-111,-2,1,0,0
56976,505,-8195,-114,-2,1,0,0
56981,506,-8194,-116,-2,1,0,0
56985,507,-8194,-124,-2,0,0,0
56989,511,-8191,-134,-2,0,0,0
56994,515,-8189,-147,-2,0,0,0
56999,524,-8189,-162,-2,0,0,0
57003,533,-8188,-177,-2,-1,0,0
57008,538,-8187,-186,-2,-1,0,0
57013,542,-8187,-190,-2,-1,0,0
57018,547,-8187,-194,-2,-2,-1,0
57023,554,-8187,-198,-2,-2,-1,0
57028,560,-8182,-203,-2,-2,-1,0
57033,571,-8181,-210,-2,-2,-1,0
57038,581,-8178,-217,-2,-2,-1,0
57043,592,-8181,-220,-2,-2,-1,0
57049,605,-8181,-227,-2,-2,-1,0
57053,616,-8181,-229,-2,-2,-1,0
57058,630,-8182,-231,-2,-3,-1,0
57062,638,-8185,-232,-2,-3,-1,0
57067,644,-8183,-233,-2,-3,-1,0
57072,652,-8184,-230,-2,-3,-1,0
57076,660,-8183,-230,-2,-3,-1,0
57080,671,-8182,-230,-2,-3,0,0
57085,682,-8183,-229,-2,-3,0,0
57089,693,-8180,-229,-2,-3,0,0
57093,703,-8180,-223,-2,-3,0,0
57097,712,-8181,-220,-2,-3,0,0
57101,722,-8182,-216,-2,-3,0,0
57105,727,-8182,-211,-2,-3,0,0
57109,726,-8180,-204,-2,-3,0,0
57113,724,-8180,-197,-2,-2,0,0
57117,719,-8181,-192,-2,-2,0,0
57121,719,-8179,-186,-2,-2,0,0
57125,721,-8177,-180,-2,-2,0,0
57129,721,-8179,-176,-2,-2,0,0
57133,719,-8182,-172,-2,-2,0,0
57137,717,-8181,-161,-2,-2,0,0
57141,711,-8184,-151,-2,-2,0,0
57145,707,-8185,-143,-2,-2,0,0
57149,698,-8187,-135,-2,-2,0,0
57153,691,-8187,-129,-2,-2,0,0
57157,682,-8187,-125,-2,-2,0,0
57161,677,-8188,-122,-2,-2,0,0
57165,674,-8189,-120,-2,-2,0,0
57169,673,-8186,-118,-2,-2,0,0
57173,669,-8186,-115,-2,-2,0,0
57177,665,-8188,-110,-2,-2,0,0
57181,660,-8189,-100,-2,-2,0,0
57185,653,-8188,-98,-2,-2,0,0
57189,646,-8190,-93,-2,-2,0,0
57193,641,-8189,-92,-2,-1,0,0
57197,634,-8190,-92,-2,-1,0,0
57201,626,-8189,-93,-2,-1,0,0
57205,619,-8189,-92,-2,-1,0,0
57209,616,-8188,-92,-2,-1,0,0
57213,612,-8189,-91,-2,-1,0,0
57217,606,-8191,-91,-2,-1,0,0
57221,597,-8191,-86,-2,-1,0,0
57226,591,-8190,-88,-2,-1,0,0
57231,586,-8190,-89,-2,-1,0,0
57236,582,-8189,-93,-2,-2,0,0
57241,580,-8192,-102,-2,-2,0,0
57246,577,-8193,-108,-2,-2,0,0
57251,575,-8194,-110,-2,-2,0,0
57256,576,-8193,-111,-2,-2,0,0
57261,578,-8191,-113,-2,-2,0,0
57266,579,-8191,-114,-2,-2,-1,0
57271,579,-8189,-116,-2,-2,-1,0
57276,580,-8188,-116,-2,-2,-1,0
57281,582,-8187,-116,-2,-2,-1,0
57286,582,-8190,-116,-2,-2,-1,0
57292,582,-8191,-118,-2,-2,-1,0
57297,587,-8189,-119,-2,-2,-1,0
57302,591,-8190,-119,-2,-2,-1,0
57306,594,-8193,-122,-2,-2,-1,0
57311,595,-8193,-122,-2,-2,-1,0
57316,603,-8195,-123,-2,-2,-1,0
57321,608,-8199,-126,-2,-2,-1,0
57326,612,-8199,-129,-2,-2,-1,0
57331,617,-8199,-129,-2,-2,-1,0
57336,621,-8199,-127,-2,-2,-1,0
57341,624,-8198,-128,-2,-2,-1,0
57346,626,-8195,-133,-2,-3,-1,0
57351,630,-8193,-139,-2,-3,-1,0
57356,632,-8194,-144,-2,-2,-1,0
57361,637,-8194,-149,-2,-2,-1,0
57366,642,-8193,-155,-2,-2,-1,0
57371,649,-8190,-158,-2,-2,-1,0
57377,651,-8190,-157,-2,-2,-1,0
57382,650,-8191,-157,-2,-2,-1,0
57387,653,-8193,-153,-2,-2,-1,0
57392,656,-8194,-153,-2,-2,-1,0
57397,656,-8191,-146,-2,-2,-1,0
57402,661,-8188,-143,-2,-2,-1,0
57406,662,-8185,-142,-2,-2,-1,0
57411,663,-8184,-140,-2,-2,-1,0
57416,664,-8185,-144,-2,-2,-1,0
57421,667,-8185,-142,-2,-2,-1,0
57426,673,-8186,-143,-2,-2,-1,0
57431,678,-8187,-142,-2,-2,-1,0
57436,679,-8186,-140,-2,-2,-1,0
57442,678,-8187,-138,-2,-2,-1,0
57446,678,-8186,-131,-2,-2,-1,0
57451,675,-8187,-131,-2,-2,0,0
57456,675,-8188,-131,-2,-1,0,0
57461,679,-8188,-136,-2,-1,-1,0
57467,680,-8189,-139,-2,-1,-1,0
57473,681,-8189,-140,-2,-1,0,0
57479,680,-8188,-140,-2,-1,0,0
57484,679,-8188,-143,-2,-1,0,0
57490,677,-8185,-142,-2,-1,0,0
57496,674,-8182,-145,-2,-1,0,0
57502,670,-8182,-141,-2,-1,0,0
57508,665,-8183,-136,-2,-1,0,0
57513,663,-8185,-128,-2,-1,0,0
57519,662,-8188,-121,-2,-1,0,0
57525,661,-8186,-117,-2,-1,0,0
57531,661,-8184,-114,-2,-1,0,0
57537,654,-8184,-113,-2,-1,0,0
57543,647,-8182,-115,-2,-2,0,0
57548,640,-8181,-117,-2,-2,-1,0
57555,632,-8185,-123,-2,-2,-1,0
57561,628,-8186,-128,-2,-2,-1,0
57565,626,-8188,-128,-2,-2,-1,0
57570,623,-8188,-128,-2,-2,-1,0
57576,622,-8187,-131,-2,-2,-1,0
57580,625,-8186,-132,-2,-2,-1,0
57585,627,-8182,-133,-2,-2,-1,0
57590,629,-8184,-133,-2,-2,-1,0
57596,630,-8187,-134,-2,-2,-1,0
57602,628,-8187,-133,-2,-2,-1,0
57606,625,-8188,-138,-2,-2,-1,0
57611,620,-8187,-141,-2,-2,-1,0
57616,622,-8187,-146,-2,-2,-1,0
57621,623,-8185,-149,-2,-2,-1,0
57626,627,-8181,-152,-2,-2,-1,0
57631,631,-8180,-160,-2,-2,-1,0
57636,635,-8180,-163,-2,-2,-1,0
57641,637,-8181,-166,-2,-2,-1,0
57646,640,-8182,-167,-2,-2,-1,0
57651,642,-8184,-170,-2,-2,-1,0
57657,645,-8184,-174,-2,-2,-1,0
57662,651,-8185,-176,-2,-2,-1,0
57667,656,-8185,-177,-2,-2,-1,0
57672,661,-8187,-176,-2,-2,-1,0
57678,662,-8187,-176,-2,-2,-1,0
57683,666,-8188,-175,-2,-2,-1,0
57687,671,-8188,-172,-2,-2,-1,0
57692,674,-8186,-174,-2,-2,-1,0
57698,679,-8187,-179,-2,-3,-1,0
57703,682,-8188,-181,-2,-3,-1,0
57708,685,-8188,-181,-2,-3,-1,0
57713,686,-8186,-184,-2,-3,-1,0
57718,692,-8187,-186,-2,-3,-1,0
57723,696,-8187,-186,-2,-2,-1,0
57728,697,-8187,-187,-2,-2,-1,0
57733,698,-8186,-193,-2,-2,-1,0
57738,700,-8186,-191,-2,-3,-1,0
57743,700,-8185,-192,-2,-3,-1,0
57749,700,-8187,-193,-2,-3,0,0
57754,698,-8186,-191,-2,-3,-1,0
57758,696,-8184,-188,-2,-2,0,0
57763,697,-8185,-186,-2,-3,0,0
57767,698,-8184,-181,-2,-3,0,0
57772,699,-8184,-179,-2,-3,0,0
57777,699,-8182,-178,-2,-3,0,0
57782,700,-8180,-177,-2,-3,0,0
57786,699,-8182,-178,-2,-3,0,0
57791,697,-8182,-177,-2,-3,0,0
57796,694,-8183,-179,-2,-3,0,0
57801,692,-8182,-175,-2,-2,0,0
57805,691,-8183,-177,-2,-2,0,0
57810,689,-8183,-178,-2,-2,0,0
57815,683,-8182,-178,-2,-2,0,0
57820,680,-8181,-173,-2,-2,0,0
57824,678,-8183,-174,-2,-2,0,0
57829,673,-8184,-169,-2,-2,0,0
57834,668,-8184,-164,-2,-2,0,0
57839,659,-8184,-155,-2,-2,0,0
57844,655,-8183,-152,-2,-2,0,0
57849,652,-8184,-151,-2,-2,0,0
57854,648,-8186,-149,-2,-2,0,0
57858,643,-8186,-149,-2,-2,0,0
57863,638,-8186,-151,-2,-2,0,0
57868,635,-8185,-155,-2,-2,0,0
57873,632,-8185,-155,-2,-2,0,0
57878,632,-8184,-155,-2,-2,0,0
57882,628,-8184,-157,-2,-2,-1,0
57887,627,-8186,-156,-2,-2,-1,0
57893,624,-8185,-155,-2,-2,-1,0
57898,621,-8185,-155,-2,-2,-1,0
57904,622,-8187,-158,-2,-2,-1,0
57909,621,-8187,-156,-2,-2,-1,0
57914,622,-8186,-151,-2,-2,-1,0
57919,622,-8186,-149,-2,-2,-1,0
57924,622,-8186,-144,-2,-2,-1,0
57929,626,-8185,-138,-2,-2,-1,0
57934,628,-8186,-134,-2,-2,-1,0
57939,631,-8187,-133,-2,-2,-1,0
57945,635,-8188,-131,-2,-2,-1,0
57950,641,-8188,-132,-2,-2,-1,0
57955,647,-8190,-129,-2,-2,-1,0
57960,652,-8189,-127,-2,-2,-1,0
57965,657,-8188,-126,-2,-2,-1,0
57972,662,-8188,-126,-2,-2,-1,0
57978,669,-8189,-129,-2,-2,-1,0
57984,676,-8189,-129,-2,-2,-1,0
57990,685,-8190,-128,-2,-2,-1,0
57996,692,-8188,-126,-2,-2,-1,0
58002,699,-8188,-127,-2,-2,-1,0
58007,706,-8189,-128,-2,-2,-1,0
58012,713,-8187,-132,-2,-2,-1,0
58019,717,-8186,-137,-2,-2,0,0
58024,721,-8187,-146,-2,-2,0,0
58030,726,-8188,-148,-2,-2,0,0
58036,730,-8188,-151,-2,-2,0,0
58042,736,-8189,-152,-2,-1,0,0
58047,739,-8186,-151,-2,-1,0,0
58053,742,-8185,-146,-2,-1,0,0
58059,742,-8186,-143,-2,-1,0,0
58065,742,-8185,-144,-2,-1,0,0
58071,741,-8185,-146,-2,-1,0,0
58077,741,-8186,-149,-2,-1,0,0
58082,740,-8186,-153,-2,-1,0,0
58087,739,-8186,-152,-2,0,0,0
58092,738,-8186,-158,-2,0,0,0
58098,736,-8185,-161,-2,0,0,0
58103,735,-8184,-162,-2,0,0,0
58109,733,-8182,-164,-2,0,0,0
58114,730,-8181,-161,-2,-1,0,0
58120,726,-8182,-159,-2,-1,0,0
58125,721,-8183,-160,-2,-1,0,0
58131,716,-8183,-162,-2,-1,0,0
58137,714,-8183,-159,-2,-1,0,0
58143,711,-8181,-162,-2,-1,0,0
58148,704,-8177,-168,-2,-1,0,0
58154,700,-8177,-165,-2,-1,0,0
58160,697,-8179,-163,-2,-1,0,0
58165,693,-8177,-164,-2,-1,0,0
58170,691,-8177,-166,-2,-1,0,0
58175,686,-8177,-172,-2,-1,0,0
58180,679,-8177,-175,-2,-1,0,0
58185,674,-8179,-173,-2,-2,0,0
58190,668,-8179,-172,-2,-2,0,0
58195,663,-8180,-168,-2,-2,0,0
58200,660,-8180,-168,-2,-2,0,0
58205,657,-8179,-165,-2,-2,0,0
58209,652,-8180,-160,-2,-2,0,0
58214,650,-8179,-153,-2,-2,0,0
58219,647,-8180,-144,-2,-2,0,0
58224,647,-8182,-139,-2,-2,0,0
58229,646,-8180,-134,-2,-2,0,0
58234,640,-8182,-128,-2,-2,0,0
58239,635,-8182,-123,-2,-2,0,0
58244,627,-8183,-121,-2,-2,0,0
58249,621,-8182,-120,-2,-2,0,0
58254,615,-8182,-121,-2,-3,0,0
58258,609,-8184,-122,-2,-3,0,0
58263,603,-8186,-125,-2,-3,0,0
58268,598,-8188,-121,-2,-4,0,0
58274,592,-8186,-118,-2,-4,-1,0
58280,586,-8185,-115,-2,-4,-1,0
58285,583,-8186,-107,-2,-4,-1,0
58289,581,-8189,-103,-2,-5,-1,0
58294,579,-8186,-103,-2,-5,-1,0
58298,575,-8188,-101,-2,-5,-1,0
58303,571,-8190,-102,-2,-5,-1,0
58307,565,-8192,-110,-2,-5,-1,0
58312,559,-8192,-122,-2,-4,-1,0
58317,554,-8191,-135,-2,-3,-1,0
58321,554,-8189,-151,-2,-1,-1,0
58325,558,-8190,-168,-2,0,-1,0
58330,564,-8190,-179,-2,1,-1,0
58335,567,-8188,-186,-2,2,-1,0
58340,568,-8185,-179,-2,3,-1,0
58345,570,-8185,-164,-2,4,-1,0
58350,566,-8187,-144,-2,4,-1,0
58355,555,-8186,-127,-2,3,-1,0
58359,539,-8186,-105,-2,2,-1,0
58364,519,-8184,-77,-2,1,-1,0
58368,497,-8184,-43,-1,0,0,0
58372,474,-8181,-15,-1,0,0,0
58376,459,-8181,14,-1,-1,0,0
58380,407,-8195,57,-1,-1,0,0
58384,325,-8202,37,-1,-3,-1,0
58389,332,-8201,-75,-2,-5,-2,0
58395,436,-8201,-212,-2,-2,-2,0
58401,518,-8199,-314,-3,0,-1,0
58406,585,-8197,-342,-3,-2,-1,0
58410,691,-8194,-338,-3,-1,-1,0
58414,828,-8187,-304,-3,2,-1,0
58418,933,-8182,-237,-3,2,-1,0
58423,980,-8179,-181,-2,-1,-1,0
58427,981,-8180,-147,-2,-3,-1,0
58433,925,-8183,-148,-2,-3,-2,0
58437,842,-8184,-167,-2,-3,-2,0
58441,747,-8186,-193,-2,-2,-1,0
58446,674,-8191,-214,-3,-2,-1,0
58450,646,-8192,-208,-3,-1,-1,0
58454,666,-8188,-182,-3,0,0,0
58458,721,-8185,-146,-3,-1,0,0
58463,780,-8183,-108,-3,-1,-1,0
58468,822,-8181,-87,-2,-2,-1,0
58472,837,-8183,-87,-2,-3,-1,0
58478,815,-8183,-107,-2,-3,-1,0
58482,770,-8185,-140,-2,-3,-1,0
58487,715,-8186,-172,-3,-2,-1,0
58491,675,-8190,-190,-3,-1,-1,0
58497,661,-8190,-190,-3,-1,-1,0
58502,675,-8189,-178,-3,-1,0,0
58506,713,-8186,-154,-3,-1,0,0
58512,763,-8180,-131,-3,-2,-1,0
58518,795,-8178,-117,-3,-3,-1,0
58523,796,-8178,-119,-2,-4,-1,0
58528,773,-8181,-135,-2,-5,-1,0
58533,734,-8184,-154,-2,-5,-1,0
58538,694,-8188,-172,-3,-5,-1,0
58544,663,-8189,-183,-3,-5,-1,0
58550,657,-8190,-176,-3,-4,-1,0
58556,673,-8189,-163,-3,-4,-1,0
58563,699,-8187,-141,-3,-4,-1,0
58567,726,-8186,-123,-3,-5,-1,0
58572,739,-8187,-120,-2,-5,-1,0
58577,740,-8186,-126,-2,-6,-1,0
58582,722,-8185,-146,-2,-6,-1,0
58586,688,-8183,-169,-2,-6,-1,0
58592,654,-8183,-187,-3,-6,-1,0
58597,630,-8185,-194,-3,-4,-1,0
58602,621,-8185,-193,-3,-3,-1,0
58606,630,-8185,-189,-3,-2,-1,0
58612,645,-8181,-182,-3,-1,-1,0
58618,670,-8180,-194,-2,1,-1,0
58622,692,-8184,-197,-2,0,-1,0
58627,688,-8186,-216,-2,-3,-1,0
58633,657,-8187,-230,-3,-3,-1,0
58638,630,-8191,-235,-2,-2,-1,0
58643,609,-8191,-233,-2,-1,-1,0
58648,604,-8193,-228,-2,-1,-1,0
58653,605,-8190,-226,-2,-2,-1,0
58658,615,-8186,-223,-2,-2,-1,0
58663,630,-8182,-222,-2,-2,-1,0
58668,644,-8183,-227,-2,-2,-1,0
58674,651,-8183,-232,-2,-2,-1,0
58680,647,-8182,-245,-2,-2,-1,0
58686,635,-8183,-252,-2,-2,-1,0
58692,623,-8183,-252,-2,-1,-1,0
58699,613,-8182,-241,-2,-1,-1,0
58705,608,-8184,-230,-2,-2,-1,0
58711,613,-8185,-222,-2,-2,-1,0
58717,628,-8185,-213,-2,-2,-1,0
58724,646,-8185,-207,-2,-2,-1,0
58729,664,-8186,-204,-2,-2,-1,0
58735,677,-8185,-203,-2,-2,-1,0
58742,685,-8186,-210,-2,-2,-1,0
58747,689,-8187,-211,-2,-2,-1,0
58753,686,-8186,-215,-2,-2,-1,0
58759,686,-8185,-209,-2,-2,-1,0
58765,692,-8184,-203,-2,-2,-1,0
58771,700,-8182,-196,-2,-2,-1,0
58777,715,-8183,-189,-2,-3,-1,0
58784,727,-8184,-190,-2,-3,-1,0
58789,737,-8183,-201,-2,-3,-1,0
58795,742,-8182,-208,-2,-3,-1,0
58802,741,-8183,-219,-2,-2,-1,0
58807,739,-8184,-225,-2,-2,-1,0
58813,739,-8185,-229,-2,-2,-1,0
58819,734,-8184,-233,-2,-2,-1,0
58825,732,-8185,-235,-2,-2,-1,0
58831,736,-8185,-231,-2,-2,-1,0
58838,740,-8182,-233,-2,-2,-1,0
58844,745,-8179,-229,-2,-2,-1,0
58849,749,-8181,-228,-2,-2,-1,0
58856,748,-8181,-231,-2,-1,-1,0
58862,747,-8182,-234,-2,-1,-1,0
58866,748,-8184,-236,-2,0,-1,0
58872,756,-8185,-242,-2,1,-1,0
58877,765,-8181,-244,-2,3,-1,0
58881,772,-8182,-244,-2,4,-1,0
58886,778,-8183,-243,-2,6,-1,0
58892,788,-8183,-239,-2,9,-1,0
58897,799,-8183,-241,-2,11,-1,0
58901,813,-8182,-238,-2,12,0,0
58906,826,-8183,-235,-2,13,0,0
58911,828,-8186,-234,-2,13,0,0
58916,822,-8184,-228,-2,12,0,0
58921,815,-8184,-225,-2,12,0,0
58925,811,-8184,-220,-2,11,0,0
58931,813,-8185,-216,-2,11,0,0
58935,815,-8186,-208,-2,10,0,0
58940,821,-8185,-204,-2,10,0,0
58944,827,-8182,-202,-2,9,0,0
58948,835,-8181,-201,-2,8,0,0
58953,837,-8181,-197,-2,7,0,0
58957,834,-8182,-191,-2,6,0,0
58962,826,-8181,-182,-2,4,0,0
58967,815,-8182,-177,-2,3,0,0
58973,805,-8181,-168,-2,2,0,0
58979,799,-8181,-165,-2,2,0,0
58984,796,-8184,-165,-2,1,0,0
58988,795,-8184,-166,-2,0,0,0
58994,794,-8185,-172,-2,-1,0,0
58999,788,-8185,-179,-2,-1,0,0
59006,780,-8186,-187,-2,-2,0,0
59012,767,-8187,-186,-2,-2,0,0
59018,754,-8187,-187,-2,-3,0,0
59024,743,-8187,-187,-2,-3,0,0
59028,731,-8188,-186,-2,-3,0,0
59034,721,-8187,-188,-2,-4,0,0
59040,714,-8187,-195,-2,-4,0,0
59045,711,-8187,-200,-2,-4,0,0
59050,710,-8186,-198,-2,-4,0,0
59057,713,-8185,-191,-2,-4,-1,0
59062,718,-8181,-184,-2,-4,-1,0
59067,717,-8181,-182,-2,-4,-1,0
59071,716,-8181,-176,-2,-4,-1,0
59076,717,-8180,-169,-2,-5,-1,0
59081,714,-8180,-166,-2,-4,-1,0
59086,717,-8182,-160,-2,-4,0,0
59091,722,-8184,-152,-2,-4,0,0
59096,727,-8185,-139,-2,-4,0,0
59101,728,-8187,-129,-2,-4,0,0
59106,732,-8184,-121,-2,-3,0,0
59111,731,-8183,-116,-2,-3,0,0
59115,727,-8184,-112,-2,-3,0,0
59120,723,-8183,-111,-2,-2,0,0
59125,719,-8183,-110,-2,-2,0,0
59130,717,-8183,-110,-2,-1,0,0
59135,719,-8187,-109,-2,-1,0,0
59140,721,-8186,-100,-2,-1,0,0
59145,726,-8183,-89,-2,-1,0,0
59150,728,-8181,-82,-2,-1,0,0
59155,731,-8183,-76,-2,-1,0,0
59159,735,-8184,-70,-2,-1,0,0
59164,735,-8185,-70,-2,-1,0,0
59169,733,-8186,-76,-2,-1,0,0
59175,733,-8186,-78,-2,-1,0,0
59180,731,-8189,-84,-2,-1,0,0
59185,730,-8186,-87,-2,0,0,0
59190,732,-8183,-88,-2,0,0,0
59196,736,-8182,-84,-2,0,0,0
59200,736,-8183,-76,-2,0,0,0
59205,734,-8183,-71,-2,0,0,0
59209,730,-8184,-73,-2,-1,0,0
59214,726,-8183,-78,-2,0,0,0
59219,722,-8181,-83,-2,0,0,0
59224,722,-8180,-82,-2,0,0,0
59228,720,-8179,-81,-2,0,0,0
59233,722,-8180,-82,-2,0,0,0
59238,728,-8181,-82,-2,0,0,0
59243,735,-8179,-87,-2,0,0,0
59247,741,-8176,-96,-2,0,0,0
59253,747,-8174,-103,-3,0,0,0
59257,747,-8175,-106,-3,0,0,0
59262,742,-8179,-103,-3,0,0,0
59267,740,-8179,-105,-3,0,0,0
59271,740,-8178,-104,-3,0,0,0
59276,740,-8178,-104,-3,0,0,0
59280,743,-8180,-106,-3,0,0,0
59285,743,-8182,-114,-3,0,0,0
59290,745,-8182,-121,-3,0,0,0
59294,748,-8185,-127,-3,0,0,0
59299,751,-8188,-133,-3,0,0,0
59304,751,-8189,-139,-3,0,0,0
59308,747,-8188,-143,-3,0,0,0
59313,741,-8189,-142,-3,0,0,0
59317,734,-8189,-147,-3,-1,0,0
59322,730,-8189,-151,-2,-1,0,0
59327,729,-8188,-159,-3,-1,0,0
59332,730,-8184,-166,-3,-1,0,0
59337,731,-8183,-175,-3,-1,0,0
59342,732,-8183,-181,-2,-1,0,0
59346,734,-8183,-184,-2,0,0,0
59351,735,-8183,-187,-3,0,0,0
59356,739,-8179,-184,-3,1,0,0
59360,742,-8176,-180,-2,1,0,0
59364,745,-8175,-177,-2,0,0,0
59369,746,-8176,-180,-2,0,0,0
59375,746,-8174,-183,-2,-1,0,0
59380,745,-8172,-191,-2,-1,0,0
59386,744,-8174,-198,-2,-1,0,0
59392,741,-8174,-205,-2,0,0,0
59397,741,-8173,-211,-2,0,0,0
59403,739,-8173,-213,-2,0,0,0
59408,735,-8175,-210,-2,0,0,0
59414,732,-8177,-207,-2,0,0,0
59419,726,-8177,-203,-2,1,0,0
59425,723,-8179,-200,-2,1,0,0
59430,722,-8182,-201,-2,1,0,0
59436,725,-8182,-207,-2,1,0,0
59441,727,-8183,-213,-2,1,0,0
59446,732,-8181,-214,-2,1,0,0
59450,733,-8181,-211,-2,1,0,0
59454,738,-8181,-208,-2,1,0,0
59458,739,-8183,-204,-2,1,0,0
59462,739,-8183,-201,-2,1,0,0
59466,738,-8182,-196,-2,2,0,0
59470,737,-8181,-195,-2,2,0,0
59474,738,-8181,-196,-2,2,0,0
59478,739,-8185,-203,-2,2,0,0
59482,740,-8184,-201,-2,2,0,0
59486,741,-8184,-201,-2,2,0,0
59490,739,-8186,-198,-2,1,0,0
59494,739,-8186,-191,-2,1,0,0
59498,737,-8188,-184,-2,0,0,0
59502,738,-8189,-175,-2,0,0,0
59506,741,-8187,-172,-2,0,0,0
59510,745,-8186,-171,-2,0,0,0
59514,749,-8185,-171,-2,0,0,0
59518,748,-8184,-173,-2,-1,0,0
59522,750,-8183,-180,-2,-1,0,0
59526,752,-8183,-184,-2,-1,0,0
59530,747,-8183,-185,-2,-1,0,0
59534,744,-8182,-183,-2,0,0,0
59538,740,-8182,-184,-2,0,0,0
59542,734,-8183,-178,-2,0,0,0
59546,732,-8182,-177,-2,0,0,0
59550,726,-8182,-178,-2,-1,0,0
59554,723,-8182,-175,-2,-1,0,0
59558,722,-8184,-172,-2,-1,0,0
59562,720,-8182,-173,-2,0,0,0
59566,716,-8184,-174,-2,0,0,0
59570,714,-8184,-171,-2,0,0,0
59574,711,-8184,-171,-2,0,0,0
59577,709,-8187,-164,-2,0,0,0
59581,706,-8187,-160,-2,0,0,0
59585,704,-8186,-159,-2,0,0,0
59589,705,-8185,-160,-2,0,0,0
59593,703,-8186,-155,-2,0,0,0
59597,704,-8187,-153,-2,-1,0,0
59602,704,-8185,-157,-2,-1,0,0
59606,703,-8189,-158,-2,-1,0,0
59610,702,-8189,-159,-2,-1,0,0
59614,699,-8187,-160,-2,-2,0,0
59618,694,-8185,-162,-2,-2,0,0
59622,691,-8182,-161,-2,-2,0,0
59626,691,-8183,-165,-2,-2,0,0
59630,688,-8181,-170,-2,-2,0,0
59634,686,-8181,-173,-2,-2,0,0
59638,684,-8183,-175,-2,-2,0,0
59642,680,-8182,-177,-2,-2,0,0
59646,680,-8182,-176,-2,-2,0,0
59651,679,-8183,-176,-2,-2,0,0
59655,680,-8186,-175,-2,-2,0,0
59659,682,-8185,-172,-2,-2,0,0
59663,685,-8185,-167,-2,-2,0,0
59667,687,-8183,-162,-2,-2,0,0
59671,692,-8185,-160,-2,-1,0,0
59675,697,-8186,-164,-2,-1,0,0
59679,699,-8184,-168,-2,-1,-1,0
59683,700,-8181,-169,-2,-1,-1,0
59687,703,-8182,-169,-2,-1,-1,0
59691,705,-8183,-169,-2,-1,-1,0
59696,704,-8184,-172,-2,-2,0,0
59700,702,-8183,-176,-2,-2,-1,0
59704,700,-8181,-176,-2,-2,0,0
59708,705,-8178,-179,-2,-2,-1,0
59713,708,-8178,-183,-2,-2,-1,0
59718,712,-8178,-184,-2,-2,-1,0
59723,712,-8178,-186,-2,-2,-1,0
59728,717,-8177,-185,-2,-2,-1,0
59733,716,-8178,-184,-2,-2,0,0
59738,713,-8177,-183,-2,-2,-1,0
59743,715,-8178,-181,-2,-2,-1,0
59748,717,-8177,-179,-2,-2,-1,0
59753,717,-8179,-178,-2,-2,-1,0
59758,719,-8180,-182,-2,-2,-1,0
59763,723,-8183,-185,-2,-2,-1,0
59768,726,-8184,-187,-2,-2,-1,0
59773,731,-8184,-190,-2,-2,-1,0
59778,734,-8182,-194,-2,-2,-1,0
59783,736,-8183,-196,-2,-2,-1,0
59788,735,-8183,-198,-2,-2,-1,0
59793,736,-8184,-202,-2,-2,-1,0
59798,736,-8184,-197,-2,-2,-1,0
59803,739,-8182,-193,-2,-2,-1,0
59808,739,-8183,-192,-2,-2,-1,0
59813,740,-8182,-186,-2,-2,0,0
59818,743,-8181,-186,-2,-2,-1,0
59823,745,-8182,-186,-2,-2,-1,0
59828,742,-8180,-185,-2,-2,-1,0
59833,742,-8183,-183,-2,-2,-1,0
59838,744,-8185,-182,-2,-2,0,0
59843,742,-8188,-174,-2,-2,0,0
59848,741,-8189,-167,-2,-2,0,0
59853,741,-8187,-168,-2,-2,0,0
59858,741,-8188,-170,-2,-1,0,0
59863,738,-8188,-175,-2,-1,0,0
59868,741,-8190,-182,-2,-1,0,0
59873,743,-8188,-186,-2,-1,0,0
59878,743,-8187,-188,-2,-1,0,0
59883,743,-8186,-188,-2,-1,0,0
59888,741,-8186,-185,-2,-1,0,0
59893,737,-8185,-184,-2,-1,0,0
59898,734,-8185,-182,-2,-1,0,0
59903,733,-8187,-183,-2,-2,0,0
59908,733,-8185,-179,-2,-2,0,0
59913,733,-8182,-180,-2,-2,0,0
59918,733,-8179,-179,-2,-1,0,0
59923,733,-8180,-182,-2,-1,0,0
59928,734,-8179,-183,-2,-1,0,0
59933,736,-8183,-180,-2,-2,0,0
59938,734,-8186,-182,-2,-2,0,0
59943,730,-8185,-179,-2,-2,0,0
59948,724,-8185,-177,-2,-2,0,0
59953,719,-8185,-174,-2,-2,0,0
59958,716,-8185,-174,-2,-1,0,0
59963,719,-8188,-178,-2,-1,0,0
59968,724,-8188,-184,-2,-1,0,0
59973,728,-8187,-193,-2,-1,0,0
59978,731,-8189,-195,-2,-1,0,0
59983,732,-8188,-194,-2,-1,0,0
59988,732,-8188,-187,-2,-1,0,0
59993,730,-8187,-181,-2,-1,0,0
59998,727,-8185,-173,-2,-1,0,0
60003,721,-8185,-167,-2,-1,0,0
60008,715,-8185,-160,-2,-1,0,0
60013,710,-8184,-161,-2,-1,0,0
60018,708,-8182,-163,-2,-1,0,0
60023,707,-8181,-167,-2,-2,-1,0
60028,706,-8183,-169,-2,-2,0,0
60033,705,-8183,-172,-2,-2,-1,0
60038,703,-8182,-169,-2,-2,-1,0
60043,702,-8183,-170,-2,-2,-1,0
60048,700,-8184,-168,-2,-2,-1,0
60053,698,-8183,-164,-2,-2,-1,0
60058,697,-8183,-166,-2,-2,-1,0
60063,699,-8183,-168,-2,-2,-1,0
60068,702,-8185,-170,-2,-2,-1,0
60073,705,-8183,-166,-2,-2,-1,0
60078,710,-8185,-166,-2,-2,-1,0
60083,713,-8187,-166,-2,-2,-1,0
60088,716,-8186,-167,-2,-2,-1,0
60093,720,-8187,-164,-2,-2,-1,0
60098,724,-8187,-158,-2,-2,-1,0
60103,731,-8187,-155,-2,-2,-1,0
60108,734,-8185,-156,-2,-2,-1,0
60113,739,-8181,-151,-2,-2,-1,0
60118,743,-8181,-149,-2,-2,-1,0
60123,748,-8182,-147,-2,-2,-1,0
60128,751,-8186,-145,-2,-1,-1,0
60133,751,-8185,-145,-2,-1,-1,0
60138,755,-8187,-146,-2,-1,-1,0
60143,761,-8189,-148,-2,-1,-1,0
60148,765,-8189,-152,-2,-1,0,0
60153,768,-8187,-159,-2,-1,0,0
60158,768,-8183,-166,-2,-1,0,0
60163,767,-8181,-173,-2,-1,0,0
60168,765,-8180,-182,-2,0,0,0
60173,763,-8180,-193,-2,0,0,0
60178,761,-8177,-199,-2,0,0,0
60183,757,-8176,-199,-2,0,0,0
60188,751,-8178,-198,-2,0,0,0
60193,744,-8179,-201,-2,0,0,0
60198,739,-8179,-206,-2,0,0,0
60203,736,-8181,-213,-2,0,0,0
60208,736,-8180,-221,-2,0,0,0
60213,734,-8180,-227,-2,0,-1,0
60218,731,-8180,-232,-2,0,-1,0
60223,723,-8180,-236,-2,0,0,0
60228,717,-8182,-241,-2,0,0,0
60233,709,-8183,-245,-2,0,0,0
60238,704,-8182,-246,-2,0,-1,0
60243,701,-8180,-241,-2,0,-1,0
60248,700,-8180,-237,-2,0,-1,0
60253,699,-8180,-233,-2,-1,-1,0
60258,697,-8182,-226,-2,-1,-1,0
60263,699,-8184,-216,-2,-1,-1,0
60268,701,-8185,-208,-2,-1,-1,0
60273,700,-8186,-202,-2,-1,-1,0
60278,701,-8186,-190,-2,-1,-1,0
60283,702,-8185,-180,-2,-1,-1,0
60288,702,-8185,-173,-2,-1,-1,0
60293,701,-8186,-165,-2,-1,-1,0
60298,701,-8187,-158,-2,-1,-1,0
60303,700,-8188,-152,-2,-1,-1,0
60308,698,-8187,-149,-2,-1,-1,0
60313,698,-8182,-144,-2,-1,-1,0
60317,695,-8181,-139,-2,-1,-1,0
60322,694,-8181,-136,-2,-1,-1,0
60328,693,-8181,-139,-2,-1,-1,0
60333,695,-8184,-146,-2,-2,-1,0
60338,695,-8182,-154,-2,-2,-1,0
60343,693,-8182,-160,-2,-2,-1,0
60348,691,-8183,-170,-2,-2,-1,0
60352,690,-8179,-180,-2,-3,-1,0
60357,693,-8177,-191,-2,-3,-1,0
60362,699,-8178,-196,-2,-3,-1,0
60367,707,-8178,-204,-2,-3,-1,0
60372,713,-8178,-208,-2,-3,-1,0
60377,721,-8177,-207,-2,-3,-1,0
60382,727,-8178,-209,-2,-3,-1,0
60387,732,-8179,-211,-2,-3,-1,0
60392,739,-8178,-211,-2,-3,-1,0
60397,742,-8178,-208,-2,-4,-1,0
60402,747,-8177,-200,-2,-4,-1,0
60407,754,-8179,-199,-2,-4,-1,0
60412,760,-8178,-198,-2,-4,-1,0
60417,770,-8180,-193,-2,-4,-1,0
60422,778,-8181,-182,-2,-4,-1,0
60427,786,-8183,-176,-2,-4,-1,0
60432,795,-8184,-174,-2,-3,-1,0
60437,802,-8184,-171,-2,-3,-1,0
60442,807,-8182,-169,-2,-3,-1,0
60447,814,-8182,-169,-2,-3,-1,0
60452,821,-8180,-167,-2,-2,-1,0
60457,827,-8180,-169,-2,-2,-1,0
60462,830,-8181,-165,-2,-2,-1,0
60467,834,-8183,-169,-2,-1,-1,0
60472,837,-8183,-165,-2,-1,-1,0
60477,837,-8183,-160,-2,-1,-1,0
60482,833,-8183,-155,-2,-1,0,0
60487,830,-8185,-155,-2,-1,0,1
60492,826,-8185,-151,-2,-1,0,1
60497,824,-8189,-149,-2,-1,0,1
60502,821,-8186,-151,-2,-1,0,1
60507,820,-8183,-156,-2,-2,0,1
60512,819,-8182,-159,-2,-2,0,1
60517,820,-8183,-162,-2,-2,0,1
60522,821,-8182,-170,-2,-2,0,1
60527,821,-8180,-176,-2,-2,0,1
60532,821,-8178,-180,-2,-2,0,1
60537,820,-8176,-185,-2,-2,0,1
60542,816,-8177,-191,-2,-2,0,1
60547,815,-8177,-195,-2,-2,0,1
60552,815,-8176,-197,-2,-2,0,1
60557,819,-8173,-199,-2,-2,0,1
60562,827,-8174,-201,-2,-1,0,1
60567,831,-8175,-198,-2,-1,0,1
60572,838,-8176,-198,-2,-1,0,1
60577,841,-8179,-192,-2,-1,0,1
60582,841,-8180,-188,-2,-1,0,1
60587,836,-8181,-181,-2,-1,0,1
60592,825,-8179,-180,-2,-1,0,1
60597,816,-8180,-175,-2,-1,0,1
60602,808,-8180,-171,-2,-1,0,1
60607,800,-8182,-172,-2,-1,0,1
60612,791,-8182,-174,-2,-1,0,1
60617,781,-8185,-177,-2,-1,0,1
60622,771,-8185,-182,-2,-1,0,1
60627,757,-8185,-184,-2,-1,0,1
60632,744,-8189,-189,-2,-1,0,1
60637,726,-8189,-194,-2,-1,0,1
60642,707,-8189,-193,-2,-1,0,1
60647,691,-8190,-194,-2,-1,0,1
60652,669,-8186,-201,-2,-2,0,1
60657,649,-8185,-209,-2,-2,0,1
60662,632,-8183,-221,-2,-2,0,1
60667,617,-8182,-238,-2,-2,0,1
60672,604,-8180,-258,-2,-2,0,1
60677,593,-8179,-282,-2,-2,-1,1
60682,584,-8179,-305,-2,-2,-1,1
60687,571,-8181,-324,-2,-3,-1,1
60692,557,-8181,-340,-2,-3,-1,1
60697,543,-8181,-358,-2,-3,-1,1
60702,530,-8181,-369,-2,-4,-1,1
60707,522,-8180,-381,-2,-4,-1,1
60712,518,-8178,-393,-2,-5,-1,1
60717,517,-8179,-404,-2,-5,-1,1
60722,520,-8178,-416,-1,-6,-1,1
60727,517,-8175,-424,-1,-7,-1,1
60732,515,-8176,-430,-1,-7,-2,1
60737,513,-8172,-436,-1,-7,-2,1
60742,509,-8176,-435,-1,-8,-2,1
60747,511,-8178,-433,-1,-8,-2,1
60752,510,-8179,-423,-1,-8,-2,1
60757,511,-8181,-409,-1,-8,-2,1
60762,511,-8180,-393,-1,-8,-2,1
60767,516,-8181,-374,-1,-8,-2,1
60772,523,-8181,-347,-1,-8,-2,1
60777,531,-8180,-322,-1,-8,-2,1
60782,544,-8181,-300,-1,-8,-2,1
60787,554,-8179,-282,-1,-8,-2,1
60792,565,-8181,-266,-1,-8,-2,1
60797,572,-8178,-255,-1,-8,-2,1
60802,583,-8180,-249,-1,-7,-2,1
60807,593,-8178,-242,-1,-7,-2,1
60812,603,-8177,-233,-1,-6,-2,1
60817,613,-8174,-222,-1,-6,-2,1
60822,620,-8173,-217,-1,-6,-2,1
60827,625,-8174,-213,-1,-5,-2,1
60832,630,-8174,-211,-1,-5,-3,1
60837,631,-8175,-213,-1,-4,-3,1
60842,633,-8174,-217,-1,-4,-3,1
60847,638,-8172,-213,-1,-4,-3,1
60852,642,-8172,-211,-1,-4,-3,1
60857,650,-8172,-211,-1,-4,-3,1
60862,660,-8173,-205,-1,-5,-3,1
60867,671,-8175,-197,-1,-6,-3,1
60872,685,-8174,-197,-1,-6,-3,1
60877,699,-8174,-193,-1,-7,-3,1
60882,719,-8177,-191,-1,-8,-3,1
60887,740,-8178,-190,-1,-8,-3,1
60892,762,-8179,-192,-1,-8,-3,1
60897,785,-8179,-195,-1,-8,-3,1
60902,811,-8177,-196,-1,-8,-3,1
60907,839,-8175,-195,-1,-8,-3,1
60912,867,-8174,-195,-1,-8,-3,1
60917,894,-8172,-189,-1,-7,-3,1
60922,924,-8172,-182,-1,-7,-3,1
60927,950,-8170,-175,-1,-7,-2,1
60932,975,-8170,-167,-1,-6,-2,1
60937,1001,-8174,-158,-1,-6,-2,1
60942,1068,-8168,-182,-1,-4,-2,1
60947,1486,-8165,-387,0,-1,-1,1
60952,1770,-8165,-441,0,-2,-1,1
60957,1702,-8168,-427,-1,-6,-2,1
60962,1650,-8176,-326,-2,5,-3,1
60967,1582,-8172,-171,-2,12,-2,1
60972,1471,-8169,-23,-2,9,-1,1
60977,1338,-8171,166,-1,5,0,1
60982,1243,-8171,217,-1,4,0,1
60987,1151,-8176,263,0,3,0,1
60992,1082,-8180,235,0,2,0,1
60997,1068,-8182,138,-1,3,1,1
61002,1103,-8184,57,-1,4,1,1
61007,1157,-8186,-34,-2,4,1,1
61012,1212,-8184,-59,-2,5,1,1
61017,1252,-8181,-42,-2,5,0,1
61022,1245,-8178,17,-2,4,0,1
61027,1179,-8178,99,-2,3,0,1
61032,1083,-8180,135,-2,2,0,1
61037,971,-8181,141,-1,2,0,1
61042,869,-8183,96,-1,2,0,1
61047,814,-8188,28,-1,3,1,1
61052,797,-8192,-25,-2,5,1,1
61057,839,-8190,-71,-2,6,1,1
61062,910,-8188,-96,-2,8,1,1
61067,980,-8184,-104,-2,8,1,1
61072,984,-8177,-85,-2,7,0,1
61077,869,-8171,-52,-2,8,0,1
61082,688,-8173,-41,-2,11,0,1
61087,501,-8176,-62,-2,13,0,1
61092,334,-8177,-134,-2,11,1,1
61097,240,-8181,-194,-2,6,1,1
61102,253,-8184,-228,-2,0,0,1
61107,350,-8182,-216,-2,-5,0,1
61112,471,-8179,-163,-1,-9,0,1
61117,550,-8177,-99,-1,-11,-1,1
61122,610,-8173,-57,-1,-13,-2,1
61126,653,-8172,-58,-1,-13,-2,1
61132,653,-8173,-87,-1,-13,-2,1
61137,623,-8178,-128,-1,-13,-2,1
61141,573,-8185,-145,-1,-12,-2,1
61146,541,-8188,-157,-2,-9,-2,1
61151,538,-8189,-143,-2,-6,-2,1
61156,551,-8188,-125,-2,-3,-2,1
61161,578,-8185,-119,-2,0,-2,1
61167,609,-8185,-123,-3,2,-2,1
61171,618,-8187,-145,-3,3,-2,1
61177,578,-8189,-185,-3,4,-2,1
61181,499,-8195,-274,-4,5,-3,1
61186,409,-8200,-431,-5,6,-5,1
61191,422,-8176,-722,-6,9,-6,1
61196,519,-8164,-1103,-5,15,-5,1
61201,115,-8188,-1025,-4,19,-3,1
61206,-258,-8210,-872,-4,7,-5,1
61211,-558,-8241,-959,-4,20,-6,1
61216,-916,-8332,-1101,-5,45,-4,1
61221,-1124,-9125,-1382,-4,58,-3,1
61226,-765,-10162,-1592,-2,60,-3,1
61231,68,-11051,-1986,-3,55,-3,1
61236,1143,-11812,-2139,-5,34,-2,1
61241,2429,-12465,-2017,-4,1,-1,1
61246,3597,-13025,-2051,-2,-30,1,1
61251,4477,-13505,-2273,1,-52,3,1
61256,4991,-13916,-2570,3,-63,6,1
61261,5264,-14268,-2603,6,-62,9,1
61266,5698,-14571,-2708,8,-53,11,1
61271,6099,-14830,-2865,6,-39,15,1
61276,6218,-15052,-2754,7,-34,18,1
61281,6006,-15242,-2468,7,-40,19,1
61286,5626,-15405,-2183,8,-38,19,1
61291,5187,-15545,-1903,9,-26,20,1
61296,4852,-15631,-1546,10,-12,19,1
61301,4456,-15259,-1457,11,-3,21,1
61306,4025,-14552,-1311,14,1,23,1
61311,3693,-13529,-1193,15,5,25,1
61316,3604,-12258,-909,15,13,26,1
61321,3670,-10788,-780,15,23,28,1
61326,3965,-9204,-318,18,29,28,1
61331,4102,-7531,-87,19,29,29,1
61336,4078,-5834,165,20,24,28,1
61341,3767,-4177,345,20,21,28,1
61346,3330,-2610,625,19,22,28,1
61351,2900,-1189,959,19,30,28,1
61356,2542,27,1359,18,40,28,1
61361,2185,1009,1797,17,51,27,1
61366,1919,1838,2060,16,61,27,1
61371,1613,2512,2165,15,57,25,1
61376,1207,3030,2144,14,48,23,1
61381,788,3397,2060,12,39,22,1
61386,348,3596,1997,11,30,20,1
61391,-142,3642,1989,8,24,17,1
61396,-692,3588,1826,6,19,14,1
61401,-1064,3437,1648,5,15,11,1
61406,-1483,3199,1667,2,14,8,1
61411,-1882,2886,1966,-1,8,6,1
61416,-2037,2485,2024,-4,6,3,1
61421,-2170,2040,2093,-6,4,2,1
61426,-2037,1555,2028,-6,-7,-2,1
61431,-1823,1058,1722,-8,-13,-4,1
61437,-1629,592,1340,-10,-23,-7,1
61443,-1572,172,995,-12,-32,-9,1
61448,-1625,-202,771,-13,-39,-11,1
61452,-1665,-543,652,-14,-41,-12,1
61457,-1592,-863,573,-15,-39,-13,1
61461,-1331,-1174,470,-16,-36,-14,1
61466,-960,-1482,297,-16,-34,-15,1
61472,-601,-1788,125,-17,-36,-15,1
61478,-330,-2090,3,-17,-39,-16,1
61484,-177,-2388,-52,-18,-41,-16,1
61489,-99,-2701,-110,-18,-41,-16,1
61496,-21,-3031,-201,-17,-39,-16,1
61502,130,-3367,-343,-17,-33,-16,1
61508,328,-3694,-488,-17,-29,-16,1
61514,516,-4011,-596,-17,-28,-16,1
61520,602,-4329,-653,-17,-29,-16,1
61526,568,-4646,-653,-16,-27,-16,1
61532,477,-4950,-636,-16,-20,-16,1
61538,403,-5234,-618,-16,-9,-15,1
61544,394,-5487,-605,-15,-1,-15,1
61550,443,-5706,-571,-15,4,-15,1
61556,492,-5907,-536,-15,4,-15,1
61562,483,-6095,-502,-14,2,-15,1
61567,410,-6266,-460,-13,0,-16,1
61572,309,-6422,-423,-13,1,-15,1
61577,221,-6564,-375,-12,4,-15,1
61581,152,-6696,-300,-11,8,-15,1
61586,108,-6814,-193,-10,10,-15,1
61590,87,-6921,-65,-9,11,-14,1
61596,68,-7016,73,-9,10,-14,1
61600,18,-7101,191,-8,7,-13,1
61606,-103,-7200,366,-7,5,-13,1
61610,-196,-7278,414,-9,2,-14,1
61615,-160,-7351,421,-9,0,-16,1
61619,-125,-7398,325,-10,-3,-16,1
61624,-169,-7432,217,-9,-7,-16,1
61629,-200,-7464,145,-8,-10,-16,1
61635,-210,-7506,129,-8,-9,-16,1
61640,-216,-7566,167,-7,-8,-15,1
61646,-182,-7639,253,-7,-9,-15,1
61650,-129,-7719,327,-6,-11,-15,1
61656,-98,-7801,373,-6,-15,-14,1
61661,-94,-7871,371,-5,-18,-14,1
61667,-93,-7926,335,-5,-20,-13,1
61672,-91,-7965,304,-5,-19,-13,1
61678,-75,-7990,295,-4,-19,-12,1
61684,-21,-8002,305,-4,-18,-11,1
61690,48,-8017,316,-3,-19,-11,1
61696,113,-8039,314,-3,-20,-10,1
61702,189,-8067,282,-2,-21,-9,1
61707,246,-8098,245,-2,-21,-8,1
61712,278,-8129,210,-2,-22,-7,1
61718,303,-8156,182,-1,-22,-7,1
61724,291,-8187,188,-1,-22,-6,1
61730,275,-8220,199,-1,-22,-5,1
61735,271,-8258,211,-1,-21,-5,1
61741,286,-8291,210,0,-20,-4,1
61747,334,-8309,195,0,-20,-4,1
61752,395,-8315,168,0,-20,-3,1
61758,455,-8316,139,0,-19,-2,1
61763,514,-8321,117,0,-18,-2,1
61768,573,-8329,103,0,-16,-1,1
61773,623,-8339,99,1,-15,0,1
61778,678,-8346,88,1,-14,0,1
61783,748,-8343,62,1,-13,1,1
61787,811,-8335,19,1,-13,2,1
61791,876,-8323,-34,2,-13,2,1
61796,950,-8311,-84,2,-14,3,1
61801,1003,-8303,-109,2,-15,4,1
61806,1055,-8296,-121,2,-15,4,1
61810,1108,-8291,-121,3,-14,5,1
61816,1124,-8292,-110,3,-14,5,1
61821,1096,-8292,-98,3,-14,5,1
61826,995,-8296,-79,3,-15,5,1
61830,590,-8310,38,3,-17,4,1
61835,501,-8316,44,2,-19,1,1
61840,609,-8325,40,1,-10,0,1
61844,516,-8310,98,2,-14,2,1
61848,517,-8291,94,2,-19,2,1
61852,391,-8294,102,2,-17,3,1
61857,287,-8302,109,2,-20,3,1
61861,312,-8323,75,2,-17,4,1
61866,436,-8343,44,2,-17,4,1
61870,644,-8356,-30,2,-19,4,1
61874,761,-8364,-89,2,-22,4,1
61880,811,-8364,-153,2,-24,4,1
61885,736,-8371,-175,2,-22,4,1
61889,628,-8378,-167,2,-22,4,1
61894,531,-8389,-162,2,-21,4,1
61899,530,-8390,-129,2,-21,4,1
61903,619,-8384,-121,2,-19,4,1
61908,739,-8364,-115,2,-20,4,1
61912,817,-8332,-125,2,-22,4,1
61918,797,-8296,-108,2,-23,4,1
61923,735,-8259,-79,1,-22,4,1
61928,668,-8225,-31,1,-20,4,1
61932,677,-8201,7,1,-19,4,1
61937,750,-8183,17,1,-18,4,1
61941,857,-8171,-2,1,-19,4,1
61946,929,-8167,-55,1,-20,4,1
61950,941,-8170,-91,1,-20,4,1
61955,898,-8179,-122,1,-19,4,1
61960,840,-8196,-118,0,-18,5,1
61964,815,-8207,-112,0,-16,5,1
61969,831,-8216,-112,1,-15,5,1
61973,870,-8212,-146,1,-16,5,1
61978,902,-8194,-192,1,-16,5,1
61984,894,-8170,-234,1,-15,5,1
61989,861,-8152,-252,1,-13,5,1
61995,806,-8145,-236,1,-11,5,1
62000,755,-8142,-204,1,-9,5,1
62006,741,-8144,-167,1,-8,6,1
62011,768,-8141,-165,1,-8,6,1
62017,802,-8135,-179,1,-10,6,1
62021,846,-8142,-255,0,-14,5,1
62025,914,-8159,-377,0,-14,5,1
62029,937,-8181,-447,-1,-14,5,1
62034,926,-8212,-425,-1,-14,5,1
62039,865,-8253,-318,-1,-13,5,1
62043,808,-8296,-225,-1,-12,5,1
62047,792,-8331,-184,-1,-10,5,1
62051,800,-8345,-226,-1,-9,5,1
62055,834,-8341,-301,-1,-9,5,1
62060,869,-8325,-353,-1,-9,5,1
62065,871,-8307,-340,-2,-8,5,1
62070,849,-8292,-274,-2,-8,5,1
62074,808,-8280,-195,-2,-8,5,1
62079,770,-8267,-157,-2,-9,5,1
62084,768,-8248,-173,-2,-10,5,1
62089,791,-8227,-217,-2,-10,5,1
62093,823,-8210,-248,-2,-11,5,1
62097,843,-8202,-237,-2,-11,5,1
62101,830,-8205,-193,-2,-10,5,1
62105,788,-8214,-141,-2,-11,5,1
62109,744,-8222,-117,-2,-11,5,1
62113,711,-8224,-128,-2,-11,5,1
62117,695,-8224,-154,-2,-11,5,1
62121,709,-8217,-168,-3,-11,5,1
62125,725,-8206,-151,-3,-10,5,1
62130,722,-8192,-104,-3,-9,5,1
62135,705,-8182,-54,-3,-7,5,1
62140,664,-8167,-27,-3,-6,5,1
62145,622,-8150,-21,-3,-5,5,1
62150,597,-8131,-32,-3,-5,5,1
62155,600,-8110,-37,-3,-4,5,1
62160,620,-8087,-24,-3,-4,5,1
62165,639,-8071,-1,-3,-4,5,1
62170,632,-8064,20,-3,-4,5,1
62175,604,-8069,27,-3,-5,5,1
62180,562,-8078,18,-3,-6,5,1
62185,529,-8089,-1,-3,-6,5,1
62190,518,-8100,-12,-4,-6,5,1
62195,521,-8113,-8,-4,-6,5,1
62200,525,-8125,6,-4,-6,5,1
62205,515,-8134,14,-4,-6,4,1
62210,488,-8144,9,-3,-6,4,1
62215,453,-8145,-2,-4,-6,4,1
62220,432,-8142,-10,-4,-6,4,1
62225,431,-8136,-10,-4,-5,4,1
62230,449,-8129,-4,-4,-5,4,1
62235,469,-8118,4,-4,-4,4,1
62240,484,-8112,4,-4,-3,4,1
62245,479,-8109,-7,-4,-3,4,1
62250,463,-8104,-23,-4,-4,4,1
62255,444,-8102,-36,-4,-3,4,1
62260,440,-8104,-47,-4,-4,4,1
62265,449,-8115,-61,-4,-4,3,1
62270,459,-8124,-85,-3,-5,3,1
62275,457,-8132,-116,-3,-6,3,1
62280,443,-8144,-146,-3,-5,3,1
62285,414,-8153,-164,-3,-5,3,1
62290,384,-8163,-164,-3,-4,3,1
62295,363,-8171,-151,-3,-4,3,1
62300,362,-8171,-135,-3,-4,3,1
62306,374,-8162,-132,-3,-4,2,1
62310,389,-8149,-128,-3,-4,2,1
62315,402,-8132,-125,-3,-4,2,1
62321,408,-8112,-119,-3,-5,2,1
62326,409,-8087,-106,-3,-6,2,1
62331,416,-8069,-91,-3,-6,2,1
62336,430,-8057,-81,-3,-6,2,1
62341,452,-8048,-71,-3,-7,2,1
62346,477,-8044,-65,-3,-7,2,1
62350,495,-8040,-64,-3,-7,2,1
62356,514,-8039,-59,-3,-6,2,1
62360,527,-8039,-56,-3,-6,2,1
62365,533,-8046,-52,-3,-5,2,1
62370,538,-8056,-49,-3,-4,2,1
62375,536,-8067,-49,-2,-4,2,1
62380,532,-8082,-50,-2,-4,2,1
62386,529,-8091,-52,-2,-4,2,1
62391,517,-8095,-58,-2,-4,2,1
62397,504,-8099,-60,-2,-5,2,1
62402,493,-8100,-56,-2,-5,2,1
62408,480,-8097,-50,-2,-5,2,1
62413,470,-8098,-38,-2,-6,2,1
62419,459,-8103,-22,-2,-6,2,1
62425,440,-8110,-17,-2,-7,2,1
62431,427,-8119,-18,-2,-7,2,1
62436,417,-8129,-14,-2,-7,2,1
62442,410,-8144,-7,-2,-7,2,1
62448,412,-8159,3,-2,-6,1,1
62452,419,-8179,13,-2,-5,1,1
62457,425,-8199,20,-2,-5,1,1
62462,433,-8222,16,-2,-5,1,1
62467,437,-8240,10,-2,-5,1,1
62472,438,-8254,1,-2,-5,1,1
62477,440,-8264,-5,-2,-6,1,1
62482,443,-8271,-10,-2,-6,1,1
62487,448,-8273,-12,-2,-6,1,1
62491,458,-8277,-14,-2,-7,1,0
62496,464,-8279,-16,-2,-7,1,0
62501,470,-8278,-14,-2,-7,1,0
62506,469,-8279,-12,-2,-7,1,0
62511,464,-8279,-6,-2,-7,1,0
62516,457,-8279,-2,-2,-6,1,0
62521,451,-8281,-1,-2,-5,1,0
62526,447,-8287,-7,-2,-5,1,0
62531,445,-8293,-10,-2,-6,1,0
62536,436,-8301,-11,-2,-6,1,0
62541,424,-8311,-8,-2,-6,1,0
62546,413,-8320,-7,-2,-7,1,0
62550,400,-8325,-6,-2,-7,1,0
62555,390,-8329,-7,-2,-6,1,0
62560,380,-8324,-8,-2,-6,1,0
62565,373,-8315,-11,-2,-5,1,0
62570,363,-8301,-12,-2,-5,1,0
62575,354,-8283,-18,-2,-6,0,0
62580,343,-8262,-21,-2,-6,0,0
62586,329,-8239,-24,-2,-7,0,0
62591,316,-8208,-29,-2,-7,0,0
62597,309,-8183,-34,-2,-7,0,0
62603,304,-8160,-39,-2,-7,0,0
62609,300,-8143,-49,-2,-7,0,0
62613,294,-8130,-48,-2,-7,0,0
62619,282,-8122,-40,-2,-7,0,0
62625,276,-8117,-47,-2,-8,0,0
62631,282,-8105,-64,-2,-7,0,0
62636,282,-8093,-75,-2,-7,0,0
62642,292,-8085,-76,-2,-7,0,0
62648,297,-8078,-52,-2,-7,-1,0
62653,299,-8073,-24,-2,-7,-1,0
62659,306,-8068,-5,-2,-7,-1,0
62665,306,-8061,-4,-2,-7,-1,0
62670,316,-8051,-7,-2,-6,-1,0
62676,325,-8037,-10,-2,-6,-1,0
62681,342,-8027,-6,-2,-5,-1,0
62686,355,-8028,8,-2,-5,-1,0
62691,367,-8036,19,-2,-5,-1,0
62696,377,-8050,17,-2,-5,-1,0
62701,378,-8063,6,-2,-6,0,0
62706,384,-8080,-18,-2,-5,-1,0
62711,394,-8101,-35,-2,-5,0,0
62716,410,-8120,-47,-2,-5,0,0
62721,426,-8140,-55,-2,-6,0,0
62726,437,-8157,-59,-2,-6,0,0
62731,444,-8176,-73,-2,-7,0,0
62736,444,-8194,-90,-2,-7,0,0
62741,441,-8207,-114,-2,-7,0,0
62746,441,-8219,-129,-2,-6,0,0
62751,449,-8228,-136,-2,-5,0,0
62756,458,-8236,-139,-2,-4,0,0
62761,464,-8237,-136,-2,-4,0,0
62765,469,-8240,-144,-2,-5,0,0
62770,466,-8242,-159,-3,-5,0,0
62774,460,-8246,-172,-2,-5,0,0
62779,453,-8251,-177,-3,-4,0,0
62785,449,-8257,-179,-3,-4,0,0
62791,453,-8265,-179,-3,-3,0,0
62797,453,-8275,-182,-3,-2,0,0
62803,454,-8281,-184,-3,-2,0,0
62809,451,-8284,-183,-3,-2,0,0
62814,438,-8283,-182,-3,-1,1,0
62820,427,-8280,-181,-3,-1,1,0
62826,418,-8275,-172,-3,-1,1,0
62831,414,-8271,-159,-3,-2,1,0
62837,415,-8269,-153,-3,-2,1,0
62843,415,-8263,-150,-3,-2,1,0
62849,411,-8254,-150,-3,-3,1,0
62854,405,-8243,-152,-3,-3,1,0
62860,397,-8233,-157,-3,-2,1,0
62866,390,-8227,-156,-3,-1,1,0
62872,389,-8220,-144,-3,-1,1,0
62877,389,-8216,-130,-3,0,1,0
62882,389,-8209,-120,-3,0,1,0
62887,388,-8199,-118,-3,0,1,0
62891,387,-8192,-119,-3,1,1,0
62896,386,-8185,-121,-3,1,1,0
62901,389,-8176,-120,-3,1,1,0
62906,394,-8172,-114,-3,2,1,0
62910,405,-8168,-109,-3,2,1,0
62915,411,-8164,-106,-3,2,1,0
62919,412,-8159,-114,-3,2,1,0
62924,409,-8154,-129,-3,2,1,0
62929,404,-8152,-145,-3,2,1,0
62933,399,-8154,-166,-3,2,2,0
62937,394,-8155,-189,-3,2,2,0
62942,387,-8162,-210,-3,1,2,0
62946,376,-8171,-228,-3,1,2,0
62951,358,-8184,-245,-3,1,1,0
62955,334,-8193,-260,-3,1,1,0
62960,307,-8202,-273,-2,1,1,0
62965,280,-8210,-285,-2,0,1,0
62970,256,-8216,-291,-2,0,1,0
62974,234,-8219,-288,-2,0,1,0
62979,214,-8222,-275,-2,-1,1,0
62984,192,-8222,-250,-2,-1,1,0
62989,173,-8223,-227,-2,-2,1,0
62993,156,-8225,-201,-1,-2,0,0
62999,147,-8225,-176,-1,-2,0,0
63004,145,-8225,-146,-1,-2,0,0
63009,142,-8226,-129,-1,-2,0,0
63013,141,-8225,-114,-1,-2,0,0
63019,142,-8223,-103,-1,-1,0,0
63024,146,-8223,-97,-1,0,0,0
63029,151,-8223,-87,-1,0,0,0
63033,162,-8222,-77,-1,0,0,0
63039,176,-8225,-66,-1,0,0,0
63043,197,-8226,-55,-1,1,0,0
63048,221,-8228,-47,-1,1,0,0
63052,243,-8232,-46,-1,1,0,0
63057,261,-8237,-46,-1,1,0,0
63062,274,-8241,-42,-1,1,0,0
63066,288,-8249,-38,-1,1,0,0
63071,302,-8257,-30,-1,1,0,0
63076,317,-8263,-25,-1,0,0,0
63081,333,-8271,-20,-1,1,0,0
63086,348,-8276,-19,-1,1,0,0
63091,359,-8282,-22,-1,1,0,0
63096,369,-8286,-21,-1,1,0,0
63101,378,-8286,-24,-1,1,1,0
63106,387,-8286,-23,-1,1,1,0
63111,391,-8278,-26,0,1,1,0
63116,388,-8268,-27,0,2,1,0
63121,389,-8258,-30,0,3,1,0
63125,394,-8245,-32,0,4,1,0
63130,399,-8230,-32,0,4,1,0
63134,407,-8216,-34,0,4,1,0
63139,410,-8208,-34,0,4,1,0
63144,408,-8200,-40,0,4,1,0
63148,402,-8193,-42,0,4,1,0
63152,392,-8189,-40,0,4,1,0
63157,378,-8190,-31,0,4,1,0
63163,365,-8191,-17,0,4,2,0
63168,350,-8192,-16,0,4,1,0
63172,332,-8195,-21,0,3,1,0
63178,314,-8195,-28,0,3,1,0
63183,296,-8193,-31,0,3,1,0
63188,276,-8192,-31,0,2,1,0
63192,260,-8193,-32,0,2,1,0
63198,245,-8195,-28,0,2,1,0
63203,231,-8201,-21,0,2,1,0
63209,215,-8206,-22,0,2,1,0
63213,204,-8207,-27,0,2,1,0
63219,195,-8212,-32,0,1,1,0
63224,188,-8216,-33,0,0,1,0
63230,187,-8214,-36,0,0,1,0
63234,196,-8215,-35,0,-1,1,0
63239,204,-8217,-39,0,-1,1,0
63244,208,-8223,-55,0,-1,1,0
63248,215,-8228,-71,0,-1,1,0
63252,221,-8230,-78,0,0,1,0
63256,219,-8226,-77,0,0,1,0
63261,216,-8223,-67,0,0,1,0
63265,216,-8221,-59,0,0,1,0
63270,217,-8218,-58,0,0,1,0
63273,213,-8211,-58,0,0,1,0
63277,210,-8201,-56,0,0,0,0
63281,207,-8191,-51,0,-1,0,0
63285,205,-8184,-49,0,-2,0,0
63289,207,-8181,-43,0,-2,0,0
63293,214,-8177,-37,0,-2,0,0
63298,227,-8175,-24,0,-2,0,0
63303,240,-8178,-15,0,-2,0,0
63308,259,-8182,-5,-1,-2,0,0
63312,273,-8186,1,-1,-2,0,0
63317,284,-8192,2,-1,-2,0,0
63321,293,-8198,7,-1,-2,1,0
63325,301,-8201,11,-1,-2,1,0
63329,308,-8205,18,-1,-1,1,0
63334,311,-8207,18,-1,-1,1,0
63339,315,-8208,17,-1,0,1,0
63344,314,-8205,15,-1,0,1,0
63349,306,-8198,13,-1,0,1,0
63354,296,-8190,13,-1,1,1,0
63359,287,-8181,17,-1,1,1,0
63364,280,-8172,26,-1,2,1,0
63369,278,-8165,39,-1,2,1,0
63374,281,-8159,55,-1,2,1,0
63379,283,-8155,64,-1,2,1,0
63384,285,-8153,66,-2,1,1,0
63389,284,-8153,64,-2,1,1,0
63394,283,-8156,69,-2,1,1,0
63399,286,-8161,76,-2,1,1,0
63404,289,-8171,87,-2,1,1,0
63409,284,-8187,97,-2,1,1,0
63414,279,-8206,93,-2,1,1,0
63419,270,-8222,85,-2,2,1,0
63424,255,-8238,77,-2,2,2,0
63429,239,-8250,73,-2,3,1,0
63434,225,-8261,74,-2,3,1,0
63439,206,-8274,85,-2,2,1,0
63444,189,-8281,95,-2,2,1,0
63449,174,-8286,103,-2,1,1,0
63454,157,-8289,107,-2,0,1,0
63459,146,-8288,104,-2,0,1,0
63464,143,-8284,93,-2,0,1,0
63469,148,-8276,76,-3,0,1,0
63474,157,-8267,63,-3,0,1,0
63479,164,-8259,41,-3,0,1,0
63484,167,-8253,17,-3,0,1,0
63489,168,-8247,-17,-3,0,1,0
63494,163,-8242,-52,-3,0,1,0
63499,159,-8239,-89,-3,0,1,0
63504,162,-8238,-120,-2,0,1,0
63509,166,-8238,-146,-2,1,1,0
63514,170,-8234,-170,-2,1,1,0
63519,168,-8227,-189,-2,1,1,0
63524,167,-8218,-213,-2,1,1,0
63529,159,-8203,-232,-2,1,1,0
63534,148,-8184,-254,-2,1,1,0
63539,134,-8164,-263,-2,1,1,0
63544,121,-8141,-262,-2,0,1,0
63549,109,-8119,-249,-1,0,1,0
63554,100,-8103,-230,-1,-1,0,0
63559,92,-8089,-209,-1,-2,0,0
63564,84,-8074,-189,-1,-3,0,0
63569,80,-8061,-163,-1,-4,0,0
63573,78,-8052,-139,-1,-4,0,0
63579,77,-8046,-114,-1,-4,0,0
63584,77,-8042,-92,-1,-5,0,0
63589,72,-8036,-70,-2,-5,0,0
63594,71,-8037,-50,-2,-4,0,0
63599,73,-8040,-36,-2,-3,0,0
63604,74,-8045,-23,-2,-3,0,0
63609,77,-8051,-7,-2,-3,0,0
63614,84,-8058,4,-2,-3,0,0
63619,91,-8068,13,-2,-3,0,0
63624,96,-8082,19,-2,-3,0,0
63629,100,-8096,29,-2,-3,0,0
63633,109,-8111,42,-2,-2,0,0
63639,123,-8130,59,-2,-2,0,0
63644,139,-8149,69,-2,-1,0,0
63649,156,-8170,80,-2,-1,0,0
63654,176,-8189,86,-2,-1,0,0
63659,193,-8206,88,-2,-2,0,0
63664,209,-8221,93,-3,-2,0,0
63668,222,-8238,98,-3,-2,0,0
63674,231,-8249,100,-3,-2,0,0
63679,233,-8255,105,-3,-2,0,0
63683,237,-8261,110,-3,-1,0,0
63689,240,-8263,113,-3,-1,0,0
63694,242,-8263,111,-3,-1,0,0
63699,241,-8261,109,-3,0,0,0
63703,238,-8255,109,-3,0,0,0
63708,233,-8251,102,-3,0,0,0
63714,226,-8247,100,-3,0,0,0
63718,219,-8245,102,-3,0,0,0
63723,214,-8245,106,-3,0,0,0
63728,205,-8248,110,-3,0,0,0
63734,196,-8248,112,-3,0,0,0
63739,190,-8248,111,-3,0,0,0
63744,185,-8248,104,-3,1,0,0
63749,182,-8247,93,-3,1,0,0
63753,180,-8242,81,-3,0,0,0
63758,178,-8234,74,-3,0,0,0
63763,176,-8223,64,-3,0,0,0
63768,178,-8209,58,-3,0,0,0
63773,183,-8192,53,-3,0,0,0
63779,192,-8176,46,-3,0,0,0
63784,198,-8164,43,-3,-1,0,0
63790,206,-8151,42,-3,-1,0,0
63795,213,-8137,35,-3,-1,0,0
63801,218,-8127,32,-3,-1,0,0
63807,224,-8120,31,-3,-1,0,0
63812,229,-8115,34,-3,-1,0,0
63817,235,-8115,34,-3,-1,0,0
63823,242,-8116,36,-3,-1,0,0
63829,246,-8117,42,-3,-1,0,0
63835,252,-8116,48,-2,-1,0,0
63840,261,-8115,49,-2,-1,0,0
63846,267,-8116,53,-2,-1,0,0
63851,269,-8116,58,-2,-1,0,0
63857,265,-8117,56,-2,-1,0,0
63863,257,-8116,58,-2,-1,0,0
63868,242,-8121,61,-2,-1,0,0
63872,224,-8125,68,-2,-1,0,0
63876,208,-8130,74,-2,-1,0,0
63882,187,-8139,75,-2,-2,0,0
63887,166,-8149,79,-2,-2,0,0
63891,147,-8161,80,-2,-2,-1,0
63897,128,-8175,82,-2,-2,-1,0
63902,113,-8192,81,-2,-2,-1,0
63907,107,-8210,77,-2,-2,-1,0
63912,107,-8231,69,-2,-2,-1,0
63917,111,-8246,57,-2,-2,-1,0
63922,117,-8260,44,-2,-2,-1,0
63927,123,-8269,29,-2,-2,-1,0
63932,127,-8275,15,-2,-1,-1,0
63937,137,-8278,6,-2,-1,-1,0
63941,148,-8280,5,-2,-1,-1,0
63946,161,-8276,11,-2,-1,-1,0
63951,170,-8276,15,-2,0,-1,0
63956,173,-8276,13,-2,0,-1,0
63960,170,-8279,13,-2,0,-1,0
63965,168,-8285,13,-2,-1,-1,0
63971,156,-8290,14,-2,-1,-1,0
63975,146,-8292,21,-1,-1,-1,0
63981,137,-8296,29,-1,-1,-1,0
63987,127,-8297,32,-1,-1,-1,0
63992,118,-8297,34,-1,-1,-1,0
63998,114,-8297,38,-1,-1,-2,0
64004,122,-8289,40,-1,0,-2,0
64009,130,-8277,40,-1,0,-2,0
64014,140,-8265,33,-1,1,-2,0
64020,151,-8250,28,-1,1,-2,0
64025,163,-8231,21,-1,2,-1,0
64031,175,-8208,17,-1,2,-1,0
64037,190,-8186,3,-1,2,-1,0
64043,207,-8167,-5,-1,2,-1,0
64049,223,-8153,-18,-1,2,-1,0
64054,241,-8139,-28,-1,1,-1,0
64059,256,-8132,-38,-1,1,-1,0
64065,267,-8130,-45,-1,0,-1,0
64071,265,-8128,-43,-1,-1,-1,0
64077,251,-8131,-42,-1,-2,-1,0
64083,226,-8133,-41,-1,-3,-1,0
64089,199,-8137,-36,-1,-3,-1,0
64094,180,-8138,-29,-1,-3,-1,0
64101,173,-8138,-22,-1,-2,-1,0
64107,175,-8136,-15,-1,-1,-1,0
64113,185,-8132,-10,-1,-1,-1,0
64118,193,-8127,-7,-1,-1,-1,0
64125,196,-8118,-6,-1,-1,-1,0
64131,194,-8104,-8,-1,-1,-1,0
64137,187,-8087,-8,-1,-1,-1,0
64143,177,-8070,-13,-1,-1,-1,0
64149,166,-8059,-11,-1,-1,-1,0
64155,163,-8056,-9,-1,-1,-1,0
64161,166,-8054,-5,-1,0,-1,0
64167,173,-8048,1,-1,0,-1,0
64172,185,-8041,4,-1,-1,-1,0
64178,191,-8040,1,-1,-1,-1,0
64184,193,-8039,-1,-1,-1,-1,0
64189,190,-8041,-1,-1,-1,-1,0
64195,185,-8047,4,-1,0,-1,0
64200,180,-8058,6,-1,0,-1,0
64206,179,-8065,5,-1,0,-1,0
64212,179,-8072,10,-1,0,-1,0
64217,181,-8079,12,-1,0,-1,0
64223,180,-8090,9,-1,0,-1,0
64228,179,-8097,1,-1,0,-1,0
64234,174,-8099,-3,-1,0,-1,0
64240,169,-8100,-8,-1,0,-1,0
64246,163,-8104,-11,-1,1,-1,0
64251,159,-8108,-17,-1,2,-1,0
64257,159,-8112,-18,-1,2,-1,0
64263,157,-8119,-14,-1,3,-1,0
64269,159,-8129,-3,-1,3,-1,0
64273,158,-8142,9,-1,3,-1,0
64278,158,-8156,25,-1,2,-1,0
64282,157,-8175,43,-1,2,-1,0
64287,153,-8194,59,-1,1,-1,0
64292,149,-8216,75,-2,2,-1,0
64297,144,-8239,91,-2,2,-1,0
64302,140,-8266,104,-2,2,-1,0
64307,138,-8291,117,-2,3,-1,0
64312,139,-8308,122,-2,3,-1,0
64316,143,-8320,124,-2,3,-1,0
64321,152,-8328,119,-2,3,-1,0
64325,162,-8329,114,-2,3,-1,0
64330,174,-8324,109,-2,3,-1,0
64334,188,-8315,102,-3,3,-1,0
64340,197,-8306,97,-3,3,-1,0
64345,204,-8293,93,-3,4,-1,0
64349,211,-8285,86,-3,4,-1,0
64353,216,-8278,78,-3,4,-1,0
64358,221,-8272,69,-3,4,-1,0
64363,227,-8265,64,-3,4,0,0
64367,235,-8256,62,-3,4,0,0
64372,239,-8248,61,-3,4,0,0
64376,241,-8240,51,-3,4,0,0
64381,238,-8233,43,-3,3,0,0
64385,232,-8229,36,-3,3,0,0
64389,229,-8228,35,-3,3,0,0
64393,224,-8227,35,-3,2,0,0
64398,217,-8224,35,-3,2,0,0
64402,207,-8219,32,-3,1,0,0
64406,197,-8210,25,-3,1,0,0
64411,182,-8199,19,-3,1,0,0
64416,166,-8189,14,-3,1,0,0
64420,154,-8181,17,-3,1,0,0
64425,148,-8172,23,-3,1,-1,0
64430,145,-8165,25,-3,1,-1,0
64434,145,-8158,30,-3,1,-1,0
64438,141,-8152,28,-2,0,-1,0
64442,138,-8151,27,-2,-1,-1,0
64446,134,-8151,29,-2,-2,-1,0
64450,131,-8153,34,-2,-2,-1,0
64454,127,-8154,45,-2,-2,-1,0
64459,126,-8160,54,-2,-2,-1,0
64463,122,-8168,58,-2,-3,-1,0
64467,119,-8175,58,-2,-2,-1,0
64471,117,-8185,58,-2,-2,-1,0
64475,118,-8195,59,-2,-2,-1,0
64479,122,-8204,65,-2,-2,-1,0
64483,124,-8207,75,-2,-2,-1,0
64488,125,-8204,86,-2,-2,-1,0
64492,129,-8201,94,-2,-2,-1,0
64496,129,-8196,96,-2,-2,-1,0
64500,132,-8188,101,-2,-2,-1,0
64504,139,-8178,107,-2,-2,-1,0
64508,150,-8171,106,-2,-2,-1,0
64512,160,-8165,109,-2,-2,-1,0
64516,171,-8159,108,-2,-2,-1,0
64520,181,-8154,106,-2,-1,-1,0
64524,189,-8151,108,-2,-1,-1,0
64528,195,-8153,107,-2,-1,-1,0
64532,198,-8161,108,-2,-1,-1,0
64536,201,-8172,107,-2,-1,-1,0
64540,204,-8183,110,-2,-1,-1,0
64544,207,-8194,117,-2,-1,-1,0
64548,208,-8201,119,-2,-1,-1,0
64552,205,-8209,123,-2,-1,-1,0
64556,204,-8217,124,-2,-1,-1,0
64560,205,-8224,120,-2,-2,-1,0
64564,207,-8232,117,-3,-2,-1,0
64568,213,-8236,108,-2,-2,-1,0
64572,224,-8240,104,-3,-2,-1,0
64577,233,-8242,99,-3,-3,-1,0
64582,245,-8243,93,-3,-3,-1,0
64587,253,-8247,83,-3,-3,-1,0
64592,259,-8251,72,-3,-4,-1,0
64597,259,-8252,64,-2,-4,-1,0
64602,259,-8254,58,-2,-4,-1,0
64607,256,-8254,58,-2,-3,-1,0
64612,253,-8257,64,-2,-3,-1,0
64617,251,-8262,66,-3,-2,-1,0
64622,248,-8267,61,-3,-1,-1,0
64627,248,-8270,59,-3,-1,-1,0
64632,249,-8270,59,-3,0,-1,0
64637,251,-8263,62,-3,0,-1,0
64642,251,-8257,63,-3,-1,-1,0
64647,250,-8253,63,-3,-1,-1,0
64652,249,-8249,62,-3,0,-1,0
64657,250,-8245,54,-3,0,-1,0
64662,252,-8239,46,-3,0,-1,0
64667,254,-8234,38,-3,1,-1,0
64672,258,-8229,25,-3,1,-1,0
64677,263,-8227,13,-3,1,-1,0
64682,262,-8225,1,-3,1,-1,0
64687,262,-8222,-9,-3,0,-1,0
64693,260,-8211,-14,-3,0,0,0
64697,259,-8202,-19,-3,0,0,0
64702,259,-8192,-22,-3,0,0,0
64707,254,-8180,-26,-2,0,0,0
64712,248,-8170,-33,-2,0,0,0
64717,239,-8160,-39,-2,1,0,0
64722,229,-8155,-40,-2,1,0,0
64727,220,-8151,-35,-2,1,0,0
64732,212,-8144,-32,-2,1,0,0
64737,204,-8142,-29,-2,0,0,0
64742,196,-8141,-24,-2,0,0,0
64747,189,-8143,-22,-2,-1,0,0
64752,182,-8147,-16,-2,0,0,0
64757,181,-8153,-14,-2,0,0,0
64762,182,-8155,-8,-2,0,0,0
64767,184,-8157,0,-2,0,0,0
64772,188,-8160,5,-2,1,0,0
64778,188,-8163,11,-2,1,0,0
64783,187,-8162,13,-2,1,0,0
64789,184,-8160,19,-2,1,0,0
64793,180,-8156,26,-2,1,0,0
64799,176,-8152,35,-2,1,0,0
64804,172,-8150,42,-2,0,0,0
64809,169,-8147,49,-2,0,0,0
64814,164,-8145,55,-2,0,0,0
64819,164,-8147,59,-2,-1,0,0
64825,167,-8151,60,-2,-1,0,0
64830,172,-8157,60,-2,-2,0,0
64836,171,-8162,61,-2,-2,0,0
64841,171,-8166,59,-2,-2,-1,0
64847,173,-8172,52,-2,-2,0,0
64852,177,-8176,49,-2,-2,-1,0
64858,180,-8180,51,-2,-2,0,0
64864,183,-8186,49,-2,-1,0,0
64869,184,-8189,47,-2,-1,0,0
64874,184,-8189,45,-2,-1,0,0
64878,182,-8188,42,-2,-1,0,0
64884,179,-8186,39,-2,-1,-1,0
64889,174,-8182,38,-2,-2,0,0
64893,173,-8177,37,-2,-2,-1,0
64897,175,-8169,45,-2,-2,-1,0
64902,178,-8165,50,-2,-2,-1,0
64907,187,-8164,55,-2,-1,-1,0
64912,197,-8164,57,-2,-2,-1,0
64917,204,-8167,64,-2,-2,0,0
64922,209,-8171,71,-2,-2,-1,0
64927,213,-8179,74,-2,-2,0,0
64932,211,-8190,74,-2,-3,0,0
64937,212,-8198,70,-2,-3,0,0
64942,212,-8206,61,-2,-3,0,0
64947,215,-8216,60,-2,-3,0,0
64951,220,-8228,56,-2,-3,0,0
64956,229,-8237,56,-2,-3,0,0
64961,235,-8245,53,-2,-3,0,0
64966,239,-8251,43,-2,-3,0,0
64971,240,-8255,32,-2,-3,0,0
64975,245,-8255,21,-2,-3,0,0
64981,254,-8255,10,-2,-4,0,0
64986,266,-8256,6,-2,-4,0,0
64992,274,-8257,4,-2,-5,0,0
64997,284,-8255,9,-2,-5,0,0
65003,297,-8253,13,-2,-5,0,0
65009,308,-8248,10,-2,-5,0,0
65014,316,-8244,2,-2,-5,0,0
65020,323,-8240,-3,-2,-5,0,0
65026,330,-8239,-3,-2,-5,0,0
65032,341,-8236,2,-2,-5,0,0
65037,347,-8232,13,-2,-4,0,0
65042,347,-8227,21,-2,-4,0,0
65048,347,-8220,25,-1,-4,0,0
65052,340,-8211,25,-1,-4,0,0
65058,331,-8205,25,-1,-3,0,0
65063,319,-8194,28,-1,-2,0,0
65069,310,-8186,35,-1,-2,0,0
65073,302,-8182,38,-1,-1,0,0
65078,294,-8178,43,-1,-1,0,0
65083,283,-8175,49,-1,-1,0,0
65087,271,-8171,49,-1,-1,0,0
65092,256,-8174,46,-1,-1,0,0
65097,239,-8176,41,-1,-1,0,0
65102,223,-8179,45,-1,0,0,0
65107,205,-8186,44,-1,0,0,0
65111,189,-8191,45,-1,0,0,0
65116,173,-8196,48,-1,0,0,0
65121,161,-8200,51,-1,0,0,0
65125,150,-8197,58,-1,0,0,0
65130,142,-8193,66,-1,0,0,0
65134,137,-8189,70,-1,0,-1,0
65139,132,-8183,72,-1,-1,-1,0
65144,130,-8178,72,-1,-1,-1,0
65149,129,-8171,66,-1,-2,-1,0
65154,130,-8166,65,-1,-3,-1,0
65159,129,-8160,65,-1,-4,-1,0
65164,127,-8157,70,-1,-4,-1,0
65169,125,-8154,68,-1,-4,-1,0
65174,125,-8151,63,-1,-4,-1,0
65180,120,-8148,59,-1,-4,-1,0
65186,118,-8145,58,-1,-5,-1,0
65192,120,-8143,57,-1,-5,-1,0
65197,119,-8138,56,-1,-5,-1,0
65203,120,-8134,59,-1,-5,-2,0
65209,122,-8132,58,-1,-5,-2,0
65215,129,-8132,57,-1,-5,-2,0
65220,138,-8130,55,-1,-5,-2,0
65226,144,-8126,54,-1,-5,-2,0
65232,155,-8124,58,-1,-4,-2,0
65237,165,-8125,58,-1,-4,-2,0
65243,179,-8121,60,-1,-3,-2,0
65249,196,-8117,61,-1,-3,-2,0
65254,215,-8113,58,-1,-3,-2,0
65260,232,-8114,55,-1,-2,-2,0
65266,250,-8117,53,-1,-2,-1,0
65272,272,-8122,50,-1,-2,-1,0
65276,287,-8125,44,-1,-2,-1,0
65281,296,-8129,46,-1,-2,-1,0
65287,306,-8137,45,-1,-2,-1,0
65291,313,-8140,47,-1,-2,-1,0
65296,318,-8147,54,-1,-2,-1,0
65302,314,-8159,65,-1,-2,-1,0
65307,308,-8168,74,-1,-2,-1,0
65312,302,-8175,81,-2,-2,-1,0
65316,297,-8177,86,-2,-2,-1,0
65321,291,-8181,88,-2,-2,-1,0
65326,282,-8185,97,-2,-1,-1,0
65331,275,-8184,106,-2,-1,-1,0
65336,272,-8186,113,-2,-1,-1,0
65341,268,-8187,118,-2,0,-1,0
65346,266,-8192,123,-2,0,-1,0
65350,268,-8198,130,-2,0,-1,0
65355,275,-8202,136,-2,0,-1,0
65360,287,-8207,139,-2,0,-1,0
65365,296,-8213,131,-2,1,-1,0
65369,304,-8218,119,-3,1,-1,0
65374,313,-8223,112,-3,1,-1,0
65378,321,-8223,97,-3,1,-1,0
65383,327,-8225,84,-3,1,-1,0
65388,333,-8224,77,-3,1,-1,0
65393,338,-8224,75,-3,1,0,0
65399,338,-8220,72,-3,1,0,0
65404,331,-8219,68,-3,1,0,0
65410,320,-8216,64,-3,1,0,0
65414,305,-8215,65,-3,0,0,0
65420,288,-8212,67,-3,0,0,0
65424,275,-8207,71,-3,0,-1,0
65429,260,-8202,73,-3,0,-1,0
65434,247,-8195,76,-3,0,-1,0
65438,238,-8193,75,-3,0,-1,0
65442,228,-8190,68,-3,0,-1,0
65446,226,-8187,58,-3,0,-1,0
65449,231,-8185,51,-3,0,-1,0
65454,236,-8182,44,-3,0,-1,0
65459,244,-8177,38,-3,0,-1,0
65464,251,-8174,31,-3,0,-1,0
65468,257,-8168,21,-3,0,-1,0
65473,264,-8164,12,-3,-1,-1,0
65477,268,-8159,9,-3,-1,-1,0
65481,271,-8155,10,-3,-1,-1,0
65485,273,-8153,10,-3,-1,-1,0
65489,278,-8149,8,-3,-2,-1,0
65493,280,-8143,7,-3,-2,-1,0
65497,280,-8135,8,-3,-2,-1,0
65501,278,-8127,12,-3,-2,-1,0
65505,274,-8123,11,-3,-2,-1,0
65509,271,-8124,10,-3,-2,-1,0
65513,268,-8124,10,-3,-2,-1,0
65517,268,-8127,14,-3,-2,-1,0
65521,265,-8130,13,-3,-3,-1,0
65526,261,-8134,8,-3,-3,-1,0
65531,257,-8134,3,-3,-3,-1,0
65536,254,-8134,0,-3,-3,-1,0
65541,248,-8136,4,-3,-3,-1,0
65546,243,-8139,11,-3,-3,-1,0
65551,237,-8139,22,-3,-3,-1,0
65556,233,-8141,30,-3,-3,-1,0
65561,224,-8145,30,-3,-3,-1,0
65566,217,-8146,26,-3,-3,-1,0
65571,213,-8148,20,-4,-2,-1,0
65576,213,-8152,17,-4,-2,-1,0
65581,219,-8157,11,-4,-2,-1,0
65586,227,-8164,6,-4,-1,-1,0
65591,237,-8175,3,-4,-1,-1,0
65596,248,-8186,-4,-4,-1,-1,0
65601,255,-8199,-8,-4,-1,-1,0
65606,256,-8214,-15,-4,-1,-1,0
65611,257,-8230,-22,-4,-1,-1,0
65616,255,-8239,-21,-4,-1,-1,0
65621,252,-8247,-17,-4,-1,-1,0
65626,248,-8253,-12,-4,-1,-1,0
65631,248,-8256,-10,-4,-1,-1,0
65636,244,-8252,-8,-4,-1,-1,0
65641,241,-8244,-11,-4,-2,-1,0
65646,241,-8239,-13,-4,-2,-1,0
65651,239,-8231,-17,-4,-3,-1,0
65656,239,-8220,-15,-4,-3,-1,0
65661,242,-8214,-6,-4,-3,-1,0
65666,245,-8207,-1,-4,-4,-1,0
65671,250,-8201,4,-4,-4,-1,0
65676,258,-8196,8,-4,-4,-1,0
65681,266,-8195,7,-4,-4,-1,0
65686,275,-8195,3,-4,-3,-1,0
65691,287,-8195,5,-4,-2,-1,0
65696,301,-8196,5,-4,-2,-1,0
65701,309,-8194,6,-4,-2,-1,0
65706,318,-8190,7,-4,-2,-1,0
65711,318,-8182,4,-4,-2,-1,0
65716,316,-8177,9,-4,-2,-1,0
65721,312,-8167,6,-4,-2,-1,0
65726,308,-8159,6,-4,-2,-1,0
65731,305,-8155,5,-4,-2,-1,0
65736,307,-8154,4,-4,-2,-1,0
65741,310,-8156,5,-4,-2,-1,0
65746,313,-8158,-5,-4,-2,-1,0
65751,319,-8166,-18,-4,-2,-1,0
65756,320,-8177,-29,-4,-2,-1,0
65761,321,-8186,-40,-4,-2,-1,0
65766,318,-8200,-50,-4,-2,-1,0
65771,311,-8216,-62,-4,-3,-1,0
65776,304,-8227,-69,-4,-3,-1,0
65781,299,-8235,-73,-4,-3,-1,0
65786,292,-8240,-73,-4,-3,-1,0
65791,288,-8244,-77,-4,-3,-1,0
65796,288,-8244,-80,-4,-3,-1,0
65801,285,-8242,-85,-4,-3,-1,0
65806,283,-8238,-85,-4,-3,-1,0
65811,279,-8234,-81,-4,-4,-1,0
65816,276,-8231,-77,-4,-4,-1,0
65821,271,-8228,-72,-4,-4,-1,0
65826,266,-8227,-66,-4,-5,-1,0
65831,264,-8223,-61,-4,-5,-1,0
65836,266,-8220,-52,-4,-5,-1,0
65841,271,-8215,-44,-4,-5,-1,0
65846,276,-8211,-42,-4,-5,-1,0
65851,281,-8207,-50,-4,-5,-1,0
65856,290,-8197,-55,-4,-5,-1,0
65861,295,-8185,-57,-4,-5,-1,0
65866,299,-8171,-58,-4,-5,-1,0
65871,303,-8160,-57,-4,-4,-1,0
65876,303,-8145,-59,-4,-4,-1,0
65881,305,-8133,-60,-3,-4,-1,0
65886,301,-8125,-63,-3,-4,-1,0
65891,297,-8116,-65,-3,-4,-1,0
65896,293,-8109,-64,-3,-4,-1,0
65901,295,-8108,-64,-3,-4,-1,0
65906,298,-8106,-65,-3,-4,-1,0
65911,302,-8106,-68,-3,-3,-1,0
65916,308,-8103,-65,-3,-3,-1,0
65921,309,-8102,-63,-3,-2,-1,0
65926,309,-8106,-65,-3,-2,-1,0
65931,314,-8106,-67,-3,-2,-1,0
65936,316,-8109,-65,-3,-1,-1,0
65941,317,-8115,-70,-3,-1,-1,0
65946,319,-8125,-70,-3,-1,-1,0
65951,322,-8137,-68,-3,-1,-1,0
65956,323,-8151,-62,-3,0,-1,0
65961,321,-8169,-62,-4,0,-1,0
65966,320,-8185,-61,-4,0,-1,0
65971,318,-8200,-60,-4,0,-1,0
65976,312,-8216,-54,-4,-1,-1,0
65981,301,-8232,-57,-4,-1,-1,1
65986,289,-8245,-52,-4,-2,-1,1
65991,274,-8253,-46,-4,-2,-1,1
65996,258,-8258,-43,-4,-3,-1,1
66001,244,-8267,-38,-4,-3,-1,1
66006,235,-8273,-33,-4,-3,-1,1
66011,235,-8275,-35,-4,-3,-1,1
66016,245,-8270,-43,-4,-3,-1,1
66021,263,-8265,-57,-3,-3,-1,1
66026,283,-8253,-76,-3,-3,-1,1
66031,300,-8239,-90,-3,-3,-1,1
66036,323,-8229,-103,-3,-3,-1,1
66041,338,-8216,-112,-3,-3,-1,1
66046,347,-8203,-119,-3,-3,-1,1
66051,349,-8191,-121,-3,-3,-1,1
66056,343,-8182,-117,-3,-4,-1,1
66061,337,-8175,-105,-3,-4,-1,1
66066,330,-8168,-92,-3,-4,-1,1
66071,331,-8164,-76,-3,-3,-1,1
66076,333,-8160,-63,-3,-3,-1,1
66081,337,-8159,-52,-3,-3,-1,1
66086,343,-8160,-40,-3,-3,-1,1
66091,349,-8161,-30,-3,-3,-1,1
66096,359,-8165,-24,-3,-3,-1,1
66101,360,-8170,-17,-3,-3,-1,1
66106,357,-8177,-13,-3,-3,-1,1
66111,356,-8186,-10,-3,-3,-1,1
66116,354,-8195,-9,-3,-3,-1,1
66121,357,-8200,-9,-3,-3,-1,1
66126,366,-8207,-13,-3,-3,-1,1
66131,374,-8214,-23,-3,-3,-1,1
66136,387,-8220,-36,-3,-3,-1,1
66141,401,-8226,-51,-3,-2,-1,1
66146,414,-8231,-64,-3,-2,-1,1
66151,423,-8235,-70,-3,-2,-1,1
66156,428,-8243,-76,-3,-3,-1,1
66161,428,-8247,-81,-3,-3,0,1
66166,426,-8253,-95,-3,-3,0,1
66171,420,-8260,-107,-3,-2,0,1
66176,415,-8267,-119,-3,-2,0,1
66181,417,-8273,-131,-3,-2,0,1
66186,420,-8276,-145,-3,-2,0,1
66191,423,-8282,-155,-2,-2,0,1
66196,425,-8288,-165,-2,-2,0,1
66201,427,-8290,-174,-2,-2,0,1
66206,424,-8287,-178,-2,-2,0,1
66211,424,-8286,-183,-2,-2,0,1
66216,418,-8284,-187,-2,-2,0,1
66221,414,-8279,-190,-2,-2,0,1
66226,411,-8276,-189,-2,-2,0,1
66231,408,-8273,-184,-2,-2,0,1
66235,407,-8274,-181,-2,-2,0,1
66241,406,-8274,-172,-2,-2,0,1
66246,407,-8270,-166,-2,-3,0,1
66251,408,-8268,-159,-2,-3,0,1
66255,403,-8270,-152,-2,-3,0,1
66260,402,-8272,-145,-2,-3,0,1
66265,400,-8278,-138,-2,-3,0,1
66270,398,-8280,-133,-2,-3,0,1
66275,398,-8282,-123,-2,-3,0,1
66280,403,-8282,-121,-2,-3,0,1
66285,405,-8281,-117,-2,-3,0,1
66290,404,-8278,-112,-2,-3,1,1
66295,401,-8274,-104,-2,-3,1,1
66300,397,-8268,-100,-2,-4,1,1
66305,394,-8265,-97,-2,-4,1,1
66310,395,-8259,-95,-2,-4,1,1
66315,398,-8256,-97,-2,-5,1,1
66320,402,-8254,-96,-2,-5,1,1
66325,405,-8252,-94,-2,-5,1,1
66330,406,-8251,-92,-2,-6,1,1
66335,412,-8252,-89,-2,-6,1,1
66340,415,-8251,-90,-2,-5,1,1
66345,418,-8252,-91,-2,-5,1,1
66350,423,-8253,-89,-2,-5,1,1
66355,429,-8255,-91,-2,-5,1,1
66360,428,-8257,-95,-2,-4,1,1
66365,425,-8261,-104,-2,-4,1,1
66370,420,-8265,-116,-2,-4,1,1
66375,418,-8268,-130,-2,-4,1,1
66380,413,-8268,-144,-2,-4,1,1
66385,409,-8271,-154,-2,-4,1,1
66390,405,-8274,-158,-2,-3,1,1
66395,400,-8278,-159,-2,-3,1,1
66400,399,-8282,-157,-2,-2,1,1
66405,397,-8290,-159,-2,-2,1,1
66410,393,-8294,-162,-2,-2,1,1
66415,390,-8296,-166,-1,-2,2,1
66420,385,-8300,-171,-1,-2,2,1
66425,383,-8301,-175,-1,-2,2,1
66430,377,-8306,-180,-1,-2,2,1
66435,369,-8309,-183,-1,-2,2,1
66440,362,-8313,-182,-1,-2,2,1
66445,356,-8314,-182,-1,-1,2,1
66450,349,-8310,-183,-1,-1,2,1
66455,343,-8302,-178,-1,-1,2,1
66460,338,-8295,-181,-1,-1,1,1
66465,333,-8289,-184,-1,-2,1,1
66470,327,-8280,-186,-1,-2,1,1
66475,320,-8267,-184,-1,-2,1,1
66480,314,-8253,-187,-1,-2,1,1
66485,308,-8237,-185,-1,-1,1,1
66490,299,-8223,-180,-1,-1,1,1
66495,289,-8209,-176,-1,0,1,1
66500,280,-8195,-169,-1,0,1,1
66505,271,-8182,-160,-1,0,1,1
66510,261,-8167,-140,-1,0,1,1
66515,248,-8151,-118,-1,0,1,1
66520,243,-8138,-101,-1,1,1,1
66525,238,-8132,-84,-1,1,1,1
66530,235,-8129,-64,-1,1,1,1
66535,227,-8125,-45,-1,1,1,1
66540,217,-8118,-24,-1,1,1,1
66545,206,-8111,-8,-1,1,1,1
66550,197,-8107,6,-1,1,1,1
66555,192,-8105,18,-1,1,1,1
66560,188,-8106,29,-1,2,1,1
66565,192,-8103,34,-1,2,1,1
66570,199,-8101,36,-1,2,1,1
66575,203,-8098,38,-2,1,1,1
66580,208,-8093,36,-2,1,1,1
66585,205,-8086,24,-2,1,0,1
66590,204,-8074,13,-2,0,0,1
66595,206,-8059,2,-2,0,0,1
66600,207,-8042,-6,-2,1,0,1
66605,211,-8022,-9,-2,1,0,1
66610,217,-7997,-16,-2,1,0,1
66615,217,-7968,-31,-1,1,0,1
66620,214,-7936,-46,-1,1,0,1
66625,206,-7901,-60,-1,1,0,1
66630,194,-7864,-71,-1,1,0,1
66635,179,-7823,-77,-1,2,0,1
66640,167,-7780,-79,-1,2,0,1
66645,151,-7733,-74,-1,1,0,1
66650,132,-7681,-71,-1,2,0,1
66655,114,-7621,-66,-1,2,-1,1
66660,96,-7549,-62,-1,2,-1,1
66665,79,-7465,-59,-1,2,-1,1
66670,61,-7363,-52,-1,2,-1,1
66675,45,-7243,-41,-1,2,-1,1
66680,31,-7096,-25,-1,2,-1,1
66685,18,-6929,-8,-1,1,-1,1
66690,5,-6733,19,-1,1,-2,1
66695,-12,-6507,52,-1,0,-2,1
66700,-32,-6258,86,-1,-2,-2,1
66705,-59,-5986,121,-2,-4,-2,1
66710,-97,-5694,158,-2,-6,-2,1
66715,-143,-5390,194,-2,-8,-3,1
66720,-196,-5076,231,-2,-9,-3,1
66725,-256,-4754,266,-2,-11,-3,1
66730,-324,-4427,296,-3,-12,-4,1
66735,-392,-4097,324,-3,-13,-4,1
66740,-454,-3770,343,-3,-13,-5,1
66745,-481,-3450,348,-3,-12,-5,1
66750,-414,-3136,336,-3,-10,-5,1
66755,-277,-2830,311,-3,-7,-4,1
66760,-99,-2520,286,-4,-4,-3,1
66765,99,-2209,251,-3,-3,-2,1
66770,253,-1916,240,-3,-1,0,1
66775,287,-1641,265,-3,-1,0,1
66780,303,-1393,273,-4,-3,0,1
66785,338,-1176,260,-4,-1,-1,1
66790,380,-987,266,-5,0,-1,1
66795,424,-828,297,-6,-2,-1,1
66800,461,-704,342,-6,-6,-1,1
66805,499,-623,395,-6,-11,-1,1
66810,524,-578,426,-6,-16,-1,1
66815,529,-561,447,-7,-23,-1,1
66820,501,-563,452,-7,-31,-1,1
66825,429,-581,468,-7,-39,-1,1
66830,306,-610,494,-8,-45,-2,1
66835,153,-658,522,-8,-49,-3,1
66840,-29,-740,549,-9,-50,-3,1
66845,-218,-901,559,-9,-51,-5,1
66850,-335,-1184,495,-10,-48,-6,1
66855,-390,-1612,364,-9,-40,-5,1
66860,-578,-2196,235,-9,-31,-4,1
66865,-700,-2878,97,-9,-27,-5,1
66870,-728,-3618,-72,-9,-21,-6,1
66875,-813,-4416,-173,-8,-18,-6,1
66880,-872,-5226,-327,-8,-23,-8,1
66885,-907,-6011,-472,-7,-27,-9,1
66890,-1006,-6753,-607,-6,-33,-10,1
66895,-1121,-7433,-751,-6,-39,-12,1
66900,-1245,-8030,-854,-5,-42,-13,1
66905,-1343,-8533,-931,-5,-42,-14,1
66910,-1388,-8946,-968,-4,-43,-15,1
66915,-1345,-9280,-981,-4,-45,-16,1
66920,-1186,-9562,-999,-3,-48,-17,1
66925,-981,-9831,-1019,-3,-54,-18,1
66930,-682,-10131,-1055,-2,-65,-18,1
66935,-351,-10472,-1119,-2,-77,-19,1
66940,-20,-10868,-1206,-1,-93,-19,1
66945,372,-11289,-1295,-1,-106,-18,1
66950,792,-11736,-1393,-1,-111,-17,1
66955,1224,-12190,-1458,0,-112,-15,1
66960,1664,-12626,-1479,0,-110,-14,1
66965,2058,-13017,-1520,0,-101,-11,1
66970,2349,-13346,-1549,1,-86,-8,1
66975,2544,-13575,-1587,1,-65,-5,1
66980,2659,-13697,-1613,1,-41,-2,1
66985,2636,-13712,-1669,0,-19,0,1
66990,2625,-13611,-1710,-1,-3,-1,1
66995,2647,-13417,-1643,0,13,0,1
67000,1427,-13840,-3020,7,23,9,1
67005,1379,-9525,-2685,0,32,3,1
67010,833,-10504,-2563,2,72,9,1
67015,1051,-8933,-2483,6,55,7,1
67020,1444,-8308,-1630,5,40,7,1
67025,1167,-8098,-942,-2,16,5,1
67030,733,-8008,-287,-7,-6,1,1
67035,244,-7958,75,-11,5,-2,1
67040,-57,-7931,418,-12,26,-4,1
67045,-62,-7915,823,-9,33,-5,1
67050,-131,-7931,784,-7,24,-4,1
67055,-78,-7965,410,-4,3,-4,1
67060,-135,-7999,321,-2,-5,-2,1
67065,-277,-8030,189,-2,-4,-1,1
67070,-249,-8057,7,-2,7,-1,1
67075,-240,-8073,-70,-2,20,0,1
67080,-189,-8090,-145,-2,23,0,1
67085,-165,-8102,-170,-2,26,0,1
67090,-160,-8116,-182,-2,25,-1,1
67095,-138,-8125,-189,-1,20,-1,1
67100,-154,-8137,-197,-1,15,-2,1
67105,-114,-8141,-277,-1,9,-2,1
67110,-3,-8144,-369,0,5,-3,1
67115,121,-8147,-451,-1,3,-3,1
67120,260,-8152,-539,-1,3,-3,1
67125,370,-8155,-638,-1,4,-3,1
67130,451,-8163,-693,-1,4,-4,1
67135,510,-8166,-699,-1,6,-4,1
67140,526,-8164,-687,-2,7,-4,1
67145,542,-8164,-641,-2,6,-4,1
67150,522,-8167,-555,-2,4,-4,1
67155,501,-8173,-499,-1,2,-4,1
67160,495,-8179,-427,-1,0,-3,1
67165,505,-8179,-445,-1,-2,-3,1
67170,565,-8179,-401,-1,-2,-3,1
67175,683,-8184,-351,-1,-2,-3,1
67180,809,-8180,-377,-1,-2,-3,1
67185,937,-8176,-373,-1,-4,-3,1
67190,1021,-8171,-375,-1,-4,-3,1
67195,1049,-8165,-410,-1,-4,-3,1
67200,1044,-8171,-393,-1,-3,-3,1
67205,1002,-8174,-344,-1,-2,-3,1
67209,945,-8173,-284,-1,-1,-3,1
67215,901,-8174,-204,-1,0,-2,1
67220,863,-8174,-170,-1,1,-2,1
67224,829,-8176,-174,-1,0,-2,1
67230,836,-8181,-178,-1,1,-2,1
67235,839,-8180,-240,-1,0,-2,1
67240,857,-8183,-278,-1,-1,-2,1
67244,904,-8186,-258,-1,1,-2,1
67250,946,-8182,-273,-1,2,-2,1
67254,990,-8177,-233,-1,3,-1,1
67259,1048,-8177,-195,-1,4,-1,1
67264,1093,-8172,-186,-1,5,-1,1
67269,1133,-8171,-168,-1,4,-1,1
67274,1158,-8172,-170,-1,4,-1,1
67279,1150,-8173,-197,-1,4,-1,1
67284,1122,-8178,-216,-1,5,-1,1
67289,1071,-8180,-240,-1,5,-1,1
67294,1004,-8179,-245,-1,5,-1,1
67299,940,-8180,-235,-1,4,-1,1
67304,890,-8179,-224,-1,4,-1,1
67309,862,-8179,-196,-1,2,-1,1
67314,838,-8179,-161,-1,1,-1,1
67319,823,-8179,-131,-1,-1,-1,1
67324,822,-8176,-102,-1,-1,-1,1
67329,814,-8176,-82,-1,-2,-1,1
67334,810,-8179,-77,-1,-2,-1,1
67339,800,-8182,-72,-1,-2,-1,1
67344,790,-8182,-70,-1,-3,-1,1
67349,771,-8183,-64,-1,-3,-1,1
67354,753,-8181,-62,-1,-4,-1,1
67359,734,-8182,-68,-1,-5,-1,1
67364,703,-8184,-74,-1,-6,-1,1
67370,670,-8183,-85,-1,-6,-1,1
67376,642,-8184,-90,-1,-6,-1,1
67381,633,-8185,-88,-1,-6,-1,1
67387,641,-8187,-90,-1,-6,-1,1
67392,684,-8185,-87,-1,-6,-1,1
67397,760,-8185,-77,-1,-5,0,1
67402,852,-8184,-76,-1,-5,0,1
67407,951,-8179,-68,-1,-4,0,1
67412,1032,-8178,-52,-1,-3,0,1
67417,1085,-8178,-21,-2,-2,0,1
67422,1117,-8177,16,-2,-1,0,1
67426,1121,-8177,52,-2,0,0,1
67431,1108,-8175,88,-2,0,0,1
67435,1088,-8178,104,-2,1,0,1
67440,1063,-8176,98,-2,1,1,1
67444,1042,-8174,94,-2,2,1,1
67449,1020,-8176,79,-2,2,1,1
67454,991,-8177,64,-2,2,1,1
67459,945,-8179,64,-2,1,0,1
67464,882,-8183,73,-2,1,0,1
67470,809,-8185,84,-2,0,0,1
67475,740,-8187,101,-2,0,1,1
67479,682,-8190,118,-2,-1,1,1
67484,638,-8191,131,-2,-1,1,1
67489,614,-8193,130,-3,-1,1,1
67494,593,-8193,122,-3,-1,0,1
67499,561,-8193,111,-3,-2,0,1
67504,514,-8192,94,-3,-2,0,1
67509,450,-8192,82,-3,-2,-1,1
67514,373,-8192,72,-3,-3,-1,1
67519,308,-8192,60,-3,-3,-1,1
67525,269,-8192,40,-3,-4,-1,1
67530,267,-8189,14,-3,-5,-1,1
67535,311,-8189,-21,-3,-7,-1,1
67539,397,-8188,-54,-3,-8,0,1
67544,512,-8187,-79,-3,-8,0,1
67549,642,-8184,-97,-3,-8,0,1
67554,763,-8184,-102,-3,-7,-1,1
67559,857,-8184,-89,-3,-7,-1,1
67565,910,-8184,-63,-3,-6,-1,1
67570,931,-8183,-33,-3,-5,-1,1
67574,932,-8183,-8,-3,-4,0,1
67579,924,-8183,12,-3,-3,0,1
67585,925,-8184,18,-3,-2,0,1
67591,941,-8184,15,-3,-1,1,1
67596,968,-8186,4,-3,0,1,1
67601,998,-8185,-5,-3,0,1,1
67607,1027,-8183,-8,-3,0,1,1
67613,1041,-8184,-10,-3,0,1,1
67617,1036,-8184,-8,-3,0,1,1
67623,1014,-8184,-12,-3,1,1,1
67628,984,-8186,-19,-3,2,1,1
67634,959,-8184,-33,-3,2,1,1
67639,941,-8181,-44,-3,2,1,1
67645,928,-8181,-64,-4,3,1,1
67650,917,-8180,-81,-4,3,1,1
67656,901,-8180,-97,-4,2,1,1
67661,867,-8181,-111,-4,2,1,1
67667,800,-8186,-121,-4,2,1,1
67673,802,-8187,-168,-4,4,1,1
67677,662,-8189,-122,-4,2,1,1
67683,526,-8190,-121,-4,-1,1,1
67688,450,-8187,-117,-3,2,1,1
67693,380,-8185,-117,-3,0,1,1
67697,361,-8184,-165,-3,0,1,1
67702,385,-8183,-229,-3,0,1,1
67707,410,-8183,-281,-3,-2,0,1
67711,427,-8184,-329,-3,-3,0,1
67716,436,-8185,-342,-3,-4,0,1
67722,411,-8188,-333,-3,-5,-1,1
67727,370,-8187,-316,-3,-5,-1,1
67732,340,-8187,-292,-3,-5,-1,1
67737,325,-8187,-283,-3,-5,-1,1
67742,341,-8185,-288,-3,-6,0,1
67747,383,-8184,-309,-3,-6,0,1
67752,442,-8184,-337,-3,-6,0,1
67756,509,-8185,-357,-3,-6,-1,1
67761,570,-8187,-367,-3,-6,-1,1
67766,612,-8185,-361,-3,-6,-1,1
67771,630,-8183,-336,-3,-5,-1,1
67776,633,-8182,-306,-3,-4,-1,1
67783,630,-8184,-271,-3,-3,-1,1
67789,629,-8182,-245,-3,-2,0,1
67795,647,-8181,-232,-2,-1,0,1
67800,686,-8180,-235,-2,-1,0,1
67805,732,-8179,-254,-2,0,0,1
67810,779,-8179,-282,-2,0,0,1
67815,815,-8178,-307,-3,1,0,1
67821,828,-8178,-328,-3,0,0,1
67826,814,-8177,-333,-3,0,0,1
67831,782,-8179,-329,-3,1,0,1
67836,739,-8180,-319,-2,1,0,1
67840,695,-8177,-307,-2,1,0,1
67845,664,-8179,-303,-2,1,0,1
67850,648,-8179,-309,-2,1,0,1
67855,639,-8179,-321,-2,1,0,1
67860,635,-8179,-334,-2,1,0,1
67865,623,-8181,-346,-2,0,0,1
67870,604,-8181,-350,-2,0,0,1
67875,576,-8182,-348,-2,-1,-1,1
67880,546,-8186,-351,-2,-2,-1,1
67886,518,-8190,-344,-2,-2,-1,1
67892,509,-8193,-340,-2,-2,0,1
67897,520,-8193,-335,-2,-3,0,1
67902,551,-8190,-335,-2,-3,0,1
67907,588,-8192,-333,-2,-3,0,1
67911,624,-8190,-330,-2,-3,-1,1
67917,646,-8188,-325,-2,-3,-1,1
67922,648,-8187,-315,-2,-3,-1,1
67927,637,-8188,-298,-2,-3,-1,1
67932,613,-8188,-279,-2,-3,-1,1
67937,593,-8188,-255,-2,-3,-1,1
67942,581,-8189,-239,-2,-3,-1,1
67947,587,-8187,-227,-2,-3,0,1
67952,612,-8187,-220,-2,-3,0,1
67956,645,-8191,-218,-2,-3,-1,1
67961,675,-8194,-215,-2,-3,-1,1
67965,698,-8193,-210,-2,-3,-1,1
67970,704,-8193,-205,-2,-3,-1,1
67974,698,-8194,-198,-2,-2,-1,1
67978,687,-8195,-185,-2,-2,-1,1
67982,670,-8192,-171,-2,-2,-1,1
67988,664,-8189,-161,-2,-1,-1,0
67994,666,-8184,-154,-2,-2,0,0
67998,680,-8185,-153,-2,-2,0,0
68003,696,-8186,-155,-2,-2,0,0
68008,713,-8188,-158,-2,-2,-1,0
68013,724,-8188,-153,-2,-2,-1,0
68018,723,-8185,-145,-2,-2,-1,0
68023,715,-8185,-138,-2,-2,-1,0
68028,703,-8185,-132,-2,-2,-1,0
68032,691,-8186,-130,-2,-2,0,0
68037,684,-8187,-126,-2,-2,0,0
68042,684,-8186,-135,-2,-3,0,0
68048,695,-8187,-146,-2,-3,0,0
68053,711,-8189,-162,-2,-2,0,0
68057,726,-8189,-173,-2,-2,0,0
68063,736,-8189,-172,-2,-2,0,0
68068,731,-8186,-168,-2,-2,0,0
68072,713,-8183,-159,-2,-2,-1,0
68077,691,-8182,-151,-2,-2,-1,0
68082,664,-8184,-143,-2,-3,0,0
68088,644,-8182,-137,-2,-3,0,0
68093,635,-8182,-136,-2,-3,0,0
68097,640,-8181,-140,-2,-3,0,0
68102,659,-8182,-147,-2,-3,0,0
68107,682,-8180,-155,-2,-4,0,0
68112,702,-8177,-162,-2,-4,-1,0
68117,712,-8175,-162,-2,-4,-1,0
68122,709,-8175,-161,-2,-4,-1,0
68128,699,-8177,-159,-2,-4,-1,0
68133,682,-8179,-162,-2,-4,-1,0
68138,667,-8179,-168,-2,-3,-1,0
68143,658,-8180,-178,-2,-3,-1,0
68149,657,-8180,-184,-2,-3,0,0
68155,667,-8188,-189,-2,-3,-1,0
68160,654,-8185,-251,-2,-3,0,0
68166,669,-8188,-201,-2,-3,-1,0
68172,680,-8186,-173,-2,-2,0,0
68176,699,-8185,-141,-2,-2,-1,0
68180,719,-8187,-90,-2,-3,-1,0
68186,725,-8188,-93,-2,-3,0,0
68190,736,-8190,-102,-2,-3,-1,0
68195,742,-8192,-125,-2,-3,0,0
68199,738,-8191,-171,-2,-3,0,0
68203,737,-8193,-194,-2,-2,0,0
68207,730,-8193,-217,-2,-1,0,0
68211,731,-8194,-205,-2,-1,0,0
68215,729,-8192,-171,-2,-1,0,0
68219,725,-8190,-151,-2,-1,0,0
68223,726,-8189,-129,-2,-1,0,0
68227,710,-8190,-135,-2,-1,0,0
68231,693,-8189,-159,-2,-1,0,0
68235,682,-8189,-186,-2,-1,0,0
68239,675,-8190,-228,-2,-1,0,0
68244,673,-8188,-244,-2,-2,0,0
68248,677,-8186,-242,-2,-1,0,0
68253,686,-8187,-229,-2,-1,0,0
68258,691,-8183,-196,-2,-1,0,0
68263,688,-8182,-165,-2,-2,0,0
68268,683,-8180,-145,-2,-2,0,0
68273,666,-8181,-135,-2,-2,-1,0
68278,648,-8182,-147,-2,-2,0,0
68283,639,-8182,-161,-2,-2,0,0
68288,638,-8185,-175,-2,-2,0,0
68293,649,-8187,-173,-2,-2,0,0
68298,672,-8187,-155,-2,-2,0,0
68303,695,-8188,-127,-2,-2,0,0
68308,722,-8188,-93,-2,-2,0,0
68313,742,-8186,-62,-2,-2,0,0
68318,748,-8184,-39,-2,-1,0,0
68323,742,-8183,-33,-2,-1,0,0
68328,732,-8184,-44,-2,-1,0,0
68333,717,-8186,-62,-2,-1,0,0
68338,704,-8189,-84,-3,0,0,0
68343,696,-8190,-105,-3,0,0,0
68348,692,-8189,-115,-3,0,0,0
68353,686,-8188,-115,-3,0,0,0
68358,676,-8186,-112,-3,0,0,0
68363,656,-8187,-110,-3,-1,0,0
68368,631,-8188,-116,-3,-1,-1,0
68373,601,-8184,-136,-2,-1,-1,0
68378,574,-8183,-163,-2,-2,-1,0
68383,559,-8182,-197,-3,-2,-1,0
68388,559,-8182,-225,-3,-2,0,0
68393,568,-8182,-247,-3,-3,-1,0
68398,588,-8180,-260,-3,-3,-1,0
68404,605,-8182,-257,-3,-3,-1,0
68408,620,-8183,-249,-2,-3,-1,0
68413,630,-8183,-244,-2,-3,-1,0
68418,633,-8184,-241,-2,-3,-1,0
68423,631,-8185,-248,-2,-4,-1,0
68429,632,-8185,-264,-2,-4,-1,0
68434,637,-8184,-276,-2,-4,-1,0
68439,651,-8183,-284,-2,-4,-1,0
68443,672,-8182,-283,-2,-4,-1,0
68448,698,-8183,-272,-2,-5,-1,0
68453,723,-8184,-254,-2,-5,-1,0
68458,747,-8181,-237,-2,-5,-1,0
68463,762,-8182,-228,-2,-5,-1,0
68468,771,-8182,-219,-2,-4,-1,0
68473,777,-8182,-216,-2,-4,-1,0
68478,782,-8181,-213,-2,-3,0,0
68483,792,-8182,-215,-2,-3,0,0
68488,801,-8184,-219,-2,-3,0,0
68493,809,-8183,-222,-2,-2,0,0
68498,815,-8183,-222,-2,-2,0,0
68504,816,-8183,-212,-2,-2,0,0
68509,807,-8182,-201,-2,-2,0,0
68514,795,-8185,-193,-2,-2,0,0
68519,778,-8185,-188,-2,-2,0,0
68524,760,-8187,-189,-2,-2,0,0
68530,751,-8189,-191,-2,-2,0,0
68536,747,-8191,-193,-2,-2,0,0
68540,748,-8189,-192,-2,-2,0,0
68545,752,-8189,-186,-2,-2,0,0
68551,756,-8190,-180,-2,-3,0,0
68556,751,-8192,-173,-2,-3,0,0
68560,738,-8192,-162,-2,-3,0,0
68565,710,-8192,-149,-2,-3,0,0
68570,679,-8192,-136,-2,-2,0,0
68575,650,-8192,-126,-2,-2,0,0
68579,626,-8193,-119,-2,-2,0,0
68584,615,-8193,-111,-2,-3,0,0
68590,619,-8191,-107,-2,-3,0,0
68596,636,-8190,-98,-2,-4,0,0
68601,666,-8191,-86,-3,-4,0,0
68607,697,-8190,-76,-3,-5,0,0
68613,726,-8190,-67,-3,-5,0,0
68618,750,-8189,-58,-3,-4,0,0
68624,763,-8188,-50,-3,-3,0,0
68630,773,-8182,-50,-3,-2,0,0
68636,783,-8182,-57,-3,-2,0,0
68641,789,-8187,-67,-3,-1,0,0
68647,795,-8186,-79,-3,-1,0,0
68653,800,-8187,-94,-3,0,0,0
68658,804,-8188,-110,-3,0,0,0
68663,806,-8187,-122,-3,-1,0,0
68669,809,-8188,-137,-3,-1,0,0
68676,803,-8188,-152,-3,-1,0,0
68681,794,-8188,-174,-3,-1,0,0
68687,786,-8188,-188,-3,-2,0,0
68693,773,-8185,-202,-3,-2,0,0
68698,764,-8181,-216,-3,-2,0,0
68704,757,-8179,-228,-3,-2,0,0
68710,748,-8178,-236,-3,-2,0,0
68716,732,-8178,-240,-3,-2,0,0
68720,705,-8182,-242,-3,-2,0,0
68726,670,-8186,-241,-3,-2,0,0
68732,632,-8187,-253,-3,-2,0,0
68738,586,-8190,-259,-3,-2,0,0
68743,542,-8190,-244,-3,-3,0,0
68749,508,-8190,-243,-2,-3,0,0
68755,486,-8191,-239,-2,-4,0,0
68760,481,-8191,-233,-2,-5,0,0
68766,492,-8192,-235,-2,-6,0,0
68772,512,-8191,-231,-2,-7,0,0
68778,533,-8189,-234,-2,-8,0,0
68783,549,-8189,-233,-2,-9,-1,0
68787,559,-8189,-230,-2,-10,-1,0
68792,555,-8186,-226,-2,-10,-1,0
68797,545,-8187,-216,-3,-10,-1,0
68803,530,-8187,-210,-3,-11,-1,0
68808,517,-8188,-206,-2,-11,-1,0
68813,513,-8190,-211,-2,-11,-1,0
68818,518,-8191,-217,-2,-11,-1,0
68823,536,-8192,-227,-2,-11,-1,0
68828,563,-8193,-237,-2,-11,-1,0
68833,595,-8189,-248,-2,-10,-1,0
68838,627,-8191,-257,-2,-9,-1,0
68843,657,-8191,-262,-3,-8,-1,0
68849,679,-8191,-265,-2,-7,-1,0
68855,695,-8192,-264,-2,-7,-1,0
68859,708,-8190,-266,-2,-6,-1,0
68864,720,-8189,-268,-2,-5,-1,0
68869,728,-8186,-268,-2,-5,-1,0
68874,732,-8184,-271,-2,-5,0,0
68879,730,-8186,-276,-2,-5,-1,0
68885,722,-8186,-276,-2,-5,-1,0
68891,710,-8188,-271,-2,-5,-1,0
68897,695,-8185,-266,-2,-5,-1,0
68903,676,-8185,-258,-2,-5,-1,0
68909,658,-8187,-253,-2,-5,-1,0
68915,642,-8191,-249,-2,-5,-1,0
68921,631,-8191,-246,-2,-5,-1,0
68927,625,-8189,-247,-2,-5,-1,0
68933,623,-8188,-254,-2,-5,-1,0
68940,620,-8189,-262,-2,-5,-1,0
68946,610,-8185,-277,-2,-5,-1,0
68952,592,-8183,-289,-2,-5,-1,0
68958,567,-8185,-298,-2,-5,-1,0
68964,542,-8184,-305,-2,-5,-1,0
68970,516,-8185,-309,-2,-5,-1,0
68976,496,-8183,-318,-2,-5,-1,0
68981,482,-8184,-328,-2,-6,-1,0
68987,483,-8185,-333,-2,-6,-1,0
68992,502,-8183,-338,-2,-7,-1,0
68998,531,-8182,-350,-2,-8,-1,0
69003,567,-8184,-362,-2,-9,-1,0
69008,605,-8185,-372,-2,-10,-1,0
69013,646,-8186,-379,-2,-10,-1,0
69018,685,-8185,-375,-2,-10,-1,0
69023,721,-8183,-375,-2,-9,-1,0
69028,753,-8181,-372,-2,-8,-1,0
69034,780,-8177,-362,-2,-7,-1,0
69039,804,-8175,-352,-2,-6,-1,0
69044,822,-8177,-344,-2,-5,-1,0
69049,838,-8178,-337,-2,-4,-1,0
69055,847,-8178,-333,-2,-4,-1,0
69059,854,-8181,-326,-2,-3,-1,0
69065,857,-8182,-324,-2,-3,-1,0
69070,856,-8185,-324,-2,-3,-1,0
69075,851,-8187,-321,-2,-3,-1,0
69081,850,-8189,-313,-2,-3,0,0
69087,848,-8188,-300,-2,-3,0,0
69093,848,-8183,-287,-2,-3,0,0
69098,857,-8181,-277,-2,-3,0,0
69104,867,-8180,-270,-2,-2,0,0
69110,874,-8180,-267,-2,-2,0,0
69116,880,-8180,-268,-2,-1,0,0
69121,878,-8181,-266,-2,-1,0,0
69126,864,-8178,-266,-2,-1,0,0
69132,842,-8176,-265,-2,-1,0,0
69138,813,-8175,-261,-2,-1,0,0
69144,781,-8176,-256,-2,0,0,0
69150,749,-8179,-247,-2,-1,0,0
69156,713,-8180,-241,-2,-1,0,0
69161,684,-8180,-232,-2,-1,0,0
69167,660,-8182,-231,-2,-2,0,0
69173,643,-8183,-233,-2,-2,0,0
69179,633,-8185,-237,-2,-3,0,0
69185,633,-8184,-237,-2,-3,0,0
69191,644,-8186,-236,-2,-3,0,0
69196,661,-8186,-235,-2,-3,0,0
69202,684,-8187,-226,-2,-3,0,0
69208,705,-8185,-216,-2,-2,0,0
69213,720,-8182,-210,-2,-2,0,0
69219,730,-8181,-208,-2,-1,0,0
69225,735,-8180,-210,-2,-1,0,0
69231,731,-8181,-217,-2,-1,0,0
69237,719,-8179,-233,-2,-1,0,0
69242,707,-8179,-254,-2,-2,0,0
69248,703,-8177,-276,-2,-2,0,0
69254,700,-8178,-290,-2,-2,0,0
69259,704,-8179,-297,-2,-2,0,0
69265,706,-8176,-298,-2,-2,0,0
69271,706,-8177,-289,-2,-2,0,0
69277,702,-8176,-279,-2,-2,0,0
69281,696,-8177,-271,-2,-2,0,0
69286,687,-8180,-262,-1,-2,0,0
69291,674,-8180,-258,-1,-2,0,0
69296,660,-8180,-256,-1,-2,0,0
69301,647,-8182,-254,-1,-2,0,0
69306,638,-8183,-254,-1,-2,0,0
69310,630,-8180,-252,-2,-2,0,0
69315,619,-8181,-249,-2,-2,0,0
69320,606,-8183,-248,-1,-2,0,0
69325,590,-8183,-244,-1,-2,0,0
69329,574,-8186,-239,-1,-2,-1,0
69335,564,-8185,-240,-1,-2,-1,0
69339,565,-8184,-238,-1,-2,-1,0
69345,572,-8185,-242,-1,-2,-1,0
69350,589,-8184,-247,-1,-2,-1,0
69355,615,-8184,-252,-1,-3,-1,0
69359,644,-8184,-256,-1,-3,-1,0
69365,673,-8185,-261,-1,-4,-1,0
69370,700,-8186,-260,-1,-4,-1,0
69374,714,-8186,-256,-1,-4,-1,0
69379,720,-8184,-249,-1,-4,-1,0
69384,722,-8186,-240,-1,-4,-1,0
69390,724,-8188,-232,-1,-3,-1,0
69395,727,-8187,-225,-1,-3,-1,0
69399,731,-8189,-217,-1,-3,0,0
69403,742,-8190,-211,-1,-2,0,0
69407,758,-8189,-210,-1,-2,0,0
69412,778,-8188,-212,-1,-2,0,0
69416,796,-8188,-210,-1,-3,0,0
69420,807,-8188,-204,-1,-2,0,0
69424,818,-8186,-195,-1,-2,0,0
69430,827,-8188,-195,-1,-2,0,0
69435,834,-8188,-195,-1,-1,0,0
69439,837,-8187,-198,-1,-1,0,0
69443,840,-8187,-206,-1,0,0,0
69447,840,-8186,-214,-1,0,0,0
69451,839,-8187,-216,-1,0,0,0
69455,833,-8190,-218,-1,0,0,0
69459,819,-8189,-218,-1,0,0,0
69463,800,-8188,-211,-1,0,0,0
69467,773,-8187,-201,-1,0,0,0
69471,744,-8186,-193,-1,0,0,0
69475,720,-8183,-189,-1,0,0,0
69479,702,-8182,-181,-1,-1,0,0
69483,693,-8183,-175,-1,-1,0,0
69487,692,-8183,-169,-1,-1,0,0
69491,692,-8183,-158,-2,-1,0,0
69495,695,-8182,-151,-1,-1,0,0
69499,703,-8183,-143,-2,-2,0,0
69503,703,-8184,-137,-2,-1,0,0
69507,703,-8184,-139,-2,-1,0,0
69511,697,-8186,-145,-2,-1,0,0
69515,687,-8186,-152,-2,-1,0,0
69519,676,-8184,-157,-2,-1,0,0
69523,664,-8183,-163,-2,-1,0,0
69527,653,-8183,-168,-2,-1,0,0
69531,644,-8184,-173,-2,-1,0,0
69535,630,-8185,-174,-2,-1,0,0
69539,618,-8186,-179,-2,-2,0,0
69543,603,-8191,-182,-2,-2,0,0
69547,591,-8192,-185,-2,-2,0,0
69551,584,-8191,-190,-2,-2,0,0
69555,585,-8187,-195,-2,-2,0,0
69559,590,-8185,-197,-2,-2,0,0
69563,603,-8183,-201,-2,-2,0,0
69567,615,-8181,-202,-1,-2,0,0
69571,624,-8182,-200,-1,-2,0,0
69575,634,-8179,-195,-1,-2,0,0
69579,642,-8178,-190,-2,-2,0,0
69583,643,-8178,-181,-1,-2,0,0
69587,638,-8183,-171,-1,-2,0,0
69591,629,-8185,-162,-2,-2,0,0
69595,617,-8186,-149,-2,-2,0,0
69599,607,-8182,-140,-2,-2,0,0
69603,598,-8183,-128,-2,-2,0,0
69607,594,-8184,-122,-2,-2,0,0
69611,590,-8185,-110,-2,-2,0,0
69617,598,-8183,-94,-2,-2,-1,0
69622,607,-8182,-83,-2,-2,-1,0
69627,616,-8181,-73,-2,-3,-1,0
69633,625,-8180,-63,-2,-2,-1,0
69638,633,-8181,-55,-2,-2,-1,0
69644,639,-8183,-42,-2,-2,-1,0
69649,646,-8182,-37,-2,-2,-1,0
69655,653,-8181,-35,-2,-2,-1,0
69659,658,-8180,-32,-2,-1,-1,0
69665,660,-8184,-37,-2,-1,-1,0
69670,659,-8185,-44,-2,-1,-1,0
69676,653,-8184,-47,-2,-1,-1,0
69680,642,-8183,-53,-2,-2,-1,0
69685,630,-8183,-59,-2,-2,-1,0
69691,620,-8183,-66,-2,-2,-1,0
69696,610,-8186,-69,-2,-2,-1,0
69701,604,-8188,-78,-2,-2,-1,0
69706,600,-8187,-87,-2,-2,-1,0
69712,603,-8191,-90,-2,-3,-1,0
69718,609,-8188,-96,-2,-3,-1,0
69723,618,-8186,-102,-2,-3,-1,0
69729,632,-8185,-111,-2,-4,-1,0
69734,645,-8182,-121,-2,-4,-1,0
69739,662,-8182,-125,-2,-4,-1,0
69744,676,-8183,-130,-2,-3,-1,0
69749,684,-8182,-134,-2,-3,-1,0
69754,692,-8183,-142,-2,-3,-1,0
69759,696,-8184,-149,-2,-3,-1,0
69765,693,-8184,-161,-2,-3,-1,0
69770,690,-8183,-177,-2,-3,-1,0
69775,691,-8184,-192,-2,-2,-1,0
69779,697,-8184,-207,-2,-2,-1,0
69785,707,-8184,-221,-2,-3,-1,0
69791,715,-8182,-232,-2,-3,-1,0
69796,729,-8180,-240,-2,-4,-1,0
69800,746,-8180,-242,-2,-4,-1,0
69806,765,-8178,-244,-2,-5,-1,0
69811,787,-8178,-245,-2,-5,-1,0
69816,812,-8178,-248,-2,-5,-1,0
69821,833,-8175,-251,-2,-5,-1,0
69827,846,-8175,-253,-2,-4,0,0
69832,854,-8173,-253,-2,-4,-1,0
69837,862,-8174,-248,-2,-3,0,0
69841,864,-8177,-248,-2,-3,0,0
69846,864,-8180,-249,-2,-2,0,0
69851,862,-8183,-253,-2,-2,0,0
69856,857,-8185,-251,-2,-2,0,0
69861,849,-8183,-245,-2,-2,0,0
69866,845,-8182,-237,-2,-2,0,0
69872,840,-8183,-228,-2,-1,0,0
69877,833,-8181,-217,-2,-1,0,0
69881,829,-8181,-205,-2,-1,0,0
69887,828,-8182,-196,-2,-1,0,0
69893,828,-8183,-183,-2,-1,0,0
69899,830,-8184,-174,-2,-1,0,0
69905,832,-8181,-162,-2,-1,0,0
69911,833,-8179,-159,-2,-1,0,0
69917,832,-8181,-154,-2,-1,0,0
69922,828,-8182,-151,-2,-1,0,0
69928,817,-8183,-148,-2,0,0,0
69933,803,-8184,-146,-2,0,0,0
69939,778,-8184,-140,-2,0,0,0
69944,748,-8186,-134,-2,0,0,0
69950,715,-8187,-132,-2,0,0,0
69956,682,-8188,-130,-2,0,0,0
69960,652,-8191,-132,-2,0,0,0
69966,627,-8191,-134,-2,0,0,0
69972,606,-8188,-134,-2,0,0,0
69978,588,-8185,-134,-2,-1,0,0
69983,576,-8182,-135,-2,-1,0,0
69989,568,-8181,-133,-2,-1,0,0
69995,557,-8180,-129,-2,-2,0,0
70000,551,-8178,-126,-2,-2,0,0
70006,553,-8179,-123,-2,-2,0,0
70012,561,-8183,-125,-2,-2,0,0
70018,570,-8182,-129,-2,-2,0,0
70023,583,-8182,-137,-2,-2,0,0
70029,597,-8184,-140,-2,-2,0,0
70035,610,-8183,-141,-2,-2,0,0
70040,620,-8184,-142,-2,-2,0,0
70046,622,-8186,-141,-2,-2,0,0
70052,616,-8187,-144,-2,-2,0,0
70058,610,-8185,-148,-2,-2,0,0
70064,603,-8186,-153,-2,-2,0,0
70070,598,-8189,-159,-2,-2,-1,0
70076,599,-8194,-159,-2,-3,-1,0
70080,610,-8191,-167,-2,-3,0,0
70086,629,-8190,-169,-2,-3,0,0
70091,656,-8189,-168,-2,-4,0,0
70096,683,-8190,-165,-2,-4,0,0
70100,711,-8191,-160,-2,-4,0,0
70106,737,-8187,-153,-2,-4,0,0
70111,758,-8184,-142,-2,-4,0,0
70116,769,-8184,-132,-2,-3,0,0
70120,775,-8185,-120,-2,-3,0,0
70125,778,-8188,-111,-2,-2,0,0
70130,776,-8190,-106,-2,-2,0,0
70135,770,-8190,-103,-2,-2,0,0
70140,763,-8188,-104,-2,-3,0,0
70145,756,-8188,-109,-2,-3,0,0
70149,747,-8191,-115,-2,-3,0,0
70154,742,-8190,-124,-2,-3,0,0
70159,738,-8191,-128,-2,-3,0,0
70164,736,-8191,-135,-2,-4,0,0
70169,736,-8191,-137,-2,-4,0,0
70174,739,-8190,-138,-2,-4,0,0
70179,741,-8190,-138,-2,-5,0,0
70184,744,-8187,-138,-2,-5,0,0
70189,749,-8186,-136,-2,-4,0,0
70194,753,-8186,-131,-2,-4,0,0
70199,756,-8186,-130,-2,-4,0,0
70204,754,-8188,-128,-2,-3,0,0
70209,752,-8188,-122,-2,-3,0,0
70214,748,-8189,-119,-2,-2,0,0
70219,739,-8188,-113,-2,-2,0,0
70224,729,-8187,-109,-2,-2,0,0
70229,724,-8189,-111,-2,-2,0,0
70234,721,-8189,-120,-2,-2,0,0
70239,717,-8189,-137,-2,-2,0,0
70244,719,-8186,-148,-2,-2,0,0
70249,722,-8185,-160,-2,-3,0,0
70254,722,-8183,-169,-2,-3,0,0
70258,723,-8184,-175,-2,-3,0,0
70263,724,-8183,-186,-2,-3,0,0
70268,723,-8182,-189,-2,-3,0,0
70273,719,-8183,-191,-2,-3,0,0
70278,714,-8180,-191,-2,-3,0,0
70283,706,-8178,-190,-2,-4,0,0
70289,698,-8175,-194,-2,-4,0,0
70295,685,-8176,-199,-2,-4,0,0
70300,668,-8176,-205,-2,-4,0,0
70306,654,-8177,-214,-2,-4,0,0
70312,643,-8178,-219,-2,-4,0,0
70318,633,-8177,-221,-2,-4,0,0
70324,629,-8178,-220,-2,-5,0,0
70330,626,-8179,-221,-2,-5,0,0
70336,630,-8182,-221,-2,-5,0,0
70341,637,-8183,-224,-2,-6,0,0
70347,645,-8183,-230,-2,-6,0,0
70353,650,-8185,-237,-2,-5,0,0
70358,654,-8185,-244,-2,-5,0,0
70364,657,-8185,-245,-2,-5,0,0
70370,658,-8184,-243,-2,-4,0,0
70376,659,-8183,-245,-2,-4,0,0
70380,657,-8182,-243,-2,-4,0,0
70386,649,-8182,-245,-2,-4,0,0
70390,639,-8183,-250,-2,-4,0,0
70395,626,-8183,-251,-2,-4,0,0
70400,613,-8183,-249,-2,-4,0,0
70405,603,-8185,-255,-2,-4,0,0
70411,602,-8186,-257,-2,-5,0,0
70416,597,-8185,-260,-2,-5,0,0
70420,600,-8184,-259,-2,-6,0,0
70425,609,-8186,-265,-2,-7,0,0
70430,622,-8185,-264,-2,-7,0,0
70435,639,-8184,-264,-2,-8,0,0
70440,658,-8183,-267,-2,-8,0,0
70444,677,-8183,-264,-2,-8,0,0
70448,698,-8183,-259,-2,-7,0,0
70452,712,-8182,-254,-2,-7,0,0
70456,724,-8181,-247,-2,-6,0,0
70460,733,-8181,-238,-2,-5,0,0
70466,738,-8183,-225,-2,-5,0,0
70471,740,-8183,-216,-2,-4,0,0
70476,737,-8182,-201,-2,-4,0,0
70480,729,-8179,-190,-2,-3,0,0
70486,715,-8178,-177,-2,-3,0,0
70492,696,-8182,-164,-2,-3,0,0
70498,677,-8184,-155,-2,-3,0,0
70503,655,-8182,-148,-2,-3,0,0
70509,638,-8185,-144,-2,-4,0,0
70515,624,-8188,-135,-2,-4,0,0
70521,620,-8184,-132,-2,-5,0,0
70527,623,-8181,-118,-2,-5,0,0
70533,633,-8183,-112,-2,-6,0,0
70539,645,-8184,-112,-2,-6,0,0
70543,656,-8184,-108,-2,-6,0,0
70549,665,-8186,-105,-2,-6,0,0
70555,671,-8187,-104,-2,-5,0,0
70561,674,-8189,-102,-2,-5,0,0
70567,674,-8187,-99,-2,-4,0,0
70573,672,-8185,-96,-2,-4,0,0
70579,667,-8186,-92,-2,-4,0,0
70584,659,-8187,-91,-2,-3,0,0
70590,653,-8188,-88,-2,-3,0,0
70595,644,-8187,-86,-2,-3,0,0
70600,631,-8187,-84,-2,-3,0,0
70606,617,-8183,-78,-2,-2,0,0
70612,607,-8184,-75,-2,-3,0,0
70616,598,-8185,-76,-2,-3,0,0
70620,594,-8186,-79,-2,-3,0,0
70626,596,-8185,-84,-2,-4,0,0
70630,607,-8185,-88,-2,-4,0,0
70634,627,-8187,-89,-2,-5,0,0
70638,651,-8188,-92,-2,-5,0,0
70642,671,-8187,-97,-2,-5,0,0
70647,689,-8190,-97,-2,-5,0,0
70651,703,-8190,-97,-2,-6,0,0
70655,708,-8192,-97,-2,-5,0,0
70659,713,-8193,-101,-2,-5,0,0
70663,714,-8194,-101,-2,-5,0,0
70667,717,-8192,-101,-2,-4,0,0
70671,718,-8191,-99,-2,-3,0,0
70675,718,-8191,-103,-2,-3,0,0
70679,715,-8189,-102,-3,-2,0,0
70683,712,-8188,-101,-3,-2,0,0
70688,705,-8189,-99,-3,-2,0,0
70692,699,-8188,-100,-3,-1,0,0
70696,690,-8188,-99,-3,-2,0,0
70700,676,-8189,-103,-3,-2,0,0
70704,661,-8189,-107,-3,-2,0,0
70708,649,-8189,-111,-3,-2,0,0
70712,636,-8189,-113,-3,-2,0,0
70716,623,-8189,-117,-3,-2,0,0
70720,613,-8187,-119,-3,-2,0,0
70724,601,-8187,-126,-3,-2,0,0
70728,585,-8187,-134,-3,-2,0,0
70732,571,-8188,-139,-3,-2,0,0
70736,556,-8194,-151,-3,-2,0,0
70740,544,-8194,-158,-3,-2,0,0
70744,535,-8192,-167,-3,-2,0,0
70748,532,-8188,-172,-3,-2,0,0
70752,533,-8186,-173,-3,-3,0,0
70756,537,-8186,-170,-3,-3,0,0
70760,544,-8186,-175,-3,-3,0,0
70764,552,-8188,-175,-3,-4,-1,0
70768,559,-8189,-173,-3,-4,-1,0
70772,561,-8192,-173,-3,-4,-1,0
70777,561,-8191,-171,-3,-5,-1,0
70781,555,-8191,-173,-3,-5,-1,0
70785,550,-8191,-171,-3,-5,-1,0
70789,542,-8191,-166,-3,-6,-1,0
70793,534,-8191,-165,-3,-5,-1,0
70797,534,-8191,-159,-3,-6,-1,0
70802,540,-8192,-157,-3,-6,-1,0
70806,551,-8192,-154,-3,-6,-1,0
70810,566,-8193,-157,-3,-7,-1,0
70814,582,-8193,-153,-3,-8,-1,0
70818,605,-8192,-152,-3,-8,-1,0
70822,627,-8189,-149,-3,-9,-1,0
70827,651,-8188,-148,-3,-9,-1,0
70832,677,-8187,-145,-3,-9,-1,0
70837,703,-8184,-144,-3,-9,-1,0
70842,723,-8181,-147,-3,-8,-1,0
70847,740,-8182,-146,-3,-8,-1,0
70852,753,-8182,-147,-3,-7,-1,0
70857,765,-8182,-148,-3,-6,-1,0
70862,771,-8180,-142,-3,-5,0,0
70866,772,-8182,-140,-3,-5,0,0
70870,774,-8183,-139,-3,-4,0,0
70874,769,-8182,-142,-3,-4,0,0
70880,761,-8182,-145,-3,-4,0,0
70885,751,-8184,-152,-3,-4,0,0
70890,741,-8182,-158,-3,-4,0,0
70895,726,-8182,-165,-3,-5,0,0
70900,713,-8183,-167,-3,-5,0,0
70905,703,-8182,-163,-3,-6,0,0
70910,696,-8180,-158,-3,-6,0,0
70915,691,-8178,-150,-3,-6,0,0
70920,690,-8177,-151,-3,-7,0,0
70925,690,-8177,-151,-3,-7,0,0
70930,691,-8177,-154,-3,-8,0,0
70935,686,-8178,-165,-3,-8,0,0
70940,680,-8180,-177,-3,-8,0,0
70945,672,-8179,-186,-3,-7,0,0
70950,661,-8181,-198,-3,-7,0,0
70955,647,-8184,-210,-3,-7,0,0
70960,633,-8182,-217,-3,-7,0,0
70965,618,-8181,-215,-3,-6,0,0
70970,606,-8180,-209,-3,-6,0,0
70975,596,-8178,-206,-3,-6,0,0
70980,591,-8178,-206,-3,-6,0,0
70986,595,-8181,-211,-3,-7,0,0
70991,605,-8179,-221,-3,-7,0,0
70996,616,-8178,-232,-3,-8,0,0
71000,627,-8177,-238,-3,-9,-1,0
71006,641,-8177,-240,-3,-9,-1,0
71011,658,-8175,-236,-3,-9,0,0
71017,668,-8178,-236,-3,-9,-1,0
71021,676,-8180,-240,-3,-9,0,0
71027,683,-8185,-245,-3,-9,0,0
71032,691,-8190,-257,-3,-8,0,0
71038,697,-8190,-273,-3,-8,0,0
71043,703,-8185,-291,-3,-8,0,0
71049,712,-8180,-313,-3,-7,0,0
71054,719,-8181,-327,-3,-7,0,0
71059,722,-8181,-338,-3,-7,0,0
71065,721,-8181,-342,-3,-7,0,0
71071,714,-8181,-341,-3,-7,0,0
71077,705,-8184,-335,-3,-7,0,0
71081,692,-8184,-332,-3,-7,0,0
71087,679,-8183,-325,-2,-7,0,0
71093,670,-8185,-325,-2,-8,0,0
71099,665,-8187,-334,-2,-8,0,0
71103,662,-8187,-340,-2,-8,0,0
71110,663,-8188,-347,-2,-8,0,0
71115,667,-8186,-353,-2,-8,0,0
71121,669,-8184,-355,-2,-8,0,0
71127,667,-8183,-363,-2,-8,0,0
71133,663,-8181,-370,-2,-8,0,0
71139,653,-8180,-376,-2,-8,0,0
71143,643,-8179,-375,-2,-8,0,0
71149,633,-8178,-373,-2,-7,0,0
71155,626,-8180,-378,-2,-7,0,0
71161,624,-8180,-381,-2,-7,0,0
71167,626,-8182,-378,-2,-7,0,0
71173,629,-8183,-372,-2,-7,0,0
71179,631,-8182,-367,-2,-7,0,0
71184,632,-8179,-360,-2,-7,0,0
71189,634,-8181,-352,-2,-7,0,0
71194,635,-8181,-343,-2,-7,0,0
71199,634,-8183,-332,-2,-7,0,0
71203,634,-8181,-323,-2,-7,0,0
71209,638,-8182,-316,-2,-7,0,0
71213,644,-8185,-305,-2,-6,0,0
71218,650,-8185,-297,-2,-6,0,0
71222,657,-8185,-294,-2,-6,0,0
71227,664,-8183,-290,-2,-6,0,0
71232,667,-8183,-285,-2,-5,0,0
71237,669,-8183,-283,-2,-5,0,0
71242,669,-8185,-282,-2,-5,0,0
71247,670,-8185,-280,-2,-5,0,0
71252,674,-8184,-276,-2,-5,0,0
71257,678,-8184,-274,-2,-5,0,0
71261,684,-8186,-272,-2,-5,0,0
71266,687,-8187,-266,-2,-5,0,0
71271,692,-8186,-257,-2,-5,0,0
71275,694,-8185,-247,-2,-5,0,0
71280,695,-8185,-241,-2,-5,0,0
71285,693,-8187,-238,-2,-5,0,0
71291,690,-8189,-239,-2,-5,0,0
71296,687,-8190,-242,-2,-5,0,0
71302,678,-8191,-243,-2,-4,0,0
71308,673,-8191,-243,-2,-4,0,0
71313,670,-8192,-242,-2,-4,0,0
71319,668,-8191,-240,-2,-3,0,0
71325,666,-8192,-236,-2,-3,0,0
71331,665,-8193,-233,-2,-3,0,0
71337,659,-8191,-233,-2,-3,0,0
71342,651,-8190,-236,-2,-3,0,0
71348,642,-8189,-239,-2,-3,0,0
71354,631,-8186,-241,-2,-3,0,0
71360,622,-8190,-247,-2,-3,0,0
71365,615,-8192,-252,-2,-3,0,0
71371,612,-8193,-254,-2,-3,0,0
71377,613,-8191,-249,-2,-3,0,0
71382,615,-8189,-248,-2,-3,0,0
71387,613,-8189,-244,-2,-3,0,0
71393,609,-8190,-241,-2,-3,0,0
71399,600,-8190,-233,-2,-3,0,0
71404,594,-8190,-229,-2,-3,0,0
71410,586,-8192,-231,-2,-4,0,0
71416,579,-8193,-235,-2,-4,0,0
71422,580,-8193,-233,-2,-4,0,0
71427,582,-8190,-236,-2,-4,0,0
71433,582,-8188,-235,-2,-4,0,0
71439,586,-8191,-230,-2,-4,0,0
71444,586,-8192,-228,-2,-4,0,0
71448,588,-8192,-228,-2,-4,0,0
71453,588,-8190,-231,-2,-5,0,0
71459,590,-8189,-234,-2,-5,0,0
71465,593,-8190,-243,-2,-5,0,0
71471,600,-8191,-249,-2,-5,0,0
71476,610,-8190,-252,-2,-6,0,0
71481,620,-8190,-250,-2,-6,0,0
71486,632,-8189,-251,-2,-6,0,0
71491,644,-8189,-248,-2,-6,0,0
71496,652,-8192,-246,-2,-6,0,0
71501,655,-8191,-240,-2,-6,0,0
71506,657,-8191,-234,-2,-6,0,0
71511,658,-8189,-235,-2,-5,0,0
71516,661,-8190,-237,-2,-5,0,0
71521,663,-8191,-242,-2,-5,0,0
71526,670,-8192,-246,-2,-5,0,0
71531,678,-8195,-248,-2,-5,0,0
71536,685,-8194,-240,-2,-5,0,0
71541,691,-8196,-235,-2,-5,0,0
71546,696,-8193,-228,-2,-5,0,0
71551,695,-8190,-222,-2,-4,0,0
71556,694,-8190,-221,-2,-4,0,0
71561,692,-8190,-222,-2,-4,0,0
71566,692,-8189,-225,-2,-3,0,0
71571,693,-8187,-227,-2,-3,0,0
71575,696,-8187,-228,-2,-2,0,0
71580,701,-8187,-231,-2,-2,0,0
71585,704,-8183,-233,-2,-2,0,0
71590,704,-8180,-233,-2,-2,0,0
71594,702,-8179,-233,-2,-2,0,0
71599,695,-8180,-233,-2,-2,0,0
71604,691,-8181,-234,-2,-2,0,0
71609,684,-8181,-235,-2,-2,0,0
71613,681,-8183,-235,-2,-2,0,0
71618,674,-8186,-235,-2,-2,0,0
71623,667,-8187,-238,-2,-1,0,0
71628,661,-8187,-237,-2,-1,0,0
71634,650,-8188,-239,-2,-1,0,0
71639,637,-8189,-235,-2,-1,0,0
71643,619,-8188,-228,-2,-1,0,0
71649,600,-8187,-224,-2,-1,0,0
71654,587,-8185,-224,-2,-2,0,0
71659,576,-8183,-225,-2,-2,0,0
71663,573,-8183,-222,-2,-2,0,0
71669,576,-8182,-221,-2,-2,0,0
71673,578,-8183,-219,-2,-2,0,0
71678,581,-8184,-217,-2,-2,0,0
71683,585,-8186,-217,-2,-2,0,0
71689,586,-8187,-218,-2,-2,0,0
71695,582,-8184,-220,-2,-2,0,0
71701,578,-8186,-215,-2,-2,0,0
71707,577,-8187,-214,-2,-2,0,0
71713,572,-8187,-214,-2,-2,0,0
71719,574,-8186,-215,-2,-2,0,0
71724,572,-8184,-211,-2,-2,0,0
71729,569,-8185,-207,-2,-2,0,0
71735,571,-8187,-200,-2,-2,0,0
71741,568,-8190,-196,-2,-2,-1,0
71747,563,-8188,-194,-2,-2,-1,0
71753,556,-8190,-194,-2,-2,-1,0
71759,551,-8190,-197,-2,-2,-1,0
71765,552,-8187,-201,-2,-2,-1,0
71771,553,-8187,-200,-2,-3,-1,0
71777,559,-8185,-203,-2,-3,-1,0
71782,569,-8185,-204,-2,-3,-1,0
71787,582,-8185,-208,-2,-3,-1,0
71793,595,-8186,-206,-2,-3,-1,0
71798,605,-8188,-206,-2,-3,-1,0
71803,608,-8188,-207,-2,-3,-1,0
71808,608,-8188,-202,-2,-3,-1,0
71812,602,-8187,-202,-2,-3,-1,0
71818,600,-8188,-207,-2,-2,-1,0
71822,601,-8189,-206,-2,-2,-1,0
71827,602,-8188,-199,-2,-2,-1,0
71831,608,-8188,-198,-2,-2,-1,0
71835,615,-8189,-203,-2,-2,-1,0
71841,622,-8193,-205,-2,-2,-1,0
71845,628,-8191,-204,-2,-2,-1,0
71850,629,-8191,-202,-2,-2,-1,0
71855,631,-8192,-203,-2,-2,-1,0
71860,632,-8190,-206,-2,-2,-1,0
71864,634,-8188,-209,-2,-2,-1,0
71868,639,-8187,-212,-2,-2,-1,0
71873,647,-8184,-215,-2,-2,-1,0
71877,652,-8187,-217,-2,-2,-1,0
71881,653,-8186,-217,-2,-2,-1,0
71886,656,-8186,-222,-2,-2,-1,0
71890,657,-8188,-223,-2,-3,-1,0
71894,655,-8190,-224,-2,-3,-1,0
71898,657,-8194,-227,-2,-3,-1,0
71903,659,-8191,-224,-2,-3,-1,0
71907,664,-8191,-216,-2,-2,-1,0
71911,671,-8189,-214,-2,-2,-1,0
71915,680,-8186,-212,-2,-2,-1,0
71919,690,-8186,-212,-2,-2,-1,0
71923,692,-8186,-214,-2,-2,-1,0
71928,687,-8185,-211,-2,-2,-1,0
71932,681,-8184,-219,-2,-2,0,0
71936,676,-8182,-227,-2,-2,0,0
71940,673,-8178,-225,-2,-2,0,0
71944,670,-8178,-224,-2,-1,0,0
71948,671,-8179,-227,-2,-1,0,0
71952,673,-8183,-226,-2,-2,0,0
71956,674,-8185,-225,-2,-2,0,0
71960,670,-8182,-224,-2,-2,0,0
71964,667,-8181,-223,-2,-2,0,0
71968,664,-8182,-228,-2,-2,-1,0
71972,660,-8181,-228,-2,-2,0,0
71976,658,-8182,-224,-2,-2,0,0
71980,659,-8182,-224,-2,-2,0,0
71984,659,-8181,-219,-2,-2,0,0
71988,662,-8183,-218,-2,-1,0,0
71992,662,-8182,-215,-2,-1,0,0
71996,662,-8186,-215,-2,-2,0,0
72000,659,-8188,-219,-2,-2,0,0
72004,651,-8189,-224,-2,-2,0,0
72008,646,-8189,-231,-2,-2,-1,0
72012,638,-8190,-234,-2,-2,-1,0
72016,629,-8191,-238,-2,-2,-1,0
72021,624,-8191,-239,-2,-2,0,0
72025,624,-8194,-237,-2,-2,-1,0
72029,625,-8193,-236,-2,-2,0,0
72033,626,-8193,-236,-2,-2,-1,0
72037,627,-8193,-241,-2,-2,-1,0
72041,629,-8191,-241,-2,-2,-1,0
72045,630,-8192,-245,-2,-2,-1,0
72050,635,-8192,-251,-2,-2,-1,0
72055,642,-8190,-254,-2,-2,0,0
72060,650,-8185,-249,-2,-2,-1,0
72064,655,-8186,-248,-2,-2,-1,0
72070,666,-8186,-243,-2,-2,0,0
72075,673,-8187,-237,-2,-2,0,0
72079,676,-8184,-234,-2,-2,-1,0
72084,674,-8185,-234,-2,-2,0,0
72089,670,-8186,-239,-2,-2,0,0
72094,666,-8183,-243,-2,-2,0,0
72098,667,-8182,-243,-2,-2,0,0
72102,669,-8183,-245,-2,-2,0,0
72107,671,-8185,-245,-2,-2,0,0
72113,676,-8184,-247,-2,-2,0,0
72117,681,-8181,-247,-2,-2,0,0
72122,683,-8179,-250,-2,-2,0,0
72127,681,-8180,-252,-2,-2,0,0
72131,677,-8184,-260,-2,-2,0,0
72136,671,-8186,-269,-2,-2,0,0
72141,666,-8188,-272,-2,-2,0,0
72146,664,-8187,-275,-2,-2,0,0
72151,664,-8187,-279,-2,-2,0,0
72156,665,-8186,-279,-2,-2,0,0
72160,663,-8182,-278,-2,-2,0,0
72165,660,-8179,-275,-2,-2,0,0
72170,651,-8178,-270,-2,-2,0,0
72174,640,-8179,-266,-2,-2,0,0
72179,629,-8181,-267,-2,-2,0,0
72184,621,-8182,-267,-2,-2,0,0
72189,616,-8184,-259,-2,-2,0,0
72194,617,-8183,-257,-2,-2,0,0
72198,617,-8182,-254,-2,-2,0,0
72203,615,-8181,-245,-2,-2,-1,0
72208,615,-8181,-241,-2,-2,-1,0
72213,613,-8178,-237,-2,-2,-1,0
72219,607,-8177,-235,-2,-2,-1,0
72224,600,-8178,-232,-2,-3,-1,0
72229,594,-8181,-230,-2,-3,-1,0
72234,588,-8180,-233,-2,-3,-1,0
72239,587,-8182,-229,-2,-3,-1,0
72243,591,-8186,-230,-2,-4,-1,0
72249,599,-8187,-226,-2,-4,-1,0
72254,610,-8187,-228,-2,-4,-1,0
72260,620,-8186,-225,-2,-4,-1,1
72264,626,-8185,-225,-2,-5,-1,1
72270,633,-8183,-221,-2,-5,-1,1
72276,640,-8185,-214,-2,-5,-1,1
72281,650,-8184,-209,-2,-4,-1,1
72287,658,-8183,-203,-2,-4,-1,1
72293,670,-8182,-199,-2,-4,-1,1
72299,681,-8181,-194,-2,-4,-1,1
72304,691,-8182,-186,-2,-3,-1,1
72311,700,-8184,-184,-2,-3,-1,1
72317,702,-8186,-185,-2,-3,-1,1
72323,704,-8186,-191,-2,-3,-1,1
72329,710,-8186,-193,-2,-2,-1,1
72335,710,-8187,-190,-2,-2,-1,1
72341,711,-8187,-192,-2,-2,0,1
72347,716,-8188,-193,-2,-2,0,1
72353,725,-8191,-198,-2,-2,0,1
72359,736,-8192,-203,-2,-2,0,1
72365,742,-8190,-213,-2,-2,0,1
72370,744,-8188,-220,-2,-1,0,1
72376,741,-8189,-233,-2,-1,0,1
72381,734,-8188,-238,-2,-1,0,1
72387,725,-8188,-245,-2,-1,0,1
72391,716,-8187,-249,-2,-1,0,1
72396,704,-8188,-249,-2,-1,0,1
72401,695,-8188,-251,-2,-1,0,1
72407,688,-8188,-250,-2,-1,0,1
72411,680,-8187,-253,-2,-1,0,1
72416,671,-8187,-256,-2,-1,0,1
72421,662,-8190,-254,-2,-1,0,1
72427,654,-8192,-254,-2,-1,0,1
72431,647,-8190,-255,-2,-2,0,1
72435,640,-8189,-257,-2,-2,0,1
72439,635,-8186,-255,-2,-2,0,1
72443,633,-8186,-249,-2,-2,0,1
72447,629,-8186,-244,-2,-2,0,1
72452,630,-8185,-244,-2,-2,0,1
72458,632,-8185,-241,-2,-2,0,1
72463,635,-8185,-237,-2,-2,0,1
72469,639,-8186,-235,-2,-2,0,1
72475,640,-8189,-236,-2,-2,0,1
72479,641,-8190,-232,-2,-2,0,1
72483,639,-8190,-225,-2,-2,-1,1
72488,633,-8191,-217,-2,-2,0,1
72493,630,-8193,-212,-2,-2,0,1
72497,628,-8195,-205,-2,-2,0,1
72502,627,-8193,-204,-2,-2,0,1
72508,628,-8193,-207,-2,-2,-1,1
72513,629,-8193,-217,-2,-2,-1,1
72518,633,-8192,-228,-2,-3,-1,1
72522,639,-8192,-232,-2,-3,-1,1
72527,646,-8194,-239,-2,-3,-1,1
72533,654,-8192,-245,-2,-3,-1,1
72538,660,-8188,-247,-2,-4,-1,1
72542,666,-8187,-246,-2,-4,-1,1
72547,673,-8186,-240,-2,-4,-1,1
72552,677,-8188,-236,-2,-4,-1,1
72557,677,-8187,-231,-2,-4,-1,1
72562,675,-8186,-225,-2,-4,-1,1
72567,679,-8183,-220,-2,-4,-1,1
72573,682,-8180,-215,-2,-4,0,1
72578,686,-8183,-207,-2,-4,0,1
72583,686,-8184,-200,-2,-3,-1,1
72589,688,-8186,-194,-2,-3,0,1
72594,692,-8188,-187,-2,-3,0,1
72599,695,-8186,-179,-2,-3,0,1
72603,700,-8187,-172,-2,-3,0,1
72609,707,-8188,-171,-2,-3,0,1
72614,707,-8190,-171,-3,-2,0,1
72619,706,-8190,-174,-3,-2,0,1
72623,708,-8189,-181,-3,-2,0,1
72629,715,-8187,-189,-3,-2,0,1
72634,714,-8188,-197,-3,-2,0,1
72639,713,-8188,-202,-3,-2,0,1
72643,709,-8189,-206,-3,-2,0,1
72649,707,-8187,-215,-3,-1,0,1
72654,705,-8188,-220,-3,-1,0,1
72660,700,-8189,-223,-3,-1,0,1
72665,694,-8192,-227,-3,-1,0,1
72670,687,-8195,-232,-3,-1,0,1
72675,681,-8197,-245,-3,-1,0,1
72680,670,-8198,-254,-3,-1,0,1
72685,660,-8197,-260,-3,-1,0,1
72690,649,-8196,-263,-3,-1,0,1
72695,640,-8194,-260,-3,-1,0,1
72700,631,-8193,-257,-3,-1,0,1
72704,623,-8191,-258,-3,-1,0,1
72710,616,-8192,-259,-3,-2,0,1
72715,617,-8192,-261,-3,-2,0,1
72721,618,-8191,-264,-3,-2,0,1
72726,625,-8192,-269,-3,-2,0,1
72731,634,-8190,-276,-3,-2,0,1
72735,644,-8190,-272,-3,-2,0,1
72740,660,-8190,-267,-3,-2,0,1
72744,675,-8189,-258,-3,-2,0,1
72750,687,-8192,-252,-3,-2,0,1
72755,701,-8194,-245,-3,-2,0,1
72760,707,-8192,-243,-3,-2,0,1
72764,707,-8191,-246,-3,-2,0,1
72770,705,-8193,-249,-3,-2,0,1
72774,700,-8193,-255,-3,-1,0,1
72779,697,-8194,-256,-3,-1,0,1
72783,695,-8193,-256,-3,-1,0,1
72789,696,-8191,-258,-3,-1,0,1
72794,698,-8190,-260,-3,-1,0,1
72799,701,-8188,-260,-3,-1,0,1
72803,707,-8189,-263,-3,-1,0,1
72808,710,-8188,-271,-3,-1,0,1
72814,711,-8190,-276,-3,-1,0,1
72818,705,-8190,-280,-3,0,0,1
72823,697,-8189,-286,-3,0,0,1
72829,687,-8187,-285,-3,0,0,1
72834,678,-8187,-281,-3,0,0,1
72839,674,-8185,-281,-3,0,0,1
72843,672,-8186,-287,-2,0,0,1
72848,671,-8187,-295,-2,0,0,1
72853,669,-8186,-304,-2,0,0,1
72858,666,-8184,-319,-2,0,0,1
72862,660,-8186,-334,-2,0,0,1
72868,654,-8185,-348,-2,0,0,1
72873,651,-8184,-352,-2,0,0,1
72878,644,-8184,-349,-2,0,0,1
72883,637,-8182,-343,-2,0,0,1
72887,637,-8182,-338,-2,0,0,1
72892,634,-8181,-332,-2,0,0,1
72897,634,-8181,-323,-2,0,0,1
72901,633,-8181,-314,-2,0,0,1
72905,632,-8182,-306,-2,0,0,1
72911,630,-8184,-298,-2,0,0,1
72916,634,-8188,-287,-2,0,0,1
72921,642,-8185,-277,-2,0,0,1
72925,651,-8185,-263,-2,-1,0,1
72930,661,-8186,-247,-2,-1,0,1
72936,676,-8185,-234,-2,0,0,1
72940,692,-8184,-226,-2,0,0,1
72945,705,-8184,-220,-2,0,0,1
72950,715,-8185,-216,-2,0,0,1
72955,718,-8185,-220,-2,0,0,1
72959,718,-8186,-231,-2,0,0,1
72964,717,-8187,-242,-2,1,0,1
72969,719,-8188,-252,-2,1,0,1
72974,718,-8184,-264,-2,1,0,1
72978,717,-8183,-273,-2,1,0,1
72983,714,-8184,-284,-2,2,0,1
72989,712,-8184,-294,-2,2,0,1
72994,709,-8183,-307,-2,2,0,1
73000,705,-8184,-320,-2,2,0,1
73004,702,-8183,-333,-2,2,0,1
73010,687,-8181,-350,-2,2,0,1
73016,669,-8179,-362,-2,2,0,1
73022,645,-8183,-369,-2,2,0,1
73027,619,-8183,-363,-2,1,0,1
73032,587,-8184,-352,-2,0,0,1
73037,541,-8185,-337,-2,-1,0,1
73043,490,-8183,-311,-2,-2,-1,1
73049,437,-8186,-291,-2,-3,-1,1
73055,388,-8187,-272,-2,-4,-1,1
73061,350,-8188,-254,-2,-4,-1,1
73065,324,-8187,-244,-2,-4,-1,1
73069,317,-8188,-234,-2,-4,-1,1
73073,325,-8189,-223,-2,-4,-1,1
73078,345,-8190,-214,-2,-4,-1,1
73082,370,-8192,-212,-2,-4,-2,1
73087,388,-8191,-214,-2,-3,-2,1
73092,398,-8190,-221,-2,-3,-2,1
73097,403,-8189,-226,-2,-3,-2,1
73102,402,-8193,-232,-2,-3,-2,1
73108,407,-8194,-242,-2,-3,-2,1
73114,420,-8193,-251,-2,-3,-2,1
73119,441,-8191,-258,-2,-3,-2,1
73124,472,-8187,-260,-2,-3,-2,1
73128,507,-8184,-252,-3,-4,-2,1
73132,546,-8183,-238,-3,-4,-2,1
73136,581,-8182,-221,-3,-4,-2,1
73141,619,-8185,-192,-3,-4,-2,1
73145,658,-8187,-156,-3,-4,-2,1
73149,693,-8188,-110,-3,-5,-2,1
73153,740,-8188,-60,-3,-6,-2,1
73157,799,-8189,-10,-3,-7,-2,1
73161,865,-8192,39,-3,-8,-2,1
73165,941,-8194,88,-4,-8,-2,1
73170,1036,-8201,163,-4,-7,-2,1
73174,1164,-8205,259,-5,-7,-2,1
73178,1335,-8212,365,-6,-7,-2,1
73182,1590,-8216,433,-6,-7,-1,1
73186,2002,-8221,424,-7,-9,0,1
73190,2686,-8344,324,-7,-21,1,1
73194,3624,-9460,162,-6,-55,3,1
73198,4267,-10449,138,-5,-116,5,1
73202,4560,-11296,-176,-6,-212,-1,1
73206,4896,-12023,-893,-5,-278,-6,1
73210,4065,-12646,-1302,0,-271,-4,1
73214,3093,-13180,-2132,6,-226,-3,1
73218,1887,-13637,-2855,10,-140,0,1
73222,1191,-14030,-3804,11,-62,4,1
73226,985,-14366,-4345,11,25,7,1
73230,1107,-14654,-4332,11,108,8,1
73233,1340,-14901,-4104,11,174,7,1
73237,1417,-15113,-3789,12,208,5,1
73241,1418,-15295,-3634,13,208,3,1
73245,1204,-15450,-3621,16,188,2,1
73248,585,-15584,-3799,19,145,1,1
73252,-5,-15698,-4127,22,85,0,1
73256,-687,-15397,-4490,24,26,0,1
73260,-908,-14777,-4391,28,-14,-3,1
73264,-1045,-13889,-4334,31,-21,-5,1
73268,-1114,-12779,-4186,34,-24,-9,1
73272,-1176,-11474,-4113,34,-29,-12,1
73277,-1282,-10026,-3895,35,-28,-12,1
73281,-1446,-8457,-3456,36,-17,-11,1
73286,-1538,-6794,-2906,36,4,-12,1
73291,-1433,-5101,-2289,37,29,-12,1
73295,-1218,-3453,-1690,37,49,-11,1
73300,-944,-1910,-1152,36,58,-9,1
73304,-204,-497,-927,35,59,-7,1
73309,555,671,-883,37,70,2,1
73313,1462,1698,-895,36,73,5,1
73317,2175,2538,-229,37,64,6,1
73321,2740,3219,-162,34,57,5,1
73325,2691,3721,408,33,46,5,1
73329,2388,4082,865,32,24,6,1
73333,1987,4263,1241,30,19,8,1
73337,1689,4327,1626,29,22,10,1
73341,1461,4307,1867,27,26,13,1
73344,1297,4227,2080,26,26,15,1
73349,1351,4097,2237,24,26,15,1
73353,1509,3916,2427,22,32,15,1
73358,1574,3687,2529,20,32,15,1
73363,1467,3406,2560,19,24,15,1
73368,1199,3081,2477,17,16,16,1
73373,908,2726,2404,15,14,17,1
73378,697,2350,2305,13,20,17,1
73383,575,1944,2252,11,28,18,1
73388,493,1512,2146,10,32,18,1
73393,442,1057,2053,9,31,18,1
73398,390,581,1932,8,26,17,1
73403,360,88,1790,7,21,17,1
73408,329,-436,1664,7,18,18,1
73413,251,-981,1519,6,16,18,1
73418,141,-1530,1361,5,12,17,1
73423,-14,-2064,1185,4,8,16,1
73428,-208,-2567,1039,4,4,15,1
73434,-397,-3035,932,3,1,13,1
73439,-488,-3459,910,2,2,12,1
73444,-645,-3862,923,3,5,13,1
73448,-847,-4240,958,2,3,11,1
73453,-970,-4578,968,1,-3,8,1
73457,-1104,-4877,987,0,-5,7,1
73463,-1284,-5146,979,0,-7,5,1
73468,-1347,-5395,922,-1,-8,4,1
73474,-1343,-5624,874,-1,-5,3,1
73480,-1267,-5833,814,-1,-4,2,1
73484,-1152,-6023,785,-2,-4,1,1
73490,-1006,-6194,745,-2,-3,-1,1
73494,-858,-6341,734,-2,-3,-1,1
73499,-850,-6461,752,-2,-3,-2,1
73504,-872,-6560,774,-3,-6,-3,1
73509,-851,-6644,803,-3,-6,-3,1
73514,-809,-6722,825,-3,-5,-4,1
73519,-742,-6786,829,-3,-5,-4,1
73524,-648,-6837,831,-3,-6,-5,1
73529,-526,-6875,833,-3,-8,-5,1
73534,-398,-6909,818,-4,-8,-6,1
73539,-330,-6952,810,-4,-9,-6,1
73544,-295,-7010,807,-4,-11,-6,1
73549,-225,-7077,796,-4,-10,-6,1
73555,-157,-7136,800,-4,-8,-6,1
73560,-117,-7187,804,-4,-7,-6,1
73564,-59,-7236,813,-4,-7,-6,1
73569,14,-7283,824,-4,-7,-6,1
73574,101,-7323,816,-4,-8,-6,1
73579,156,-7346,823,-4,-10,-6,1
73584,162,-7353,840,-4,-12,-6,1
73589,200,-7355,862,-5,-13,-6,1
73595,242,-7355,879,-5,-11,-6,1
73599,258,-7364,904,-5,-9,-6,1
73604,268,-7386,915,-5,-10,-6,1
73609,284,-7424,927,-5,-11,-6,1
73614,300,-7479,929,-5,-12,-6,1
73619,297,-7548,947,-5,-14,-6,1
73624,269,-7629,949,-5,-16,-6,1
73629,218,-7722,965,-5,-17,-6,1
73635,153,-7820,978,-5,-17,-7,1
73640,88,-7910,989,-6,-15,-7,1
73644,-13,-7991,1005,-6,-13,-7,1
73649,-122,-8064,1021,-6,-11,-7,1
73654,-175,-8121,1009,-6,-9,-8,1
73659,-209,-8170,1007,-6,-7,-8,1
73664,-207,-8196,1004,-6,-7,-8,1
73669,-89,-8195,987,-6,-6,-8,1
73675,121,-8174,959,-6,-5,-7,1
73679,427,-8139,912,-4,-5,-4,1
73684,476,-8107,1008,-3,-7,-2,1
73688,405,-8093,1062,-2,-16,-2,1
73693,656,-8104,932,-2,-14,-4,1
73698,933,-8113,716,-3,-5,-4,1
73703,1070,-8098,635,-3,-7,-5,1
73708,1017,-8075,539,-4,-12,-5,1
73713,852,-8069,614,-4,-14,-4,1
73718,650,-8070,693,-4,-14,-3,1
73723,462,-8066,780,-4,-12,-3,1
73728,338,-8040,850,-4,-11,-3,1
73732,262,-8008,898,-5,-12,-3,1
73737,361,-7965,882,-5,-13,-3,1
73742,477,-7919,856,-5,-10,-2,1
73747,646,-7862,815,-5,-11,-2,1
73752,694,-7813,808,-5,-10,-2,1
73757,622,-7780,858,-5,-13,-2,1
73762,480,-7776,899,-5,-13,-2,1
73768,312,-7791,941,-5,-10,-1,1
73772,286,-7807,910,-5,-9,-1,1
73777,330,-7829,889,-5,-7,0,1
73782,483,-7847,758,-5,-10,0,1
73787,624,-7860,649,-5,-10,-1,1
73793,658,-7863,599,-6,-12,-1,1
73798,589,-7867,618,-6,-11,-1,1
73803,453,-7883,704,-6,-8,0,1
73809,341,-7900,760,-6,-5,0,1
73813,314,-7904,772,-6,-2,1,1
73818,385,-7892,709,-6,-1,1,1
73823,496,-7868,637,-6,-2,1,1
73828,554,-7838,585,-6,-6,0,1
73833,517,-7821,599,-6,-10,0,1
73837,428,-7820,632,-6,-12,0,1
73842,329,-7838,682,-6,-13,1,1
73847,290,-7866,687,-6,-12,1,1
73853,322,-7903,665,-6,-11,1,1
73857,403,-7936,611,-6,-11,1,1
73862,492,-7974,570,-7,-11,1,1
73867,508,-8013,559,-7,-12,1,1
73873,458,-8054,587,-7,-12,1,1
73878,374,-8098,629,-7,-11,1,1
73883,331,-8139,651,-7,-9,2,1
73887,342,-8174,647,-7,-7,2,1
73892,398,-8192,624,-7,-6,2,1
73897,463,-8195,594,-7,-6,2,1
73902,488,-8188,587,-7,-6,2,1
73907,467,-8177,604,-7,-6,2,1
73912,410,-8168,641,-7,-4,3,1
73917,360,-8160,672,-7,-3,3,1
73922,360,-8145,675,-7,-1,3,1
73927,399,-8131,655,-7,-2,3,1
73933,444,-8119,621,-7,-4,3,1
73938,470,-8115,606,-7,-7,3,1
73944,468,-8120,605,-7,-9,3,1
73949,449,-8132,629,-7,-9,3,1
73955,423,-8150,655,-7,-10,3,1
73961,422,-8167,666,-7,-10,4,1
73965,452,-8184,649,-7,-10,4,1
73971,499,-8194,628,-7,-10,4,1
73977,533,-8203,612,-7,-11,4,1
73982,539,-8212,605,-7,-12,4,1
73987,518,-8220,611,-7,-13,4,1
73993,490,-8225,631,-6,-12,4,1
73999,463,-8233,641,-6,-11,5,1
74004,455,-8243,634,-6,-10,5,1
74009,464,-8257,615,-6,-10,5,1
74015,479,-8275,587,-6,-10,5,1
74021,486,-8296,576,-6,-10,5,1
74026,474,-8313,578,-6,-10,5,1
74031,458,-8326,583,-6,-9,5,1
74037,449,-8337,591,-6,-8,5,1
74043,443,-8343,596,-6,-8,5,1
74048,447,-8339,595,-6,-7,5,1
74054,461,-8327,594,-6,-7,6,1
74059,482,-8305,593,-6,-6,6,1
74064,497,-8289,591,-6,-5,6,1
74070,509,-8275,587,-6,-5,6,1
74076,511,-8269,580,-6,-5,6,1
74081,515,-8270,570,-6,-6,6,1
74085,519,-8275,558,-6,-6,6,1
74089,515,-8283,547,-6,-7,6,1
74095,509,-8291,542,-6,-7,6,1
74099,502,-8298,539,-6,-8,6,1
74104,487,-8301,538,-6,-8,6,1
74109,473,-8303,539,-6,-8,6,1
74113,467,-8301,541,-5,-8,6,1
74118,457,-8293,541,-5,-9,6,1
74123,455,-8279,538,-5,-10,6,1
74127,454,-8264,535,-5,-10,6,1
74133,443,-8247,538,-5,-11,6,1
74137,434,-8234,542,-5,-12,5,1
