millis,ax,ay,az,gx,gy,gz,label
19484176,165,-8287,237,-1,3,-2,0
19484181,181,-8286,232,-1,3,-2,0
19484186,201,-8289,228,-1,2,-2,0
19484191,212,-8288,224,-1,1,-2,0
19484196,219,-8288,216,-1,0,-2,0
19484201,228,-8292,212,-1,0,-2,0
19484206,242,-8294,210,-1,-1,-2,0
19484211,254,-8295,213,-1,-1,-2,0
19484216,271,-8297,219,-1,-1,-2,0
19484221,287,-8300,226,0,-1,-2,0
19484226,304,-8299,226,0,-1,-2,0
19484231,320,-8299,230,0,-2,-2,0
19484236,333,-8297,227,0,-1,-2,0
19484241,342,-8297,227,0,-1,-2,0
19484246,353,-8298,228,0,-1,-2,0
19484251,359,-8299,226,0,-1,-1,0
19484256,366,-8299,227,0,-1,-1,0
19484261,376,-8300,231,0,-1,-1,0
19484266,383,-8301,236,0,-1,-1,0
19484271,392,-8300,248,0,-1,-1,0
19484276,396,-8299,260,0,-1,-1,0
19484281,396,-8298,266,0,-1,-1,0
19484286,392,-8298,272,0,-1,-1,0
19484291,387,-8298,277,0,-1,-1,0
19484296,384,-8298,281,0,-1,-1,0
19484301,382,-8299,285,0,-2,-1,0
19484306,384,-8300,287,0,-2,-1,0
19484311,384,-8301,294,0,-2,-1,0
19484316,387,-8300,303,0,-2,-1,0
19484321,390,-8300,313,0,-3,-1,0
19484326,392,-8299,333,0,-3,-1,0
19484331,390,-8299,353,0,-4,-1,0
19484336,387,-8300,375,0,-4,-1,0
19484341,385,-8300,394,0,-4,-1,0
19484346,383,-8301,410,0,-3,-1,0
19484351,382,-8302,424,0,-3,-1,0
19484356,379,-8304,436,0,-2,-1,0
19484361,383,-8305,448,0,-1,-1,0
19484366,389,-8306,458,0,-1,-1,0
19484371,399,-8310,473,0,-1,-1,0
19484376,412,-8309,480,0,-1,0,0
19484381,426,-8309,481,-1,-1,0,0
19484386,441,-8304,485,-1,-1,0,0
19484391,450,-8304,483,-1,-1,0,0
19484396,449,-8306,479,-1,-1,0,0
19484401,437,-8305,473,-1,-2,0,0
19484406,418,-8305,460,-1,-2,0,0
19484411,394,-8306,449,-1,-1,0,0
19484416,370,-8306,445,-1,-1,0,0
19484421,343,-8304,443,-1,-1,0,0
19484426,321,-8303,434,-1,-1,0,0
19484431,301,-8303,432,-1,-1,0,0
19484436,282,-8303,428,-1,-1,0,0
19484441,269,-8303,417,-1,0,0,0
19484446,258,-8306,402,-1,0,0,0
19484451,249,-8307,394,-1,0,0,0
19484456,240,-8306,382,-1,0,0,0
19484461,241,-8304,371,-1,0,0,0
19484466,245,-8302,364,-1,0,0,0
19484471,248,-8300,352,-1,0,0,0
19484476,255,-8298,346,-1,0,0,0
19484481,262,-8299,341,-1,-1,0,0
19484486,265,-8300,334,-1,-1,0,0
19484491,268,-8299,318,-1,-1,0,0
19484496,265,-8298,307,-1,-2,0,0
19484501,263,-8300,297,-1,-2,0,0
19484506,261,-8299,288,-1,-2,0,0
19484511,256,-8298,284,0,-3,0,0
19484516,251,-8296,281,0,-3,0,0
19484521,246,-8295,282,0,-3,0,0
19484526,240,-8293,282,0,-4,0,0
19484531,234,-8294,283,0,-4,0,0
19484536,225,-8296,280,0,-5,0,0
19484541,216,-8298,272,0,-5,0,0
19484546,214,-8298,270,0,-5,0,0
19484551,214,-8297,260,0,-5,0,0
19484556,220,-8297,250,0,-5,0,0
19484561,227,-8297,244,0,-5,0,0
19484566,234,-8295,238,0,-5,0,0
19484571,241,-8298,239,0,-5,0,0
19484576,253,-8302,235,0,-6,0,0
19484581,260,-8305,238,0,-6,0,0
19484586,266,-8307,243,0,-7,0,0
19484591,271,-8306,250,0,-7,0,0
19484596,279,-8303,258,0,-8,0,0
19484601,285,-8302,270,0,-8,0,0
19484606,291,-8302,286,0,-9,0,0
19484611,294,-8301,309,0,-9,0,0
19484616,294,-8302,327,0,-9,0,0
19484621,288,-8302,345,0,-8,-1,0
19484626,277,-8303,356,0,-7,0,0
19484631,259,-8303,360,0,-6,-1,0
19484636,240,-8303,365,0,-5,0,0
19484641,222,-8303,369,0,-3,0,0
19484646,211,-8300,374,0,-3,-1,0
19484651,207,-8299,382,0,-2,0,0
19484656,208,-8300,389,0,-1,0,0
19484661,215,-8300,396,0,-1,-1,0
19484666,225,-8299,408,0,-2,-1,0
19484671,233,-8299,422,0,-2,-1,0
19484676,243,-8296,432,0,-2,-1,0
19484681,247,-8297,440,0,-2,-1,0
19484686,248,-8296,455,0,-3,-1,0
19484691,246,-8302,461,0,-3,-1,0
19484696,244,-8303,469,0,-3,-1,0
19484701,240,-8302,475,0,-3,-1,0
19484706,230,-8301,482,0,-3,-1,0
19484711,221,-8300,481,0,-2,-1,0
19484716,209,-8301,482,0,-2,-1,0
19484721,199,-8301,478,0,-2,-1,0
19484726,191,-8300,474,-1,-1,-1,0
19484731,187,-8299,477,-1,-1,-1,0
19484736,189,-8298,476,-1,0,-1,0
19484741,201,-8300,482,-1,1,-1,0
19484746,216,-8300,490,-1,1,-1,0
19484751,236,-8299,499,-1,1,-1,0
19484756,256,-8299,510,-1,1,-1,0
19484761,275,-8295,518,-1,1,-1,0
19484766,291,-8292,525,-1,1,-1,0
19484771,300,-8292,530,-1,1,-1,0
19484776,304,-8288,530,-1,1,-1,0
19484781,302,-8290,527,-1,1,-1,0
19484786,296,-8290,521,-1,1,-1,0
19484791,287,-8290,523,-1,1,-1,0
19484796,275,-8289,520,-1,1,-1,0
19484801,262,-8289,514,-1,1,-1,0
19484806,249,-8290,505,-1,1,-1,0
19484811,236,-8293,498,-1,0,-1,0
19484816,222,-8297,492,-1,0,-1,0
19484821,209,-8300,485,-1,0,-1,0
19484826,203,-8299,485,-1,-1,-1,0
19484831,197,-8297,483,-1,-1,-1,0
19484836,189,-8294,484,-1,-1,-1,0
19484841,180,-8293,477,-1,-1,-1,0
19484846,165,-8290,466,-1,-1,-1,0
19484851,155,-8292,459,-1,-1,-1,0
19484856,148,-8293,455,-1,-1,-1,0
19484861,144,-8296,441,-1,-1,-1,0
19484866,150,-8298,426,-2,-1,-1,0
19484871,167,-8299,415,-2,0,-1,0
19484876,186,-8298,412,-2,0,-1,0
19484881,212,-8298,412,-2,0,-1,0
19484886,233,-8300,416,-2,0,-1,0
19484891,249,-8302,424,-2,0,-1,0
19484896,262,-8302,428,-2,0,-1,0
19484901,268,-8299,435,-2,0,-1,0
19484906,275,-8298,440,-2,1,-1,0
19484911,279,-8299,443,-2,1,-1,0
19484916,278,-8300,439,-2,1,-1,0
19484921,278,-8299,432,-2,1,-1,0
19484926,275,-8297,419,-2,1,-1,0
19484931,270,-8297,405,-2,1,-1,0
19484936,262,-8297,393,-2,2,-1,0
19484941,250,-8296,375,-2,2,-1,0
19484946,237,-8298,365,-2,2,-1,0
19484951,226,-8299,356,-2,3,-1,0
19484956,214,-8299,348,-2,3,-1,0
19484961,205,-8296,344,-2,3,-1,0
19484966,197,-8296,335,-2,3,-1,0
19484971,191,-8299,331,-2,3,-2,0
19484976,186,-8299,318,-2,3,-2,0
19484981,181,-8299,300,-2,3,-1,0
19484986,180,-8299,280,-2,3,-2,0
19484991,182,-8302,260,-1,3,-2,0
19484996,184,-8300,235,-1,3,-2,0
19485001,183,-8302,215,-1,2,-2,0
19485006,177,-8302,209,-1,1,-2,0
19485011,173,-8300,194,-1,1,-2,0
19485016,169,-8301,182,-1,1,-2,0
19485021,164,-8301,179,-1,1,-2,0
19485026,168,-8300,178,-1,2,-2,0
19485031,177,-8298,181,-1,2,-2,0
19485036,198,-8298,184,-1,2,-2,0
19485041,229,-8297,184,-1,2,-2,0
19485046,266,-8295,190,-1,2,-2,0
19485051,303,-8294,185,-1,1,-2,0
19485056,329,-8297,176,-1,-1,-2,0
19485061,343,-8299,171,-1,-2,-2,0
19485066,345,-8300,167,-1,-2,-2,0
19485071,339,-8302,161,-1,-3,-2,0
19485076,328,-8301,154,-1,-3,-2,0
19485081,318,-8299,152,-1,-3,-2,0
19485086,305,-8299,158,-1,-3,-2,0
19485091,298,-8297,161,-1,-3,-2,0
19485096,296,-8297,164,-1,-2,-2,0
19485101,299,-8298,163,0,-1,-2,0
19485106,306,-8297,167,0,-1,-2,0
19485111,321,-8296,170,0,0,-2,0
19485116,337,-8295,172,0,-1,-2,0
19485121,352,-8296,180,0,-1,-2,0
19485126,372,-8298,187,0,-1,-2,0
19485131,393,-8299,207,0,-1,-2,0
19485136,416,-8302,227,0,-1,-2,0
19485141,437,-8300,250,0,-2,-2,0
19485146,449,-8297,273,0,-3,-2,0
19485151,464,-8295,292,0,-4,-2,0
19485156,478,-8293,306,0,-5,-1,0
19485162,486,-8292,309,0,-6,-1,0
19485166,488,-8294,315,0,-8,-1,0
19485171,484,-8293,319,0,-9,-1,0
19485176,482,-8296,317,0,-9,-1,0
19485181,476,-8297,314,0,-10,-1,0
19485186,467,-8296,312,0,-11,-1,0
19485191,463,-8295,313,0,-12,-1,0
19485196,465,-8296,312,0,-14,-1,0
19485201,474,-8298,304,0,-17,-1,0
19485206,487,-8299,298,0,-21,-1,0
19485211,496,-8299,288,0,-24,-1,0
19485216,483,-8300,237,0,-28,-1,0
19485221,346,-8305,238,0,-21,-1,0
19485226,267,-8305,229,-1,-7,-2,0
19485232,293,-8302,239,-1,4,-2,0
19485237,349,-8301,318,-1,3,-1,0
19485241,420,-8297,389,-1,-6,-1,0
19485246,490,-8291,429,-1,-13,0,0
19485251,558,-8290,459,0,-15,0,0
19485256,596,-8291,451,0,-12,-1,0
19485261,624,-8289,421,0,-7,-1,0
19485267,635,-8293,386,0,-2,-1,0
19485271,615,-8300,346,-1,0,-1,0
19485277,595,-8302,326,-1,0,-1,0
19485282,574,-8306,321,-1,0,0,0
19485286,557,-8308,349,-1,0,0,0
19485292,578,-8304,392,-1,1,0,0
19485296,614,-8301,416,-1,1,0,0
19485302,644,-8298,436,-1,0,0,0
19485306,670,-8298,437,-1,0,0,0
19485312,675,-8299,410,-1,-1,0,0
19485316,667,-8303,393,-1,0,0,0
19485322,669,-8303,386,-1,2,0,0
19485326,685,-8303,396,-1,3,1,0
19485331,700,-8301,429,-2,3,1,0
19485337,718,-8299,472,-2,2,1,0
19485341,734,-8300,508,-2,2,1,0
19485347,736,-8301,540,-1,2,1,0
19485351,726,-8302,549,-1,3,1,0
19485357,702,-8302,536,-1,3,1,0
19485362,660,-8305,505,-1,4,1,0
19485366,616,-8307,470,-1,5,1,0
19485372,577,-8308,429,-2,7,1,0
19485377,536,-8309,402,-2,9,2,0
19485381,515,-8307,362,-2,10,2,0
19485387,430,-8315,292,-1,12,1,0
19485392,248,-8316,314,-2,24,1,0
19485397,215,-8310,249,-2,35,0,0
19485401,265,-8308,255,-2,35,1,0
19485407,284,-8308,298,-2,26,1,0
19485412,308,-8305,275,-2,12,2,0
19485416,347,-8301,260,-1,5,2,0
19485422,371,-8302,233,-1,6,1,0
19485427,385,-8304,197,-1,8,1,0
19485432,424,-8306,171,-1,8,1,0
19485437,431,-8306,140,-1,7,1,0
19485442,396,-8309,129,-1,5,1,0
19485447,372,-8309,151,-1,3,1,0
19485452,351,-8306,178,-1,5,1,0
19485457,328,-8304,230,-1,7,1,0
19485461,350,-8304,282,-1,9,1,0
19485467,378,-8301,306,-1,9,1,0
19485472,385,-8301,324,-1,8,1,0
19485477,412,-8300,319,-1,7,1,0
19485481,429,-8299,286,-1,7,1,0
19485487,424,-8299,264,-1,6,1,0
19485492,424,-8299,246,-1,6,1,0
19485497,409,-8302,228,-1,6,1,0
19485502,383,-8300,231,-1,6,1,0
19485507,355,-8301,242,-1,6,1,0
19485512,319,-8303,253,-1,6,1,0
19485516,281,-8304,272,-1,6,1,0
19485522,244,-8303,279,-1,5,1,0
19485527,213,-8306,270,-1,5,1,0
19485532,184,-8305,261,-1,6,1,0
19485537,164,-8304,246,-1,6,1,0
19485542,153,-8304,227,-1,7,1,0
19485547,143,-8306,217,-1,7,1,0
19485552,135,-8310,219,-1,7,1,0
19485557,124,-8311,220,-1,6,1,0
19485562,111,-8308,233,-1,6,1,0
19485567,91,-8306,244,-1,5,1,0
19485572,76,-8305,260,-1,5,1,0
19485577,63,-8305,278,-1,4,1,0
19485582,52,-8306,290,-1,4,0,0
19485587,51,-8307,295,-1,4,0,0
19485592,53,-8306,304,-1,5,0,0
19485597,62,-8305,311,-1,6,0,0
19485602,78,-8306,316,-1,6,0,0
19485607,85,-8306,321,-1,7,0,0
19485612,86,-8304,319,-1,7,0,0
19485617,83,-8302,318,-1,7,0,0
19485622,76,-8301,317,-1,6,0,0
19485627,70,-8301,316,-1,6,0,0
19485632,72,-8301,309,-1,5,0,0
19485637,71,-8299,308,-1,5,0,0
19485642,78,-8299,304,-1,4,0,0
19485647,93,-8301,295,-1,4,0,0
19485652,105,-8301,284,-1,4,0,0
19485657,118,-8301,271,-1,4,0,0
19485662,128,-8301,251,-1,4,0,0
19485667,137,-8301,238,-1,4,0,0
19485672,146,-8299,227,-1,3,0,0
19485677,158,-8296,217,-1,3,0,0
19485682,165,-8293,219,-1,3,0,0
19485687,179,-8294,224,-1,3,0,0
19485692,193,-8293,229,-1,2,0,0
19485697,204,-8294,230,-1,2,0,0
19485702,218,-8294,223,-1,2,0,0
19485707,228,-8293,211,-1,2,0,0
19485712,233,-8292,198,-1,1,0,0
19485717,232,-8294,183,-1,1,0,0
19485722,225,-8297,165,-1,2,-1,0
19485727,214,-8296,150,-1,2,0,0
19485732,210,-8298,141,-1,2,0,0
19485737,203,-8300,132,-1,2,0,0
19485742,195,-8302,132,-1,1,0,0
19485747,195,-8301,134,0,1,0,0
19485752,197,-8301,142,0,0,0,0
19485757,200,-8299,151,0,0,0,0
19485762,211,-8299,157,0,0,0,0
19485767,223,-8300,164,0,0,-1,0
19485772,237,-8302,172,0,0,-1,0
19485777,243,-8303,175,0,0,-1,0
19485782,244,-8303,188,0,0,-1,0
19485787,246,-8303,197,0,0,-1,0
19485792,246,-8302,205,0,0,-1,0
19485797,246,-8302,212,0,0,-1,0
19485802,246,-8302,222,0,0,-1,0
19485807,255,-8303,230,0,0,0,0
19485812,267,-8302,235,0,0,0,0
19485817,280,-8301,233,0,0,0,0
19485822,292,-8301,235,0,-1,0,0
19485827,301,-8300,235,0,0,-1,0
19485832,308,-8298,238,0,0,-1,0
19485837,313,-8299,238,0,0,-1,0
19485842,313,-8298,242,0,0,0,0
19485847,315,-8300,243,0,0,0,0
19485852,315,-8298,249,0,0,0,0
19485857,315,-8296,256,0,0,0,0
19485862,316,-8296,264,0,-1,0,0
19485867,318,-8294,272,0,-1,0,0
19485872,317,-8293,279,0,-1,0,0
19485877,320,-8295,283,0,-1,0,0
19485882,325,-8296,290,0,-1,0,0
19485887,328,-8297,293,0,-1,0,0
19485892,328,-8297,303,0,-1,0,0
19485897,328,-8296,316,0,-1,0,0
19485902,329,-8296,329,0,0,0,0
19485907,329,-8297,349,-1,0,0,0
19485912,331,-8298,370,-1,0,0,0
19485917,333,-8298,385,-1,0,0,0
19485922,335,-8298,398,-1,1,0,0
19485927,335,-8296,406,-1,1,0,0
19485932,334,-8295,411,-1,2,0,0
19485937,331,-8297,407,-1,2,0,0
19485942,324,-8300,403,-1,3,0,0
19485947,320,-8301,391,-1,3,0,0
19485952,313,-8301,382,-1,3,0,0
19485957,307,-8299,375,-1,3,0,0
19485962,301,-8297,371,-1,3,0,0
19485967,294,-8296,365,-1,3,0,0
19485972,286,-8294,363,-1,3,0,0
19485977,276,-8293,358,-1,2,0,0
19485982,270,-8297,353,-1,2,0,0
19485987,264,-8300,354,-1,2,0,0
19485992,262,-8301,352,-1,3,0,0
19485997,262,-8300,350,-1,3,0,0
19486002,262,-8299,348,-1,3,0,0
19486007,259,-8299,343,-1,3,0,0
19486012,254,-8298,336,-1,3,0,0
19486017,248,-8299,331,-1,3,0,0
19486022,239,-8296,326,-1,4,0,0
19486027,229,-8296,324,-1,4,0,0
19486032,225,-8297,324,-1,5,0,0
19486037,227,-8299,322,-1,5,0,0
19486042,234,-8301,319,-1,5,0,0
19486047,246,-8303,317,-1,5,0,0
19486052,260,-8297,309,-1,5,0,0
19486057,268,-8297,295,-1,5,0,0
19486062,277,-8300,283,-1,4,0,0
19486067,279,-8300,268,-1,4,0,0
19486072,280,-8296,254,-1,4,0,0
19486077,273,-8296,244,-1,3,0,0
19486082,261,-8297,229,-1,3,0,0
19486087,245,-8298,223,-1,3,0,0
19486092,229,-8299,212,-1,3,0,0
19486097,218,-8298,208,-1,2,0,0
19486102,211,-8296,206,-1,2,0,0
19486107,211,-8295,203,-1,2,0,0
19486112,217,-8295,198,-1,2,0,0
19486117,227,-8293,199,-1,2,0,0
19486122,240,-8293,195,-1,2,0,0
19486127,248,-8293,190,-1,2,0,0
19486132,247,-8290,182,-1,2,0,0
19486137,243,-8291,172,-1,3,0,0
19486142,237,-8294,163,-1,3,0,0
19486147,231,-8296,152,-1,4,0,0
19486152,230,-8295,142,-1,4,0,0
19486157,234,-8296,134,-1,3,0,0
19486162,238,-8296,133,-1,3,0,0
19486167,241,-8299,132,-1,2,0,0
19486172,241,-8300,126,-1,2,0,0
19486177,237,-8301,115,-1,1,0,0
19486182,229,-8302,106,-1,1,0,0
19486187,220,-8299,98,-1,1,0,0
19486192,214,-8299,96,-1,1,0,0
19486197,204,-8298,97,-1,1,0,0
19486202,199,-8296,106,-1,1,0,0
19486207,192,-8300,118,-1,0,0,0
19486212,182,-8300,130,-1,0,0,0
19486217,179,-8299,136,-1,0,0,0
19486222,172,-8298,138,-1,0,0,0
19486227,165,-8299,145,-1,0,0,0
19486232,155,-8302,144,-1,0,0,0
19486237,148,-8304,140,-1,0,0,0
19486242,141,-8305,139,-1,1,0,0
19486247,136,-8306,141,-1,1,0,0
19486252,135,-8306,140,-1,1,0,0
19486257,135,-8306,144,0,1,0,0
19486262,141,-8302,144,0,1,0,0
19486267,150,-8301,149,0,0,0,0
19486272,157,-8301,149,0,0,0,0
19486277,163,-8298,152,0,0,0,0
19486282,173,-8301,156,0,0,0,0
19486287,182,-8302,157,0,0,0,0
19486292,187,-8302,162,0,0,0,0
19486297,192,-8304,168,0,0,0,0
19486302,194,-8303,172,0,0,0,0
19486307,195,-8299,183,0,-1,0,0
19486312,196,-8299,189,0,-1,0,0
19486317,197,-8301,193,0,-1,0,0
19486322,198,-8300,199,0,-1,0,0
19486327,198,-8299,199,0,0,0,0
19486332,197,-8299,203,0,0,0,0
19486337,198,-8300,207,0,-1,0,0
19486342,194,-8299,207,0,-1,0,0
19486347,189,-8300,204,0,-1,0,0
19486352,183,-8298,204,0,0,0,0
19486357,180,-8298,202,0,0,0,0
19486362,181,-8300,209,0,0,0,0
19486367,190,-8299,216,0,0,0,0
19486372,201,-8296,227,0,0,0,0
19486377,215,-8293,237,0,0,0,0
19486382,226,-8294,246,0,0,0,0
19486387,236,-8295,261,0,-1,0,0
19486392,240,-8297,263,0,-1,0,0
19486397,235,-8298,264,0,-1,0,0
19486402,231,-8299,260,0,-1,0,0
19486407,221,-8298,260,0,-1,0,0
19486412,210,-8299,260,0,-1,0,0
19486417,201,-8299,257,0,0,0,0
19486422,195,-8299,251,0,0,0,0
19486427,195,-8298,244,0,0,0,0
19486432,195,-8296,231,0,0,0,0
19486437,198,-8297,216,0,0,0,0
19486442,202,-8298,199,0,0,0,0
19486447,206,-8298,179,0,0,0,0
19486452,208,-8299,159,0,-1,0,0
19486457,208,-8299,145,0,0,0,0
19486462,209,-8303,132,0,0,0,0
19486467,206,-8302,126,0,1,0,0
19486472,201,-8300,128,0,2,0,0
19486477,198,-8302,143,0,2,0,0
19486482,205,-8301,157,0,2,0,0
19486487,206,-8300,169,0,1,0,0
19486492,205,-8301,176,0,0,0,0
19486497,208,-8301,180,0,0,0,0
19486502,212,-8299,182,0,1,0,0
19486507,213,-8300,185,0,0,0,0
19486512,212,-8299,180,0,0,0,0
19486517,204,-8298,168,0,0,0,0
19486522,191,-8296,160,0,0,0,0
19486527,177,-8294,154,0,0,0,0
19486532,164,-8295,151,0,0,0,0
19486537,153,-8297,147,0,-1,-1,0
19486542,149,-8295,150,0,-1,-1,0
19486547,148,-8297,153,0,-1,0,0
19486552,144,-8296,154,0,-2,-1,0
19486557,143,-8295,157,0,-2,-1,0
19486562,146,-8295,163,0,-2,-1,0
19486567,149,-8298,170,0,-3,-1,0
19486572,148,-8301,178,0,-3,-1,0
19486577,146,-8300,184,0,-3,-1,0
19486582,145,-8300,194,0,-3,-1,0
19486587,146,-8304,201,0,-2,-1,0
19486592,149,-8306,213,0,-2,-1,0
19486597,156,-8307,225,0,-1,-1,0
19486602,166,-8308,236,0,-1,-1,0
19486607,180,-8308,243,0,-1,-1,0
19486612,193,-8307,250,0,-1,-1,0
19486617,211,-8305,259,0,-2,-1,0
19486622,226,-8301,263,0,-2,-1,0
19486627,236,-8298,279,0,-2,-1,0
19486632,241,-8297,291,0,-2,-1,0
19486637,245,-8298,294,0,-2,-1,0
19486642,245,-8298,295,0,-2,-1,0
19486647,247,-8296,297,0,-1,-1,0
19486652,246,-8296,300,0,-1,0,0
19486657,244,-8295,298,0,-1,-1,0
19486662,243,-8293,294,0,-1,-1,0
19486667,241,-8293,287,0,-2,0,0
19486672,240,-8290,279,0,-2,-1,0
19486677,240,-8291,283,0,-2,-1,0
19486682,237,-8293,286,0,-2,0,0
19486687,233,-8293,290,0,-2,0,0
19486692,229,-8293,292,0,-2,0,0
19486697,226,-8297,293,0,-2,0,0
19486702,227,-8298,299,0,-2,-1,0
19486707,223,-8298,306,0,-2,-1,0
19486712,218,-8300,307,0,-2,-1,0
19486717,211,-8300,304,0,-1,-1,0
19486722,205,-8301,294,0,-1,0,0
19486727,203,-8302,284,0,-1,0,0
19486732,205,-8304,276,0,-1,0,0
19486737,206,-8304,275,0,-1,0,0
19486742,207,-8306,270,0,-1,0,0
19486747,214,-8306,272,0,0,0,0
19486752,221,-8307,280,0,0,0,0
19486757,230,-8305,292,0,0,0,0
19486762,238,-8304,304,0,0,0,0
19486767,243,-8305,318,0,0,0,0
19486772,247,-8303,328,0,0,0,0
19486777,248,-8304,338,0,0,0,0
19486782,244,-8303,349,0,0,0,0
19486787,239,-8302,356,-1,0,-1,0
19486792,233,-8298,364,-1,0,-1,0
19486797,223,-8299,371,-1,0,-1,0
19486802,210,-8301,371,-1,0,-1,0
19486807,197,-8303,370,-1,0,0,0
19486812,184,-8302,369,-1,0,0,0
19486817,174,-8302,368,-1,0,0,0
19486822,175,-8299,367,-1,0,0,0
19486827,181,-8300,373,-1,0,0,0
19486832,189,-8300,375,-1,0,0,0
19486837,200,-8300,380,-1,0,-1,0
19486842,208,-8297,383,-1,0,0,0
19486847,210,-8295,384,-1,0,-1,0
19486852,211,-8297,377,-1,0,-1,0
19486857,211,-8298,364,-1,1,-1,0
19486862,203,-8300,350,-1,1,-1,0
19486867,191,-8300,337,-1,1,-1,0
19486872,180,-8297,322,-1,2,-1,0
19486877,172,-8297,307,-1,2,-1,0
19486882,167,-8297,292,-1,2,0,0
19486887,172,-8297,275,-1,2,-1,0
19486892,181,-8295,264,-1,2,-1,0
19486897,190,-8296,253,-1,1,-1,0
19486902,194,-8296,247,-1,1,-1,0
19486907,196,-8297,247,-1,1,-1,0
19486912,198,-8297,251,-1,1,-1,0
19486917,195,-8298,248,-1,1,-1,0
19486922,191,-8297,248,-1,1,-1,0
19486927,187,-8298,251,-1,1,-1,0
19486932,180,-8296,252,-1,1,-1,0
19486937,174,-8293,245,-1,1,-1,0
19486942,174,-8293,236,-1,1,-1,0
19486947,176,-8295,218,-1,1,-1,0
19486952,179,-8298,201,-1,1,-1,0
19486957,179,-8298,186,-1,1,-1,0
19486962,181,-8298,179,-1,1,-1,0
19486967,182,-8296,171,-1,1,-1,0
19486972,180,-8297,172,-1,1,-1,0
19486977,182,-8296,178,-1,1,-1,0
19486982,183,-8296,180,-1,0,-1,0
19486987,186,-8297,182,-1,0,-1,0
19486992,187,-8298,183,-1,0,-1,0
19486997,192,-8297,186,-1,0,-1,0
19487002,196,-8300,189,-1,-1,-1,0
19487007,201,-8301,184,-1,-1,-1,0
19487012,205,-8302,178,-1,0,-1,0
19487017,209,-8302,173,-1,0,-1,0
19487022,211,-8302,177,-1,0,-1,0
19487027,214,-8299,182,-1,0,-1,0
19487032,218,-8299,183,-1,0,-1,0
19487037,219,-8302,184,-1,0,-1,0
19487042,219,-8303,184,-1,0,-1,0
19487047,222,-8304,186,-1,0,-1,0
19487052,223,-8304,188,0,0,-1,0
19487057,224,-8305,190,-1,-1,-1,0
19487062,225,-8305,191,0,-1,-1,0
19487067,227,-8304,195,0,-1,-1,0
19487072,226,-8302,204,0,-1,-1,0
19487077,222,-8299,213,0,-1,-1,0
19487082,215,-8296,214,0,0,-1,0
19487087,213,-8295,222,0,0,-1,0
19487092,213,-8291,227,0,0,-1,0
19487097,217,-8290,227,0,0,-1,0
19487102,222,-8290,229,0,0,-1,0
19487107,226,-8289,230,0,0,-1,0
19487112,232,-8290,229,0,0,-1,0
19487117,241,-8289,223,0,0,-1,0
19487122,253,-8291,220,0,0,-1,0
19487127,259,-8293,220,0,-1,-1,0
19487132,262,-8295,219,0,-1,-1,0
19487137,259,-8299,221,0,-1,-1,0
19487142,253,-8301,219,0,-1,-1,0
19487147,241,-8301,220,0,-1,-1,0
19487152,228,-8298,221,0,-1,-1,0
19487157,211,-8298,217,0,-1,-1,0
19487162,197,-8297,209,0,-1,-1,0
19487167,189,-8296,206,0,-1,-1,0
19487172,183,-8297,204,0,0,-1,0
19487177,187,-8298,200,0,0,-1,0
19487182,196,-8298,201,0,0,-1,0
19487187,210,-8297,206,0,0,-1,0
19487192,225,-8296,219,0,0,-1,0
19487197,241,-8297,235,0,-1,-1,0
19487202,254,-8295,247,0,-1,-1,0
19487207,260,-8296,259,0,-1,-1,0
19487212,261,-8295,263,0,-1,-1,0
19487217,258,-8296,265,0,0,-1,0
19487222,251,-8296,265,0,0,-1,0
19487227,243,-8297,253,0,0,-1,0
19487232,237,-8296,245,0,0,-1,0
19487237,234,-8299,235,0,0,-1,0
19487242,232,-8300,231,0,0,-1,0
19487247,237,-8299,225,0,0,-1,0
19487252,245,-8297,215,0,0,-1,0
19487257,250,-8296,211,0,0,-1,0
19487262,254,-8293,209,0,0,-1,0
19487267,253,-8294,205,0,0,-1,0
19487272,251,-8298,198,0,0,-1,0
19487277,246,-8300,194,0,0,0,0
19487282,239,-8301,192,0,0,-1,0
19487287,233,-8300,190,0,0,0,0
19487292,232,-8297,189,0,0,-1,0
19487297,235,-8297,185,0,0,0,0
19487302,243,-8298,183,0,0,0,0
19487307,248,-8299,186,0,-1,0,0
19487312,253,-8297,184,0,-1,0,0
19487317,251,-8297,181,0,-1,-1,0
19487322,246,-8297,184,0,-1,0,0
19487327,241,-8296,190,0,-1,0,0
19487332,236,-8299,196,0,-1,0,0
19487337,235,-8299,201,0,-1,0,0
19487342,239,-8298,209,0,-1,0,0
19487347,247,-8296,216,0,-1,0,0
19487352,256,-8294,222,0,-1,0,0
19487357,263,-8295,225,0,-2,0,0
19487362,267,-8297,224,0,-2,0,0
19487367,270,-8300,219,0,-1,0,0
19487372,273,-8301,214,0,-1,0,0
19487377,278,-8300,214,0,-1,0,0
19487382,283,-8300,212,0,-1,0,0
19487387,287,-8295,220,0,-1,0,0
19487392,289,-8295,230,0,-2,0,0
19487397,291,-8293,239,0,-2,0,0
19487402,288,-8293,247,0,-2,0,0
19487407,286,-8295,251,0,-2,0,0
19487412,283,-8294,258,0,-2,0,0
19487417,277,-8294,260,0,-1,0,0
19487422,279,-8294,263,0,-1,0,0
19487427,285,-8294,264,0,-1,0,0
19487432,289,-8293,269,0,-1,0,0
19487437,293,-8292,276,0,-1,0,0
19487442,295,-8293,285,0,-1,0,0
19487447,294,-8295,290,0,-1,0,0
19487452,296,-8295,299,0,-1,0,0
19487457,294,-8296,306,0,-1,0,0
19487462,291,-8298,309,0,-1,0,0
19487467,291,-8297,312,0,0,0,0
19487472,287,-8296,315,0,0,0,0
19487477,283,-8298,321,0,0,0,0
19487482,277,-8297,324,0,-1,0,0
19487487,272,-8296,326,0,-1,0,0
19487492,265,-8295,322,0,-1,0,0
19487497,255,-8297,322,0,-1,0,0
19487502,252,-8297,324,0,-1,0,0
19487507,248,-8297,322,0,-1,0,0
19487512,243,-8298,323,0,-1,0,0
19487517,236,-8299,327,-1,-1,0,0
19487522,229,-8298,337,-1,-1,0,0
19487527,224,-8299,342,-1,0,0,0
19487532,218,-8299,347,-1,0,0,0
19487537,214,-8302,346,-1,0,0,0
19487542,210,-8303,346,-1,1,0,0
19487547,206,-8305,340,-1,1,0,0
19487552,202,-8306,336,-1,1,0,0
19487557,196,-8305,328,-1,1,0,0
19487562,192,-8306,320,-1,0,0,0
19487567,184,-8305,311,-1,0,0,0
19487572,180,-8306,305,-1,0,0,0
19487577,174,-8306,301,-1,0,0,0
19487582,169,-8306,304,-1,-1,0,0
19487587,166,-8303,303,-1,-1,0,0
19487592,162,-8302,305,-1,-1,0,0
19487597,158,-8301,307,-1,-1,0,0
19487602,158,-8299,312,-1,-1,0,0
19487607,155,-8298,311,-1,-1,0,0
19487612,154,-8296,314,-1,0,0,0
19487617,153,-8298,309,-1,0,0,0
19487622,146,-8299,301,-1,0,0,0
19487627,136,-8300,296,-1,1,0,0
19487632,125,-8300,296,-1,1,0,0
19487637,113,-8302,294,-1,1,0,0
19487642,106,-8300,289,-1,1,0,0
19487647,104,-8301,288,-1,1,0,0
19487652,105,-8300,288,-1,1,0,0
19487657,111,-8301,288,-1,0,0,0
19487662,118,-8304,287,-1,0,0,0
19487667,124,-8303,288,-1,0,0,0
19487672,131,-8301,289,-1,0,0,0
19487677,133,-8301,290,-1,0,0,0
19487682,133,-8302,293,-1,0,0,0
19487687,129,-8301,299,-1,0,-1,0
19487692,126,-8303,311,-1,0,0,0
19487697,125,-8304,321,-1,0,0,0
19487702,125,-8302,328,-1,0,-1,0
19487707,123,-8301,335,-1,0,-1,0
19487712,123,-8302,339,-1,0,-1,0
19487717,125,-8301,339,-1,0,-1,0
19487722,129,-8299,340,-1,0,-1,0
19487727,126,-8301,340,-1,0,-1,0
19487732,124,-8304,340,-1,0,-1,0
19487737,119,-8306,345,-1,0,-1,0
19487742,112,-8305,355,-1,0,-1,0
19487747,108,-8305,363,-1,0,-1,0
19487752,103,-8308,374,-2,0,-1,0
19487757,92,-8309,380,-2,0,-1,0
19487762,80,-8311,392,-2,0,-1,0
19487767,67,-8308,405,-2,0,-1,0
19487772,57,-8306,416,-2,1,-1,0
19487777,46,-8308,430,-2,1,-1,0
19487782,35,-8308,445,-2,1,-1,0
19487787,23,-8307,458,-2,1,-1,0
19487792,17,-8305,474,-2,2,-1,0
19487797,15,-8306,490,-2,2,-1,0
19487802,15,-8306,508,-2,2,-1,0
19487807,20,-8305,523,-2,3,-1,0
19487812,28,-8301,533,-3,3,-1,0
19487817,39,-8302,542,-3,4,-2,0
19487822,47,-8303,540,-3,4,-2,0
19487827,58,-8304,542,-3,4,-2,0
19487832,69,-8302,547,-3,5,-2,0
19487837,79,-8300,553,-3,5,-2,0
19487842,88,-8299,559,-3,5,-2,0
19487847,95,-8301,565,-3,5,-2,0
19487852,100,-8300,559,-3,6,-2,0
19487857,106,-8300,554,-4,6,-2,0
19487862,109,-8300,545,-4,7,-2,0
19487867,118,-8298,529,-4,8,-2,0
19487872,131,-8298,515,-4,8,-2,0
19487877,144,-8298,502,-4,8,-2,0
19487882,158,-8298,487,-4,9,-2,0
19487887,173,-8297,477,-4,9,-2,0
19487892,191,-8298,463,-4,9,-2,0
19487897,208,-8296,449,-4,8,-2,0
19487902,222,-8297,427,-4,8,-2,0
19487907,233,-8297,408,-4,7,-2,0
19487912,243,-8298,384,-4,6,-2,0
19487917,254,-8297,355,-4,6,-2,0
19487922,266,-8298,327,-4,6,-2,0
19487927,278,-8297,301,-4,6,-2,0
19487932,293,-8299,273,-4,7,-2,0
19487937,317,-8297,241,-4,7,-1,0
19487942,345,-8297,213,-4,7,-1,0
19487947,376,-8295,182,-4,7,-1,0
19487952,412,-8294,152,-4,7,-1,0
19487957,448,-8296,128,-4,7,-1,0
19487962,488,-8297,103,-4,6,-1,0
19487967,527,-8295,81,-4,6,-1,0
19487972,563,-8293,60,-4,5,-1,0
19487977,597,-8292,39,-4,5,-1,0
19487982,632,-8293,19,-4,5,0,0
19487987,666,-8293,6,-4,4,0,0
19487992,698,-8295,-2,-4,4,0,0
19487997,724,-8294,-3,-4,3,0,0
19488002,749,-8295,-5,-4,3,0,0
19488007,772,-8293,-10,-4,2,1,0
19488012,793,-8293,-18,-4,2,1,0
19488017,809,-8294,-29,-4,2,1,0
19488022,820,-8296,-45,-4,1,1,0
19488027,828,-8297,-66,-3,1,1,0
19488032,833,-8295,-80,-3,0,1,0
19488037,843,-8297,-88,-3,-1,2,0
19488042,857,-8297,-87,-3,-1,2,0
19488047,877,-8297,-84,-3,-2,2,0
19488052,897,-8294,-78,-3,-3,2,0
19488057,916,-8292,-71,-3,-4,3,0
19488062,933,-8294,-69,-3,-5,3,0
19488067,945,-8292,-70,-3,-6,3,0
19488072,949,-8291,-79,-3,-7,3,0
19488077,948,-8289,-93,-3,-8,3,0
19488082,946,-8288,-111,-3,-9,4,0
19488087,942,-8287,-129,-3,-11,4,0
19488092,936,-8288,-139,-3,-13,4,0
19488097,933,-8287,-153,-3,-15,4,0
19488102,926,-8286,-167,-3,-17,4,0
19488107,911,-8287,-173,-2,-18,5,0
19488112,890,-8287,-175,-2,-20,5,0
19488117,855,-8284,-177,-2,-21,5,0
19488122,809,-8283,-179,-2,-22,5,0
19488127,746,-8283,-187,-2,-21,5,0
19488132,673,-8284,-190,-2,-20,5,0
19488137,599,-8282,-198,-2,-19,5,0
19488142,529,-8285,-196,-2,-20,5,0
19488147,460,-8288,-194,-2,-20,5,0
19488152,406,-8286,-198,-2,-20,5,0
19488157,360,-8285,-196,-2,-19,6,0
19488162,320,-8287,-190,-2,-18,5,0
19488167,292,-8284,-178,-2,-16,5,0
19488172,264,-8283,-166,-2,-14,5,0
19488177,230,-8285,-153,-2,-12,5,0
19488182,191,-8285,-146,-2,-11,5,0
19488187,146,-8284,-132,-2,-8,5,0
19488192,103,-8281,-122,-1,-6,5,0
19488197,67,-8280,-113,-1,-4,5,0
19488202,43,-8281,-101,-1,-2,5,0
19488207,25,-8282,-90,-1,0,5,0
19488212,11,-8284,-80,-1,2,5,0
19488217,0,-8285,-73,-1,3,5,0
19488222,-17,-8286,-73,-1,4,5,0
19488227,-37,-8287,-74,-1,5,5,0
19488232,-66,-8285,-74,-1,6,5,0
19488237,-95,-8286,-86,-1,6,5,0
19488242,-133,-8288,-96,-1,6,5,0
19488247,-169,-8287,-111,-1,6,5,0
19488252,-204,-8288,-126,-1,6,5,0
19488257,-236,-8285,-144,-1,5,5,0
19488262,-269,-8284,-162,-1,5,4,0
19488267,-305,-8280,-173,-1,5,4,0
19488272,-337,-8277,-183,-1,5,4,0
19488277,-365,-8277,-196,-1,5,4,0
19488282,-390,-8278,-203,-1,5,4,0
19488287,-410,-8279,-210,-1,5,4,0
19488292,-425,-8281,-206,-1,5,3,0
19488297,-441,-8283,-201,-1,4,3,0
19488302,-456,-8284,-197,-1,4,3,0
19488307,-476,-8286,-197,-1,3,3,0
19488312,-499,-8288,-199,-1,2,3,0
19488317,-523,-8288,-205,0,1,3,0
19488322,-542,-8290,-209,0,0,2,0
19488327,-565,-8292,-213,0,0,2,0
19488332,-584,-8291,-216,0,-1,2,0
19488337,-600,-8290,-214,0,-1,2,0
19488342,-612,-8290,-201,0,-1,2,0
19488347,-629,-8291,-183,0,-1,1,0
19488352,-648,-8292,-166,0,-1,1,0
19488357,-667,-8292,-145,0,0,1,0
19488362,-681,-8291,-118,0,0,1,0
19488367,-696,-8291,-96,0,0,1,0
19488372,-711,-8292,-81,0,0,0,0
19488377,-731,-8296,-76,0,0,0,0
19488382,-749,-8299,-75,0,0,0,0
19488387,-773,-8299,-74,0,-1,0,0
19488392,-801,-8299,-71,0,-1,-1,0
19488397,-834,-8299,-65,0,-2,-1,0
19488402,-876,-8298,-52,0,-2,-1,0
19488407,-924,-8298,-34,0,-2,-1,0
19488412,-975,-8300,-10,0,-2,-2,0
19488417,-1029,-8299,21,0,-2,-2,0
19488422,-1090,-8300,53,0,-2,-3,0
19488427,-1157,-8301,84,0,-3,-3,0
19488432,-1220,-8300,108,0,-3,-4,0
19488437,-1288,-8300,130,0,-3,-4,0
19488442,-1357,-8301,148,-1,-3,-4,0
19488447,-1423,-8303,165,-1,-4,-5,0
19488452,-1492,-8304,183,-1,-5,-5,0
19488457,-1559,-8305,199,-1,-5,-6,0
19488462,-1623,-8305,215,-1,-5,-7,0
19488467,-1682,-8306,229,-1,-4,-7,0
19488472,-1737,-8304,245,-1,-4,-8,0
19488477,-1786,-8302,258,-1,-4,-8,0
19488482,-1827,-8299,270,-1,-4,-9,0
19488487,-1862,-8297,276,-2,-4,-10,0
19488492,-1890,-8297,281,-2,-4,-10,0
19488497,-1911,-8295,281,-2,-4,-11,0
19488502,-1918,-8291,279,-2,-4,-11,0
19488507,-1919,-8288,283,-2,-4,-12,0
19488512,-1918,-8286,282,-2,-5,-12,0
19488517,-1919,-8284,282,-2,-6,-13,0
19488522,-1924,-8281,281,-2,-7,-14,0
19488527,-1938,-8276,281,-2,-7,-14,0
19488532,-1956,-8271,276,-2,-8,-15,0
19488537,-1973,-8266,267,-2,-8,-16,0
19488542,-1985,-8261,252,-3,-8,-16,0
19488547,-1988,-8255,229,-3,-8,-17,0
19488552,-1972,-8247,197,-3,-7,-17,0
19488557,-1938,-8238,157,-3,-7,-18,0
19488562,-1875,-8227,110,-3,-6,-18,0
19488567,-1787,-8218,59,-3,-6,-19,0
19488572,-1676,-8206,0,-2,-7,-19,0
19488578,-1552,-8198,-65,-2,-8,-20,0
19488582,-1423,-8190,-135,-2,-9,-20,0
19488587,-1290,-8183,-202,-2,-11,-20,0
19488593,-1160,-8178,-258,-2,-13,-21,0
19488597,-1039,-8174,-307,-2,-15,-21,0
19488603,-928,-8170,-345,-2,-18,-21,0
19488607,-827,-8165,-375,-2,-20,-22,0
19488612,-743,-8160,-399,-2,-21,-22,0
19488618,-673,-8153,-418,-2,-22,-22,0
19488622,-612,-8145,-442,-2,-22,-22,0
19488627,-556,-8140,-476,-1,-21,-22,0
19488632,-498,-8138,-525,-1,-19,-23,0
19488637,-432,-8136,-578,-1,-16,-23,0
19488642,-360,-8134,-648,-1,-14,-23,0
19488648,-276,-8132,-731,0,-13,-23,0
19488653,-178,-8128,-822,0,-12,-23,0
19488657,-75,-8125,-934,0,-12,-23,0
19488662,22,-8123,-1058,1,-12,-23,0
19488668,122,-8123,-1193,1,-12,-23,0
19488672,230,-8124,-1317,2,-12,-23,0
19488677,345,-8123,-1454,2,-12,-23,0
19488683,479,-8123,-1598,3,-12,-23,0
19488688,624,-8118,-1723,3,-14,-23,0
19488692,770,-8117,-1835,4,-15,-22,0
19488698,936,-8114,-1939,5,-16,-22,0
19488703,1110,-8111,-2031,6,-17,-22,0
19488708,1279,-8107,-2123,7,-18,-21,0
19488713,1446,-8100,-2202,7,-18,-21,0
19488717,1626,-8096,-2268,8,-19,-20,0
19488723,1812,-8089,-2335,9,-20,-19,0
19488728,1990,-8084,-2411,10,-23,-18,0
19488733,2162,-8079,-2490,11,-26,-18,0
19488738,2328,-8081,-2567,12,-28,-17,0
19488743,2488,-8079,-2649,13,-30,-16,0
19488748,2641,-8078,-2745,14,-32,-14,0
19488753,2792,-8077,-2830,15,-33,-13,0
19488758,2941,-8080,-2901,15,-34,-12,0
19488762,3087,-8091,-2939,16,-36,-10,0
19488767,3207,-8086,-2931,16,-37,-11,0
19488772,3261,-8074,-2856,17,-38,-12,0
19488778,3433,-8050,-2759,17,-38,-14,0
19488783,4021,-8064,-2895,19,-31,-10,0
19488788,4308,-8059,-2932,21,-23,-7,0
19488793,4589,-8053,-2859,22,-34,-6,0
19488798,4909,-8043,-2939,22,-40,-6,0
19488803,5115,-8029,-3026,23,-35,-5,0
19488808,5195,-8033,-2979,23,-32,-5,0
19488813,5158,-8028,-2937,24,-32,-4,0
19488818,5084,-8024,-2855,24,-29,-3,0
19488822,4962,-8015,-2704,25,-26,-2,0
19488827,4802,-8004,-2535,26,-27,0,0
19488833,4730,-7993,-2377,27,-31,1,0
19488838,4692,-7977,-2261,28,-33,3,0
19488842,4716,-7960,-2150,29,-36,4,0
19488848,4827,-7948,-2074,29,-40,5,0
19488853,4940,-7939,-2029,30,-43,6,0
19488858,5027,-7925,-1934,30,-43,7,0
19488863,5096,-7910,-1804,30,-41,8,0
19488868,5140,-7889,-1623,30,-35,9,0
19488873,5140,-7871,-1351,30,-29,9,0
19488878,5115,-7850,-1042,30,-24,10,0
19488883,5078,-7831,-724,30,-20,11,0
19488888,5033,-7815,-387,29,-18,13,0
19488893,4991,-7803,-50,29,-17,14,0
19488898,4952,-7789,259,28,-17,15,0
19488903,4902,-7778,538,28,-17,16,0
19488908,4853,-7769,782,27,-16,17,0
19488913,4787,-7762,1048,26,-15,18,0
19488918,4725,-7757,1344,25,-14,18,0
19488923,4655,-7742,1646,25,-14,19,0
19488928,4564,-7722,1923,25,-17,20,0
19488933,4480,-7716,2171,26,-19,21,0
19488938,4364,-7727,2673,25,-23,22,0
19488943,4158,-7736,3184,23,-25,23,0
19488948,3969,-7733,3579,22,-27,23,0
19488953,3818,-7728,3935,21,-25,24,0
19488958,3662,-7730,4262,20,-19,25,0
19488963,3520,-7737,4568,19,-15,26,0
19488968,3388,-7747,4804,18,-12,26,0
19488973,3273,-7755,4970,17,-7,27,0
19488978,3156,-7763,5110,15,1,27,0
19488983,3043,-7773,5223,14,10,28,0
19488988,2957,-7780,5306,12,18,28,0
19488993,2877,-7782,5357,11,25,29,0
19488998,2781,-7786,5410,9,29,29,0
19489003,2663,-7794,5480,8,32,30,0
19489008,2528,-7798,5520,6,33,30,0
19489013,2382,-7797,5533,5,34,30,0
19489018,2214,-7799,5532,4,33,30,0
19489023,2004,-7805,5534,2,32,31,0
19489028,1739,-7821,5610,1,30,31,0
19489033,1426,-7831,5746,-2,26,30,0
19489038,1139,-7830,5841,-4,23,30,0
19489043,868,-7829,5944,-5,21,30,0
19489048,623,-7826,6065,-6,21,30,0
19489053,420,-7827,6164,-7,21,31,0
19489058,280,-7829,6227,-9,21,31,0
19489063,189,-7827,6269,-10,24,31,0
19489068,117,-7824,6294,-12,29,30,0
19489073,78,-7825,6295,-14,34,30,0
19489078,46,-7821,6301,-16,40,30,0
19489083,-18,-7814,6328,-17,48,29,0
19489088,-93,-7805,6365,-19,56,29,0
19489093,-196,-7792,6393,-21,65,29,0
19489098,-340,-7779,6412,-23,73,28,0
19489103,-489,-7763,6382,-24,81,28,0
19489108,-629,-7747,6294,-26,90,27,0
19489113,-750,-7728,6134,-27,97,26,0
19489118,-833,-7714,5886,-28,103,25,0
19489123,-930,-7696,5574,-30,109,24,0
19489128,-1003,-7685,5220,-31,111,23,0
19489133,-1077,-7679,4867,-32,113,23,0
19489138,-1143,-7670,4519,-34,114,23,0
19489143,-1259,-7655,4184,-35,113,23,0
19489148,-1502,-7649,3909,-36,110,21,0
19489153,-1643,-7639,3677,-37,105,19,0
19489158,-1786,-7624,3430,-37,107,17,0
19489163,-1932,-7610,3224,-37,109,16,0
19489168,-2043,-7599,3011,-37,110,16,0
19489173,-2109,-7581,2736,-37,111,15,0
19489178,-2112,-7569,2429,-37,112,14,0
19489183,-2094,-7559,2083,-37,115,13,0
19489188,-2028,-7562,1770,-37,118,12,0
19489193,-1918,-7549,1390,-38,120,11,0
19489198,-1823,-7561,973,-38,120,11,0
19489203,-1740,-7588,598,-39,115,10,0
19489208,-1866,-7594,94,-39,111,9,0
19489213,-2047,-7605,-422,-38,100,7,0
19489218,-2180,-7603,-794,-37,92,5,0
19489223,-2436,-7621,-1205,-36,91,4,0
19489228,-2681,-7644,-1545,-36,85,4,0
19489233,-2905,-7665,-1854,-35,80,2,0
19489238,-3123,-7686,-2170,-34,75,1,0
19489243,-3335,-7705,-2440,-33,71,0,0
19489248,-3521,-7727,-2702,-32,67,-1,0
19489253,-3659,-7748,-2952,-31,60,-3,0
19489258,-3801,-7770,-3176,-29,53,-4,0
19489263,-3938,-7793,-3383,-28,43,-6,0
19489268,-4056,-7815,-3569,-27,34,-7,0
19489273,-4202,-7838,-3714,-26,28,-9,0
19489278,-4337,-7856,-3814,-25,23,-10,0
19489283,-4454,-7871,-3883,-24,20,-11,0
19489288,-4581,-7891,-3922,-23,18,-13,0
19489293,-4684,-7903,-3943,-22,15,-14,0
19489298,-4762,-7913,-3955,-21,13,-15,0
19489303,-4826,-7923,-3959,-20,11,-17,0
19489308,-4859,-7933,-3970,-19,9,-18,0
19489313,-4864,-7939,-3998,-18,8,-19,0
19489318,-4851,-7944,-4034,-16,7,-20,0
19489323,-4806,-7945,-4076,-15,5,-22,0
19489328,-4738,-7943,-4120,-14,4,-23,0
19489333,-4670,-7941,-4186,-13,2,-24,0
19489338,-4596,-7938,-4261,-12,0,-25,0
19489343,-4529,-7936,-4335,-11,-2,-27,0
19489348,-4467,-7930,-4390,-10,-4,-28,0
19489353,-4400,-7923,-4456,-9,-7,-29,0
19489358,-4317,-7911,-4512,-8,-10,-30,0
19489363,-4219,-7901,-4558,-7,-14,-31,0
19489368,-4105,-7885,-4606,-6,-19,-32,0
19489373,-3961,-7870,-4666,-4,-23,-32,0
19489378,-3794,-7854,-4736,-3,-28,-33,0
19489383,-3618,-7838,-4806,-2,-33,-34,0
19489388,-3429,-7823,-4892,0,-38,-35,0
19489393,-3233,-7806,-5001,1,-42,-35,0
19489398,-3021,-7798,-5137,2,-46,-36,0
19489403,-2800,-7800,-5177,3,-48,-36,0
19489408,-2606,-7786,-5259,4,-48,-37,0
19489413,-2367,-7763,-5364,5,-49,-37,0
19489418,-2100,-7740,-5429,6,-48,-38,0
19489423,-1843,-7719,-5460,7,-46,-38,0
19489428,-1588,-7704,-5420,8,-45,-38,0
19489433,-1330,-7688,-5340,9,-44,-38,0
19489438,-1058,-7671,-5284,10,-44,-38,0
19489443,-758,-7653,-5259,12,-44,-38,0
19489448,-462,-7641,-5228,13,-45,-37,0
19489453,-201,-7627,-5213,14,-48,-37,0
19489458,39,-7620,-5216,15,-52,-37,0
19489463,270,-7615,-5216,16,-56,-37,0
19489468,495,-7609,-5200,16,-58,-37,0
19489473,711,-7602,-5132,17,-60,-36,0
19489478,908,-7592,-5014,18,-62,-36,0
19489483,1077,-7586,-4849,19,-64,-35,0
19489488,1261,-7576,-4680,20,-65,-35,0
19489493,1458,-7569,-4525,21,-64,-33,0
19489498,1593,-7569,-4354,21,-60,-32,0
19489503,1744,-7566,-4203,22,-54,-33,0
19489508,1965,-7564,-4081,22,-43,-33,0
19489513,2220,-7564,-3947,22,-29,-33,0
19489518,2434,-7568,-3778,22,-18,-33,0
19489523,2733,-7570,-3580,23,-11,-32,0
19489528,3101,-7574,-3341,23,-3,-30,0
19489533,3327,-7581,-3122,24,2,-28,0
19489538,3562,-7589,-2915,25,1,-27,0
19489543,3796,-7596,-2748,25,-2,-27,0
19489548,3954,-7608,-2634,26,-6,-26,0
19489553,4043,-7623,-2527,27,-11,-26,0
19489558,4101,-7641,-2458,27,-19,-25,0
19489563,4148,-7660,-2362,27,-29,-23,0
19489568,4148,-7672,-2218,27,-36,-22,0
19489573,4179,-7685,-2034,27,-43,-20,0
19489578,4225,-7701,-1855,27,-50,-20,0
19489583,4250,-7711,-1679,28,-58,-19,0
19489588,4340,-7731,-1437,28,-66,-19,0
19489593,4693,-7754,-1006,27,-70,-16,0
19489598,4943,-7765,-670,26,-65,-13,0
19489603,5243,-7777,-335,25,-64,-12,0
19489608,5684,-7790,61,24,-65,-11,0
19489613,6086,-7805,410,23,-63,-9,0
19489618,6428,-7822,751,22,-62,-8,0
19489623,6718,-7840,1078,21,-61,-7,0
19489628,6918,-7858,1401,20,-57,-6,0
19489633,7012,-7881,1730,19,-51,-4,0
19489638,7022,-7904,2072,18,-41,-3,0
19489643,6944,-7921,2388,17,-29,-1,0
19489648,6813,-7941,2687,16,-16,0,0
19489653,6667,-7958,3007,16,-4,2,0
19489658,6485,-7968,3262,15,4,4,0
19489663,6350,-7983,3456,14,8,6,0
19489668,6281,-7999,3601,13,8,8,0
19489673,6252,-8018,3671,13,2,10,0
19489678,6249,-8036,3686,12,-4,11,0
19489683,6252,-8050,3670,11,-8,13,0
19489688,6275,-8061,3644,9,-8,15,0
19489693,6297,-8068,3642,8,-6,16,0
19489698,6302,-8067,3676,7,-2,17,0
19489703,6275,-8061,3755,5,2,18,0
19489708,6188,-8055,3853,4,6,19,0
19489713,6056,-8048,3954,3,10,21,0
19489718,5889,-8039,4041,2,16,22,0
19489723,5692,-8033,4096,1,23,23,0
19489728,5493,-8030,4103,0,28,25,0
19489733,5300,-8020,4047,-1,31,26,0
19489738,5089,-8012,3937,-2,32,27,0
19489743,4848,-8007,3778,-2,33,28,0
19489748,4599,-8000,3584,-3,36,28,0
19489753,4354,-7996,3378,-4,38,29,0
19489758,4085,-7996,3161,-5,36,29,0
19489763,3765,-7992,2943,-6,34,30,0
19489768,3410,-7990,2732,-7,32,30,0
19489773,3039,-7980,2522,-7,32,30,0
19489778,2675,-7968,2312,-7,31,30,0
19489783,2313,-7955,2099,-8,28,30,0
19489788,1957,-7944,1868,-8,26,30,0
19489793,1612,-7942,1628,-8,24,30,0
19489798,1292,-7943,1390,-8,23,30,0
19489803,999,-7942,1135,-8,21,30,0
19489808,717,-7941,869,-8,21,30,0
19489813,460,-7942,624,-8,23,30,0
19489818,234,-7943,409,-8,26,29,0
19489823,32,-7944,225,-8,27,29,0
19489828,-155,-7942,56,-8,27,28,0
19489833,-367,-7948,-99,-8,27,27,0
19489838,-598,-7953,-227,-7,26,26,0
19489843,-817,-7962,-332,-7,27,24,0
19489848,-969,-7969,-432,-6,29,22,0
19489853,-1109,-7972,-514,-6,32,21,0
19489858,-1287,-7978,-553,-5,32,20,0
19489863,-1501,-7982,-555,-3,28,19,0
19489868,-1757,-7984,-660,-3,23,19,0
19489873,-2025,-8013,-768,-3,17,19,0
19489878,-2423,-8037,-916,-4,15,20,0
19489883,-3118,-8099,-1177,-4,10,17,0
19489888,-3515,-8131,-1255,-4,1,14,0
19489893,-3857,-8154,-1355,-4,10,14,0
19489898,-4166,-8174,-1389,-4,16,14,0
19489903,-4321,-8184,-1302,-4,14,13,0
19489908,-4357,-8194,-1283,-3,13,12,0
19489913,-4264,-8197,-1235,-3,10,11,0
19489918,-4147,-8209,-1171,-2,8,10,0
19489923,-3950,-8223,-1147,-1,4,8,0
19489928,-3728,-8234,-1147,-1,0,7,0
19489933,-3608,-8248,-1154,0,-3,6,0
19489938,-3490,-8258,-1145,0,-6,4,0
19489943,-3413,-8267,-1135,0,-4,3,0
19489948,-3391,-8276,-1080,0,-2,3,0
19489953,-3350,-8280,-1005,0,-2,2,0
19489958,-3313,-8286,-934,0,-1,1,0
19489963,-3273,-8289,-840,1,-2,1,0
19489968,-3193,-8290,-775,1,-3,0,0
19489973,-3088,-8291,-743,1,-3,-1,0
19489978,-2953,-8292,-717,2,-4,-1,0
19489983,-2783,-8294,-718,2,-5,-2,0
19489988,-2598,-8294,-718,2,-6,-2,0
19489993,-2405,-8295,-714,2,-7,-3,0
19489998,-2196,-8295,-706,2,-9,-3,0
19490003,-1991,-8296,-674,2,-11,-3,0
19490008,-1793,-8293,-625,2,-13,-4,0
19490013,-1607,-8291,-568,2,-16,-4,0
19490018,-1441,-8288,-497,2,-17,-4,0
19490023,-1291,-8283,-431,2,-18,-4,0
19490028,-1150,-8283,-368,3,-17,-4,0
19490033,-995,-8285,-297,3,-15,-4,0
19490038,-742,-8288,-102,3,-13,-5,0
19490043,-628,-8297,-90,3,-8,-5,0
19490048,-579,-8303,-117,3,-12,-5,0
19490053,-517,-8305,-86,3,-11,-4,0
19490058,-487,-8308,-103,2,-4,-4,0
19490063,-419,-8305,-69,2,-4,-4,0
19490068,-342,-8304,-9,2,-3,-3,0
19490073,-172,-8300,76,2,-2,-4,0
19490078,-41,-8297,148,2,-1,-4,0
19490083,15,-8295,208,2,-4,-4,0
19490088,99,-8292,271,2,-7,-3,0
19490093,157,-8288,292,2,-6,-3,0
19490098,192,-8286,319,2,-6,-3,0
19490103,239,-8284,323,2,-6,-3,0
19490108,280,-8284,311,2,-4,-3,0
19490113,333,-8283,313,2,-3,-3,0
19490118,394,-8281,323,2,-3,-2,0
19490123,447,-8281,338,1,-3,-2,0
19490128,484,-8277,367,1,-3,-2,0
19490133,511,-8276,398,1,-3,-2,0
19490138,536,-8279,442,1,-3,-2,0
19490143,546,-8280,474,1,-2,-2,0
19490148,553,-8277,509,1,-2,-1,0
19490153,549,-8275,531,1,-1,-1,0
19490158,541,-8277,534,1,0,-1,0
19490163,540,-8276,540,1,1,-1,0
19490168,525,-8278,538,1,2,-1,0
19490173,507,-8279,523,0,2,0,0
19490178,491,-8277,514,0,2,0,0
19490183,466,-8277,501,0,2,0,0
19490188,437,-8281,494,0,1,0,0
19490193,408,-8280,485,0,1,0,0
19490198,375,-8282,482,0,1,0,0
19490203,343,-8284,482,0,0,0,0
19490208,311,-8286,491,0,0,0,0
19490213,282,-8286,499,0,0,0,0
19490218,253,-8287,504,-1,-1,0,0
19490223,232,-8287,512,-1,0,1,0
19490228,210,-8286,515,-1,1,1,0
19490233,188,-8283,525,-1,2,1,0
19490238,178,-8282,532,-1,4,1,0
19490243,164,-8281,533,-1,5,1,0
19490248,151,-8282,530,-1,6,1,0
19490253,140,-8281,529,-1,6,1,0
19490258,122,-8280,513,-1,7,1,0
19490263,116,-8278,500,-1,6,1,0
19490268,112,-8278,487,-2,6,1,0
19490273,103,-8278,471,-2,6,1,0
19490278,105,-8279,452,-2,5,1,0
19490283,109,-8279,426,-2,5,1,0
19490288,106,-8279,403,-2,4,1,0
19490293,105,-8279,377,-2,3,1,0
19490298,100,-8282,347,-2,3,1,0
19490303,93,-8282,321,-2,3,1,0
19490308,90,-8285,298,-2,3,1,0
19490313,86,-8283,279,-2,2,1,0
19490318,75,-8283,264,-2,1,1,0
19490323,61,-8282,249,-2,1,1,0
19490328,43,-8281,240,-2,1,1,0
19490333,17,-8283,232,-2,2,1,0
19490338,-2,-8281,222,-2,3,1,0
19490343,-23,-8280,213,-2,3,1,0
19490348,-49,-8279,203,-2,4,1,0
19490353,-72,-8278,195,-2,5,1,0
19490358,-93,-8280,180,-2,6,1,0
19490363,-110,-8279,164,-2,6,1,0
19490368,-120,-8281,141,-2,6,1,0
19490373,-135,-8282,113,-2,5,1,0
19490378,-156,-8284,80,-2,4,1,0
19490383,-176,-8287,48,-2,3,1,0
19490388,-200,-8285,20,-2,2,1,0
19490393,-221,-8286,1,-2,1,1,0
19490398,-241,-8285,-21,-1,0,1,0
19490403,-261,-8285,-39,-1,0,1,0
19490408,-275,-8286,-55,-1,-1,1,0
19490413,-288,-8284,-60,-1,-1,1,0
19490418,-293,-8282,-73,-1,-1,1,0
19490423,-299,-8282,-85,-1,-2,1,0
19490428,-319,-8284,-98,-1,-2,1,0
19490433,-330,-8287,-108,-1,-1,0,0
19490438,-334,-8291,-119,-1,0,0,0
19490443,-327,-8290,-125,-1,1,0,0
19490448,-324,-8288,-127,-1,1,0,0
19490453,-329,-8288,-132,-1,0,0,0
19490458,-340,-8286,-127,-1,0,0,0
19490463,-347,-8285,-123,0,1,0,0
19490468,-354,-8281,-111,0,0,0,0
19490473,-364,-8281,-99,0,0,0,0
19490478,-373,-8283,-89,0,-1,0,0
19490483,-381,-8287,-83,0,-1,0,0
19490488,-385,-8290,-81,0,-1,0,0
19490493,-379,-8291,-78,0,-1,0,0
19490498,-367,-8291,-77,0,-1,0,0
19490503,-354,-8288,-72,0,-2,0,0
19490508,-333,-8289,-62,0,-2,-1,0
19490513,-312,-8289,-52,0,-2,-1,0
19490518,-290,-8287,-31,0,-2,-1,0
19490523,-265,-8289,-7,0,-2,-1,0
19490528,-243,-8290,16,0,-2,-1,0
19490533,-220,-8290,45,0,-1,-1,0
19490538,-201,-8290,69,0,-1,-1,0
19490543,-187,-8291,92,0,-1,0,0
19490548,-170,-8291,115,0,0,-1,0
19490553,-159,-8291,135,0,0,-1,0
19490558,-151,-8291,150,0,1,0,0
19490563,-145,-8292,163,0,1,0,0
19490568,-141,-8293,171,0,1,0,0
19490573,-140,-8293,180,0,1,-1,0
19490578,-141,-8291,193,0,0,-1,0
19490583,-139,-8292,197,0,0,-1,0
19490588,-139,-8292,198,0,0,0,0
19490593,-133,-8289,203,0,0,0,0
19490598,-125,-8289,203,0,-1,0,0
19490603,-112,-8288,208,0,-1,0,0
19490608,-98,-8284,212,0,-1,0,0
19490613,-81,-8283,219,0,-1,0,0
19490618,-69,-8279,220,-1,-1,0,0
19490623,-56,-8276,224,-1,-1,0,0
19490628,-47,-8276,227,-1,-1,0,0
19490633,-42,-8277,236,-1,-1,0,0
19490638,-39,-8278,240,-1,0,0,0
19490643,-39,-8281,244,-1,0,0,0
19490648,-43,-8281,249,-1,1,0,0
19490653,-46,-8283,253,-1,1,0,0
19490658,-51,-8284,249,-1,2,0,0
19490663,-54,-8282,243,-1,2,0,0
19490668,-57,-8281,242,-1,3,0,0
19490673,-60,-8280,235,-1,3,0,0
19490678,-64,-8278,228,-1,4,0,0
19490683,-67,-8276,222,-1,4,0,0
19490688,-69,-8277,213,-1,4,0,0
19490693,-75,-8278,209,-1,4,0,0
19490698,-81,-8279,203,-1,4,0,0
19490703,-88,-8277,185,-1,4,0,0
19490708,-96,-8275,167,-1,4,0,0
19490713,-102,-8274,140,-1,4,0,0
19490718,-107,-8275,122,-1,4,0,0
19490723,-112,-8275,109,-1,4,0,0
19490728,-118,-8277,93,-1,3,0,0
19490733,-123,-8277,76,-1,3,0,0
19490738,-129,-8276,65,-1,3,0,0
19490743,-130,-8276,59,-1,3,0,0
19490748,-132,-8277,51,-1,2,0,0
19490753,-134,-8278,44,-1,2,0,0
19490758,-136,-8276,38,-1,1,0,0
19490763,-143,-8275,31,-1,1,0,0
19490768,-149,-8276,31,-1,1,0,0
19490773,-151,-8277,30,-1,2,0,0
19490778,-158,-8276,33,-1,2,0,0
19490783,-166,-8278,35,-1,2,0,0
19490788,-174,-8281,32,-1,1,0,0
19490793,-183,-8283,31,-1,1,0,0
19490798,-196,-8284,28,0,0,0,0
19490803,-211,-8282,24,0,0,0,0
19490808,-223,-8282,20,0,0,0,0
19490813,-230,-8282,18,0,0,0,0
19490818,-235,-8284,17,0,0,0,0
19490823,-238,-8286,19,0,0,0,0
19490828,-238,-8287,26,0,0,0,0
19490833,-241,-8287,33,0,0,0,0
19490838,-240,-8287,44,0,0,0,0
19490843,-238,-8282,53,0,0,0,0
19490848,-235,-8283,65,0,0,0,0
19490853,-234,-8281,66,0,0,0,0
19490858,-212,-8277,88,0,0,0,0
19490863,-189,-8276,90,0,1,-1,0
19490868,-197,-8278,59,0,0,0,0
19490873,-197,-8278,57,0,-1,0,0
19490878,-206,-8279,33,0,0,0,0
19490883,-214,-8280,28,0,-1,0,0
19490888,-210,-8281,34,0,0,0,0
19490893,-203,-8281,42,0,1,0,0
19490898,-189,-8279,57,0,0,0,0
19490903,-189,-8281,66,0,-1,0,0
19490908,-193,-8281,73,0,-2,-1,0
19490913,-201,-8281,73,0,-2,-1,0
19490918,-217,-8282,70,0,-1,-1,0
19490923,-225,-8280,70,0,-1,-1,0
19490928,-236,-8282,65,0,-1,-1,0
19490933,-247,-8282,61,0,-1,-1,0
19490938,-253,-8282,59,0,-1,-1,0
19490943,-258,-8282,67,0,-1,-1,0
19490948,-260,-8281,76,0,-1,-1,0
19490953,-259,-8281,84,0,-1,-1,0
19490958,-255,-8280,93,0,-1,-1,0
19490963,-254,-8279,102,0,-1,-1,0
19490968,-252,-8279,113,0,0,-1,0
19490973,-243,-8278,128,0,0,-1,0
19490978,-229,-8280,140,0,0,-1,0
19490983,-214,-8278,153,0,0,-1,0
19490988,-198,-8275,166,0,-1,-1,0
19490993,-183,-8275,171,0,-1,-1,0
19490998,-169,-8275,182,0,0,-1,0
19491003,-162,-8279,184,0,-1,-1,0
19491008,-162,-8282,178,0,-1,-1,0
19491013,-163,-8285,170,0,-1,-1,0
19491018,-167,-8284,158,0,-1,-1,0
19491023,-171,-8284,149,0,-1,-1,0
19491028,-176,-8282,136,0,-1,-1,0
19491033,-180,-8283,120,0,-1,-1,0
19491038,-181,-8282,110,0,-1,-1,0
19491043,-180,-8280,103,0,-1,-1,0
19491048,-181,-8278,101,0,-2,-1,0
19491053,-181,-8282,101,0,-2,-1,0
19491058,-178,-8283,89,0,-2,-1,0
19491063,-175,-8282,84,0,-2,-1,0
19491068,-174,-8281,83,0,-2,-1,0
19491073,-171,-8278,84,0,-2,-1,0
19491078,-169,-8278,82,0,-2,-1,8
19491083,-162,-8276,81,0,-2,-1,8
19491088,-156,-8274,81,0,-1,-1,8
19491093,-151,-8273,90,0,-1,-1,8
19491098,-143,-8274,101,0,-1,-1,8
19491103,-131,-8274,109,0,-1,-1,8
19491108,-116,-8275,111,0,-1,-1,8
19491113,-102,-8276,121,0,-1,-1,8
19491118,-91,-8278,127,0,-1,-1,8
19491123,-84,-8277,130,0,-1,-1,8
19491128,-80,-8277,130,0,-1,-1,8
19491133,-79,-8276,142,0,-1,-1,8
19491138,-80,-8276,150,0,-1,-1,8
19491143,-83,-8277,162,0,-1,-1,8
19491148,-83,-8278,171,0,-2,-1,8
19491153,-91,-8279,176,0,-2,-1,8
19491158,-99,-8281,184,0,-2,-1,8
19491163,-103,-8279,194,0,-2,-1,8
19491168,-109,-8278,201,0,-3,-1,8
19491173,-111,-8279,211,0,-3,-1,8
19491178,-115,-8278,220,0,-3,-1,8
19491183,-123,-8277,226,0,-2,-1,8
19491188,-127,-8278,229,0,-2,-1,8
19491193,-135,-8280,233,0,-1,-1,8
19491198,-136,-8282,238,0,0,-1,8
19491203,-136,-8280,248,0,0,-1,8
19491208,-136,-8281,258,0,1,-1,8
19491213,-130,-8280,260,0,1,-1,8
19491218,-121,-8280,258,0,1,-1,8
19491223,-110,-8278,260,0,0,-1,8
19491228,-100,-8277,264,0,0,0,8
19491233,-84,-8279,268,-1,-1,0,8
19491238,-66,-8276,270,-1,-1,0,8
19491243,-48,-8274,280,-1,-1,0,8
19491248,-29,-8275,295,-1,-1,0,8
19491253,-11,-8272,315,-1,-1,0,8
19491258,5,-8269,342,-1,-2,0,8
19491263,25,-8267,371,-1,-2,0,8
19491268,41,-8270,393,-1,-2,0,8
19491273,56,-8268,418,-1,-2,0,8
19491278,72,-8268,435,-1,-1,0,8
19491283,92,-8268,451,-1,-1,0,8
19491288,116,-8267,454,-2,0,0,8
19491293,147,-8267,461,-2,1,1,8
19491298,181,-8266,465,-2,1,1,8
19491303,214,-8268,471,-2,2,1,8
19491308,245,-8272,479,-2,2,1,8
19491313,272,-8274,485,-2,3,1,8
19491318,293,-8276,500,-2,4,1,8
19491323,308,-8274,518,-2,5,1,8
19491328,317,-8274,530,-3,5,2,8
19491333,320,-8271,542,-3,6,2,8
19491338,315,-8270,553,-3,6,2,8
19491343,302,-8271,556,-3,7,2,8
19491348,278,-8270,551,-3,7,2,8
19491353,245,-8269,544,-3,8,2,8
19491358,199,-8271,537,-3,8,2,8
19491363,147,-8271,530,-3,9,2,8
19491368,88,-8271,523,-4,9,2,8
19491373,28,-8271,516,-4,10,2,8
19491378,-32,-8271,513,-4,11,2,8
19491383,-95,-8271,507,-4,11,2,8
19491388,-156,-8270,499,-4,10,2,8
19491393,-224,-8270,481,-4,9,2,8
19491398,-299,-8273,453,-4,8,2,8
19491403,-375,-8274,421,-4,6,1,8
19491408,-457,-8277,388,-4,3,1,8
19491413,-548,-8277,346,-4,1,1,8
19491418,-650,-8280,298,-4,-2,1,8
19491423,-775,-8281,256,-4,-4,0,8
19491428,-921,-8284,218,-4,-6,0,8
19491433,-1105,-8286,176,-4,-8,-1,8
19491438,-1332,-8284,137,-4,-9,-2,8
19491443,-1615,-8286,96,-4,-9,-3,8
19491448,-1952,-8289,55,-4,-8,-4,8
19491453,-2326,-8294,12,-4,-5,-5,8
19491458,-2721,-8303,-28,-4,-2,-7,8
19491463,-3120,-8312,-74,-4,0,-8,8
19491468,-3506,-8313,-117,-4,2,-9,8
19491473,-3860,-8313,-160,-4,3,-11,8
19491478,-4175,-8312,-213,-4,2,-12,8
19491483,-4443,-8308,-284,-3,1,-13,8
19491488,-4657,-8306,-359,-3,-2,-15,8
19491493,-4816,-8299,-433,-3,-4,-16,8
19491498,-4922,-8289,-500,-3,-7,-18,8
19491503,-4969,-8276,-562,-3,-10,-19,8
19491508,-4960,-8259,-602,-3,-12,-21,8
19491513,-4905,-8242,-619,-2,-16,-22,8
19491518,-4813,-8221,-626,-2,-19,-24,8
19491523,-4697,-8200,-619,-2,-22,-25,8
19491528,-4572,-8178,-614,-2,-25,-26,8
19491533,-4440,-8152,-622,-1,-28,-28,8
19491538,-4300,-8129,-642,-1,-30,-29,8
19491543,-4155,-8110,-686,-1,-31,-30,8
19491548,-3924,-8083,-663,0,-32,-31,8
19491553,-3759,-8066,-747,0,-32,-32,8
19491558,-3599,-8052,-860,0,-36,-32,8
19491563,-3402,-8027,-929,0,-37,-33,8
19491568,-3180,-8003,-1019,0,-35,-33,8
19491573,-2909,-7978,-1083,0,-36,-34,8
19491578,-2615,-7953,-1129,0,-36,-34,8
19491583,-2267,-7929,-1170,1,-36,-35,8
19491588,-1945,-7911,-1227,1,-35,-35,8
19491593,-1638,-7896,-1283,1,-35,-35,8
19491598,-1318,-7879,-1332,2,-32,-35,8
19491603,-1003,-7867,-1391,2,-25,-35,8
19491608,-671,-7856,-1427,2,-17,-34,8
19491613,-321,-7848,-1434,3,-9,-34,8
19491618,35,-7847,-1431,3,-3,-33,8
19491623,397,-7854,-1417,4,-1,-32,8
19491628,753,-7870,-1432,4,0,-31,8
19491633,1094,-7879,-1451,5,1,-30,8
19491638,1413,-7894,-1453,6,0,-29,8
19491643,1710,-7896,-1488,7,-2,-28,8
19491648,2079,-7887,-1567,7,-5,-28,8
19491653,2391,-7877,-1691,7,-8,-28,8
19491658,2617,-7877,-1762,7,-12,-29,8
19491663,2915,-7870,-1854,8,-16,-30,8
19491668,3479,-7887,-2152,9,-15,-26,8
19491673,3923,-7899,-2285,11,-14,-23,8
19491678,4259,-7905,-2310,11,-20,-21,8
19491683,4675,-7909,-2388,11,-24,-20,8
19491688,5093,-7914,-2439,12,-23,-20,8
19491693,5384,-7923,-2418,12,-22,-19,8
19491698,5566,-7933,-2385,13,-26,-18,8
19491703,5679,-7947,-2347,14,-31,-17,8
19491708,5679,-7958,-2286,15,-32,-15,8
19491713,5597,-7973,-2224,15,-33,-13,8
19491718,5539,-7987,-2189,16,-33,-12,8
19491723,5499,-7998,-2184,17,-30,-10,8
19491728,5480,-8005,-2173,18,-28,-8,8
19491733,5535,-8010,-2169,18,-28,-7,8
19491738,5616,-8010,-2184,19,-27,-5,8
19491743,5666,-8005,-2177,19,-27,-4,8
19491748,5722,-8006,-2138,20,-27,-3,8
19491753,5761,-8006,-2102,21,-27,-2,8
19491758,5746,-8008,-2055,21,-28,-1,8
19491763,5690,-8009,-1982,22,-31,0,8
19491768,5593,-8009,-1907,22,-31,1,8
19491773,5468,-8006,-1821,23,-32,2,8
19491778,5345,-8002,-1725,24,-32,3,8
19491783,5226,-7995,-1643,24,-32,5,8
19491788,5107,-7987,-1568,25,-33,6,8
19491793,5007,-7977,-1508,25,-34,7,8
19491798,4924,-7964,-1462,26,-35,8,8
19491803,4856,-7954,-1407,26,-37,8,8
19491808,4799,-7945,-1347,27,-39,9,8
19491813,4751,-7936,-1264,27,-41,10,8
19491818,4698,-7926,-1145,27,-44,11,8
19491823,4633,-7918,-995,27,-47,12,8
19491828,4565,-7905,-809,28,-49,12,8
19491833,4464,-7889,-629,28,-50,13,8
19491838,4318,-7873,-464,28,-52,13,8
19491843,4171,-7863,-264,29,-53,14,8
19491848,4041,-7855,-47,29,-49,15,8
19491853,3924,-7842,149,28,-41,16,8
19491858,3875,-7831,370,28,-34,17,8
19491863,3894,-7821,620,27,-28,18,8
19491868,3923,-7810,835,27,-25,18,8
19491873,3964,-7799,1030,26,-26,19,8
19491878,3983,-7790,1207,26,-27,19,8
19491883,3966,-7781,1371,25,-27,19,8
19491888,3914,-7779,1515,24,-27,20,8
19491893,3833,-7773,1639,23,-26,21,8
19491898,3742,-7769,1781,22,-25,21,8
19491903,3681,-7759,1946,21,-22,22,8
19491908,3629,-7740,2114,21,-18,23,8
19491913,3613,-7723,2311,22,-14,24,8
19491918,3607,-7728,2769,22,-13,25,8
19491923,3544,-7731,3275,21,-13,26,8
19491928,3493,-7722,3673,19,-16,26,8
19491933,3471,-7709,4016,18,-19,26,8
19491938,3414,-7701,4318,18,-19,27,8
19491943,3340,-7703,4583,17,-20,28,8
19491948,3265,-7707,4785,16,-20,29,8
19491953,3199,-7711,4931,15,-18,30,8
19491958,3122,-7721,5070,13,-14,30,8
19491963,3017,-7726,5183,12,-9,31,8
19491968,2899,-7731,5282,11,-2,31,8
19491973,2750,-7734,5383,9,5,31,8
19491978,2562,-7737,5501,7,11,31,8
19491983,2354,-7738,5627,6,16,32,8
19491988,2130,-7739,5735,4,21,32,8
19491993,1884,-7738,5849,3,25,32,8
19491998,1641,-7741,5945,1,30,32,8
19492003,1405,-7747,6023,0,35,32,8
19492008,1180,-7755,6110,-2,38,33,8
19492013,976,-7766,6193,-4,39,32,8
19492018,794,-7769,6251,-5,39,32,8
19492023,625,-7767,6297,-7,38,32,8
19492028,463,-7766,6359,-9,37,32,8
19492033,303,-7763,6437,-10,38,32,8
19492038,149,-7760,6485,-12,39,32,8
19492043,1,-7756,6520,-13,42,32,8
19492049,-155,-7758,6533,-15,46,31,8
19492053,-311,-7756,6527,-17,52,31,8
19492058,-465,-7750,6499,-19,59,30,8
19492064,-619,-7740,6450,-21,66,30,8
19492068,-779,-7733,6403,-22,74,29,8
19492073,-931,-7726,6339,-24,81,28,8
19492078,-1052,-7711,6253,-26,87,27,8
19492083,-1169,-7697,6145,-27,93,26,8
19492088,-1297,-7680,5989,-28,97,25,8
19492094,-1471,-7669,5807,-30,99,25,8
19492099,-1681,-7661,5578,-31,103,24,8
19492103,-1878,-7651,5317,-33,107,23,8
19492108,-2053,-7643,5063,-34,114,22,8
19492114,-2205,-7629,4802,-35,121,22,8
19492118,-2318,-7616,4533,-36,128,21,8
19492123,-2344,-7604,4235,-37,132,20,8
19492129,-2378,-7592,3908,-38,137,19,8
19492133,-2549,-7588,3611,-38,137,16,8
19492139,-2589,-7571,3330,-39,135,13,8
19492143,-2608,-7557,3002,-39,139,11,8
19492148,-2652,-7553,2714,-38,140,9,8
19492154,-2658,-7546,2451,-38,138,8,8
19492158,-2637,-7534,2083,-38,135,8,8
19492163,-2580,-7545,1660,-39,131,8,8
19492169,-2556,-7552,1205,-40,130,9,8
19492173,-2718,-7581,584,-39,128,7,8
19492179,-2732,-7586,97,-39,121,4,8
19492183,-2806,-7590,-340,-38,124,2,8
19492188,-2934,-7596,-796,-38,125,1,8
19492194,-3015,-7607,-1148,-38,119,0,8
19492198,-3121,-7621,-1486,-37,111,-1,8
19492204,-3213,-7643,-1786,-36,99,-2,8
19492208,-3327,-7665,-2042,-35,88,-4,8
19492213,-3437,-7688,-2285,-34,78,-5,8
19492219,-3522,-7706,-2523,-32,66,-7,8
19492224,-3635,-7727,-2753,-31,57,-8,8
19492229,-3740,-7745,-2975,-30,49,-9,8
19492233,-3839,-7763,-3189,-29,44,-10,8
19492238,-3956,-7783,-3388,-28,40,-12,8
19492243,-4046,-7801,-3572,-27,38,-13,8
19492249,-4128,-7816,-3741,-26,36,-14,8
19492253,-4212,-7830,-3890,-24,35,-16,8
19492259,-4282,-7842,-4029,-23,32,-17,8
19492264,-4343,-7855,-4162,-22,29,-18,8
19492269,-4405,-7866,-4281,-20,27,-19,8
19492274,-4457,-7873,-4393,-19,24,-21,8
19492278,-4509,-7881,-4503,-18,22,-22,8
19492284,-4567,-7887,-4602,-16,21,-23,8
19492288,-4611,-7891,-4692,-15,21,-25,8
19492294,-4667,-7894,-4814,-14,20,-26,8
19492299,-4701,-7892,-4930,-12,18,-27,8
19492304,-4715,-7884,-5043,-11,15,-29,8
19492308,-4707,-7876,-5148,-10,12,-30,8
19492314,-4660,-7864,-5229,-8,7,-31,8
19492319,-4587,-7855,-5278,-7,1,-32,8
19492324,-4485,-7844,-5304,-5,-6,-33,8
19492329,-4352,-7833,-5333,-4,-13,-34,8
19492333,-4202,-7813,-5363,-2,-21,-35,8
19492339,-4041,-7791,-5418,-1,-29,-36,8
19492344,-3875,-7771,-5497,1,-37,-37,8
19492348,-3711,-7753,-5584,3,-44,-38,8
19492354,-3537,-7734,-5681,4,-49,-38,8
19492359,-3345,-7715,-5800,5,-51,-39,8
19492364,-3121,-7694,-5899,6,-51,-40,8
19492368,-2860,-7671,-5961,7,-51,-40,8
19492374,-2562,-7647,-5997,8,-50,-41,8
19492379,-2236,-7622,-6004,10,-51,-41,8
19492384,-1907,-7597,-5986,11,-52,-41,8
19492388,-1588,-7571,-5948,13,-54,-41,8
19492393,-1267,-7547,-5935,14,-55,-41,8
19492399,-938,-7528,-5941,16,-56,-41,8
19492404,-629,-7513,-5937,17,-56,-40,8
19492409,-341,-7500,-5934,18,-56,-40,8
19492413,-60,-7489,-5911,19,-56,-40,8
19492419,251,-7466,-5884,19,-56,-39,8
19492424,610,-7451,-5862,21,-58,-38,8
19492429,878,-7429,-5588,23,-63,-37,8
19492434,1113,-7411,-5560,24,-71,-36,8
19492439,1514,-7395,-5627,24,-81,-37,8
19492444,1963,-7383,-5526,25,-82,-37,8
19492449,2437,-7383,-5497,25,-79,-37,8
19492454,2828,-7383,-5358,25,-81,-37,8
19492459,3093,-7386,-5088,26,-87,-37,8
19492464,3245,-7392,-4813,27,-91,-37,8
19492469,3537,-7399,-4449,27,-94,-35,8
19492474,3816,-7407,-4084,28,-88,-32,8
19492479,4035,-7419,-3800,29,-82,-30,8
19492484,4355,-7432,-3550,29,-76,-29,8
19492489,4759,-7446,-3370,29,-69,-28,8
19492494,5141,-7467,-3198,29,-61,-27,8
19492499,5484,-7485,-3003,29,-56,-26,8
19492504,5815,-7501,-2808,29,-54,-24,8
19492509,6085,-7520,-2559,29,-53,-23,8
19492514,6258,-7543,-2271,30,-54,-22,8
19492519,6367,-7566,-1995,30,-57,-20,8
19492524,6418,-7589,-1729,30,-59,-18,8
19492529,6432,-7613,-1476,31,-61,-17,8
19492534,6546,-7645,-1195,30,-64,-15,8
19492539,6760,-7676,-857,29,-67,-12,8
19492544,6936,-7697,-574,29,-69,-9,8
19492549,7146,-7712,-270,28,-73,-7,8
19492554,7389,-7730,66,28,-75,-6,8
19492559,7592,-7749,381,27,-74,-5,8
19492564,7712,-7772,708,26,-73,-3,8
19492569,7751,-7796,1027,25,-68,-2,8
19492574,7718,-7821,1321,24,-63,-1,8
19492579,7625,-7844,1587,23,-57,1,8
19492584,7477,-7863,1835,21,-49,3,8
19492589,7292,-7880,2098,20,-39,4,8
19492594,7098,-7893,2361,20,-28,6,8
19492599,6904,-7907,2607,19,-19,7,8
19492604,6693,-7917,2829,19,-14,9,8
19492609,6445,-7923,2986,18,-12,10,8
19492614,6226,-7937,3145,18,-8,12,8
19492619,6060,-7954,3286,17,-5,13,8
19492624,5927,-7971,3420,16,-6,15,8
19492629,5812,-7985,3549,15,-10,16,8
19492634,5709,-7994,3654,14,-13,18,8
19492639,5624,-8001,3746,12,-12,19,8
19492644,5543,-8003,3835,11,-11,20,8
19492649,5455,-8006,3949,10,-8,21,8
19492654,5328,-8009,4082,9,-5,22,8
19492659,5167,-8008,4217,7,-2,23,8
19492664,4971,-8006,4335,6,2,23,8
19492669,4743,-7999,4439,5,7,24,8
19492674,4494,-7996,4520,4,12,25,8
19492679,4222,-7992,4574,3,18,26,8
19492684,3940,-7991,4616,2,25,27,8
19492689,3666,-7988,4598,0,31,27,8
19492694,3404,-7981,4489,-1,35,28,8
19492699,3136,-7977,4351,-2,37,28,8
19492704,2847,-7980,4164,-2,37,28,8
19492709,2540,-7981,3930,-3,36,28,8
19492714,2222,-7982,3682,-4,35,28,8
19492719,1901,-7979,3416,-5,33,28,8
19492724,1587,-7976,3144,-6,31,28,8
19492729,1267,-7976,2887,-6,29,28,8
19492734,936,-7976,2644,-7,26,28,8
19492739,611,-7975,2404,-7,23,27,8
19492744,292,-7981,2168,-7,20,26,8
19492749,-34,-7988,1935,-7,18,26,8
19492754,-329,-7994,1720,-7,17,24,8
19492759,-585,-8001,1501,-7,18,23,8
19492764,-814,-8005,1291,-7,21,22,8
19492769,-1037,-8013,1127,-7,23,22,8
19492774,-1274,-8020,977,-7,25,21,8
19492779,-1505,-8027,848,-6,26,20,8
19492784,-1711,-8032,711,-6,29,18,8
19492789,-1864,-8051,593,-5,31,17,8
19492794,-2049,-8064,367,-5,32,17,8
19492799,-2274,-8079,125,-5,28,17,8
19492804,-2499,-8104,-100,-6,26,17,8
19492809,-2685,-8129,-320,-6,26,16,8
19492814,-2834,-8146,-526,-7,29,15,8
19492819,-2959,-8154,-683,-6,29,14,8
19492824,-3203,-8168,-820,-5,25,12,8
19492829,-3429,-8181,-894,-5,16,10,8
19492834,-3598,-8194,-964,-4,12,9,8
19492839,-3785,-8212,-1027,-4,12,8,8
19492844,-3918,-8229,-1031,-3,10,7,8
19492849,-3976,-8242,-1036,-3,10,7,8
19492854,-3946,-8252,-1031,-3,10,6,8
19492859,-3856,-8260,-1006,-2,11,5,8
19492864,-3717,-8267,-989,-2,11,4,8
19492869,-3531,-8272,-968,-1,8,3,8
19492874,-3364,-8278,-952,-1,6,2,8
19492879,-3203,-8282,-927,-1,2,1,8
19492884,-3044,-8284,-898,-1,0,0,8
19492889,-2912,-8290,-850,0,-1,-1,8
19492894,-2772,-8297,-772,0,-1,-1,8
19492899,-2616,-8298,-682,0,-1,-1,8
19492904,-2457,-8301,-588,0,-1,-2,8
19492909,-2284,-8299,-483,0,-2,-2,8
19492914,-2100,-8294,-392,0,-2,-3,8
19492919,-1920,-8294,-311,1,-3,-3,8
19492924,-1735,-8295,-239,1,-3,-3,8
19492929,-1555,-8293,-178,1,-3,-3,8
19492934,-1387,-8294,-127,1,-1,-3,8
19492939,-1232,-8293,-69,1,-1,-4,8
19492944,-1083,-8290,-11,0,0,-4,8
19492949,-950,-8288,51,0,-1,-4,8
19492954,-844,-8287,111,0,-1,-4,8
19492959,-749,-8290,155,0,0,-4,8
19492964,-661,-8290,200,0,0,-4,8
19492969,-578,-8292,242,0,0,-4,8
19492974,-502,-8293,278,0,0,-4,8
19492979,-412,-8291,308,0,0,-4,8
19492984,-320,-8289,336,0,1,-4,8
19492989,-219,-8288,364,0,1,-4,8
19492994,-110,-8286,404,0,1,-4,8
19492999,-3,-8282,438,0,1,-4,8
19493004,93,-8281,472,0,1,-3,8
19493009,181,-8277,519,0,0,-3,8
19493014,248,-8273,556,0,1,-3,8
19493019,435,-8267,672,0,1,-3,8
19493024,577,-8267,749,0,5,-3,8
19493029,534,-8269,712,0,3,-3,8
19493034,456,-8269,697,-1,0,-2,8
19493039,372,-8272,636,-1,6,-2,8
19493044,333,-8272,606,-2,11,-1,8
19493049,335,-8274,625,-2,11,-1,8
19493054,364,-8274,616,-2,11,-1,8
19493059,447,-8273,610,-2,10,-1,8
19493064,515,-8271,600,-1,9,-1,8
19493069,566,-8270,589,-1,5,-1,8
19493074,595,-8268,558,-1,2,-1,8
19493079,556,-8268,519,-1,1,-1,0
19493084,507,-8269,497,-2,1,-1,0
19493089,455,-8272,469,-2,4,-1,0
19493094,390,-8275,461,-2,6,-1,0
19493099,345,-8278,465,-2,7,0,0
19493104,321,-8274,458,-2,8,0,0
19493109,302,-8274,455,-2,8,0,0
19493114,300,-8274,452,-2,7,0,0
19493119,298,-8275,427,-2,6,0,0
19493124,291,-8279,393,-2,5,0,0
19493129,284,-8280,355,-2,4,0,0
19493134,272,-8281,314,-2,4,0,0
19493139,245,-8281,285,-2,5,0,0
19493144,227,-8280,266,-2,5,0,0
19493149,203,-8280,258,-2,6,0,0
19493154,174,-8279,260,-2,6,0,0
19493159,150,-8279,259,-2,6,0,0
19493164,123,-8279,259,-2,6,0,0
19493169,98,-8279,245,-2,6,0,0
19493174,78,-8279,226,-2,7,0,0
19493179,59,-8282,197,-2,7,0,0
19493184,48,-8283,166,-2,7,0,0
19493189,32,-8282,137,-2,7,0,0
19493194,16,-8281,107,-1,6,0,0
19493199,2,-8282,77,-1,6,0,0
19493204,-14,-8281,57,-1,5,0,0
19493209,-29,-8281,50,-1,4,0,0
19493214,-44,-8280,41,-1,3,0,0
19493219,-58,-8282,41,-1,3,0,0
19493224,-62,-8283,43,-1,3,0,0
19493229,-63,-8284,33,-1,3,0,0
19493234,-64,-8285,31,-1,3,0,0
19493239,-66,-8289,21,-1,3,0,0
19493244,-65,-8290,7,-1,3,0,0
19493249,-70,-8291,-2,-1,3,0,0
19493254,-83,-8291,-11,-1,2,0,0
19493259,-96,-8292,-10,-1,2,0,0
19493264,-111,-8294,-5,-1,2,0,0
19493269,-125,-8294,4,0,2,0,0
19493274,-139,-8296,14,0,2,0,0
19493279,-153,-8296,24,0,2,0,0
19493284,-161,-8295,31,0,2,0,0
19493289,-165,-8295,39,0,2,0,0
19493294,-164,-8294,41,0,2,0,0
19493299,-153,-8292,46,0,2,0,0
19493304,-150,-8294,45,0,2,0,0
19493309,-145,-8294,50,0,1,0,0
19493314,-143,-8294,53,0,1,0,0
19493319,-140,-8295,57,0,0,0,0
19493324,-135,-8295,69,0,0,0,0
19493329,-127,-8293,77,0,-1,0,0
19493334,-116,-8291,84,0,-1,0,0
19493339,-102,-8293,94,0,-2,0,0
19493344,-84,-8291,96,0,-2,0,0
19493349,-62,-8289,108,0,-3,0,0
19493354,-34,-8285,115,0,-4,0,0
19493359,-13,-8285,121,0,-5,0,0
19493364,6,-8285,124,0,-5,0,0
19493369,19,-8283,125,0,-6,0,0
19493374,14,-8278,135,1,-7,0,0
19493379,-4,-8278,147,1,-6,0,0
19493384,-30,-8278,153,1,-6,0,0
19493389,-61,-8280,166,0,-5,0,0
19493394,-106,-8282,185,0,-4,0,0
19493399,-139,-8283,196,0,-3,0,0
19493404,-151,-8286,212,0,-1,0,0
19493409,-139,-8286,226,1,1,0,0
19493414,-111,-8286,236,1,1,0,0
19493419,-83,-8288,243,1,1,0,0
19493424,-51,-8287,245,0,0,0,0
19493429,-19,-8286,247,0,-1,0,0
19493434,-3,-8285,252,0,-2,0,0
19493439,8,-8288,258,0,-2,0,0
19493444,15,-8288,263,0,-3,0,0
19493449,10,-8288,270,0,-3,0,0
19493454,1,-8287,281,0,-4,0,0
19493459,-11,-8286,288,0,-5,0,0
19493464,-26,-8284,287,0,-5,0,0
19493469,-39,-8283,288,0,-5,0,0
19493474,-46,-8284,282,0,-4,0,0
19493479,-56,-8284,285,0,-4,0,0
19493484,-64,-8283,294,0,-3,0,0
19493489,-69,-8283,299,0,-2,0,0
19493494,-77,-8285,314,0,-2,0,0
19493499,-83,-8287,340,0,-2,0,0
19493504,-90,-8286,357,0,-1,0,0
19493509,-97,-8283,372,0,-1,0,0
19493514,-106,-8285,380,0,-1,0,0
19493519,-112,-8287,376,0,-1,-1,0
19493524,-122,-8289,374,0,-1,-1,0
19493529,-132,-8289,374,0,-1,-1,0
19493534,-143,-8290,364,0,-1,-1,0
19493539,-153,-8288,356,0,-2,-1,0
19493544,-162,-8284,352,0,-2,-1,0
19493549,-170,-8281,348,0,-2,-1,0
19493554,-173,-8285,354,0,-1,-1,0
19493559,-177,-8282,360,0,-1,-1,0
19493564,-177,-8280,366,0,-1,-1,0
19493569,-173,-8281,372,0,0,-1,0
19493574,-165,-8281,378,0,0,-1,0
19493579,-159,-8283,383,0,1,-1,0
19493584,-154,-8283,390,0,1,-1,0
19493589,-148,-8283,391,0,1,-1,0
19493594,-147,-8283,383,0,2,-1,0
19493599,-148,-8279,377,0,2,-1,0
19493604,-150,-8277,367,0,3,-1,0
19493609,-149,-8278,365,-1,3,-1,0
19493614,-150,-8279,367,-1,3,-1,0
19493619,-147,-8277,365,-1,3,-1,0
19493624,-142,-8277,375,-1,4,-1,0
19493629,-127,-8278,381,-1,4,-1,0
19493634,-111,-8276,386,-1,5,-1,0
19493639,-96,-8275,391,-1,5,-1,0
19493644,-87,-8275,392,-1,6,-1,0
19493649,-78,-8279,393,-1,6,-1,0
19493654,-75,-8281,388,-1,7,-1,0
19493659,-72,-8282,384,-1,7,-1,0
19493664,-76,-8283,383,-1,8,-1,0
19493669,-80,-8286,381,-1,8,-1,0
19493674,-81,-8287,370,-1,9,-1,0
19493679,-76,-8287,357,-1,9,-1,0
19493684,-65,-8288,346,-1,9,-1,0
19493689,-54,-8287,336,-1,8,-1,0
19493694,-49,-8288,332,-1,7,-1,0
19493699,-48,-8287,326,-1,7,-1,0
19493704,-51,-8287,320,-1,6,-1,0
19493709,-59,-8291,316,-1,6,-1,0
19493714,-71,-8289,307,-1,6,-1,0
19493719,-86,-8289,299,-1,6,-1,0
19493724,-109,-8290,285,-1,6,-1,0
19493729,-131,-8292,268,-1,6,-1,0
19493734,-151,-8292,253,-1,6,-1,0
19493739,-173,-8292,233,-1,7,-1,0
19493744,-186,-8294,220,-1,8,-1,0
19493749,-188,-8295,216,-1,9,-1,0
19493754,-176,-8295,226,-1,10,-1,0
19493759,-154,-8293,242,-1,10,-2,0
19493764,-133,-8293,262,-1,11,-2,0
19493769,-107,-8293,278,-1,11,-1,0
19493774,-79,-8292,286,-1,11,-1,0
19493779,-52,-8288,291,-1,11,-2,0
19493784,-26,-8286,294,-1,11,-1,0
19493789,-2,-8287,286,-1,11,-1,0
19493794,19,-8287,282,-1,11,-1,0
19493799,31,-8288,278,-1,10,-1,0
19493804,43,-8285,272,-1,10,-1,0
19493809,49,-8285,262,-1,10,-1,0
19493814,53,-8285,244,-1,9,-1,0
19493819,55,-8286,228,-1,8,-1,0
19493824,59,-8288,210,-1,6,-1,0
19493829,61,-8288,193,-1,5,-1,0
19493834,66,-8288,183,-1,4,-1,0
19493839,71,-8288,176,-1,3,-1,0
19493844,75,-8288,169,-1,2,-1,0
19493849,73,-8291,170,-1,2,-1,0
19493854,66,-8291,172,-1,2,-1,0
19493859,44,-8288,156,-1,3,-1,0
19493864,-27,-8287,166,-1,8,-1,0
19493869,-48,-8285,148,-1,13,-2,0
19493874,-58,-8286,141,-1,17,-1,0
19493879,-65,-8285,155,-1,16,-1,0
19493884,-61,-8284,150,-1,13,-1,0
19493889,-53,-8283,151,-1,11,-1,0
19493894,-37,-8282,153,-1,10,-1,0
19493899,-15,-8282,144,-1,9,-1,0
19493904,14,-8282,139,-1,7,-1,0
19493909,36,-8282,132,-1,4,-1,0
19493914,43,-8281,124,-1,1,-1,0
19493919,43,-8281,121,-1,-2,-1,0
19493924,28,-8283,120,-1,-3,-1,0
19493929,9,-8285,131,-1,-3,-1,0
19493934,-3,-8287,141,-1,-2,-1,0
19493939,-23,-8287,140,0,-2,-1,0
19493944,-45,-8290,132,0,-2,-1,0
19493949,-72,-8292,121,0,-1,-2,0
19493954,-97,-8294,107,0,0,-1,0
19493959,-114,-8292,95,0,1,-1,0
19493964,-120,-8291,85,0,1,-1,0
19493969,-122,-8290,73,0,0,-2,0
19493974,-119,-8288,72,0,-1,-2,0
19493979,-115,-8288,71,0,-1,-2,0
19493984,-115,-8289,70,0,-3,-2,0
19493989,-118,-8291,66,0,-4,-2,0
19493994,-127,-8292,54,0,-5,-2,0
19493999,-136,-8292,40,0,-7,-2,0
19494004,-150,-8291,28,0,-8,-2,0
19494009,-170,-8292,20,0,-8,-2,0
19494014,-188,-8290,18,0,-8,-2,0
19494019,-195,-8291,27,0,-8,-2,0
19494024,-197,-8292,49,0,-8,-2,0
19494029,-194,-8294,69,0,-8,-2,0
19494034,-190,-8294,95,0,-8,-2,0
19494039,-189,-8293,121,0,-8,-2,0
19494044,-188,-8294,140,0,-8,-2,0
19494049,-186,-8292,163,0,-7,-3,0
19494054,-183,-8292,185,0,-7,-3,0
19494059,-177,-8292,208,0,-7,-3,0
19494064,-170,-8291,229,0,-7,-3,0
19494069,-159,-8291,252,0,-7,-3,0
19494074,-144,-8291,273,0,-7,-3,0
19494079,-127,-8290,292,0,-7,-3,0
19494084,-115,-8285,306,0,-8,-3,0
19494089,-113,-8283,308,0,-9,-3,0
19494094,-118,-8286,302,0,-9,-3,0
19494099,-129,-8288,290,0,-9,-3,0
19494104,-146,-8290,274,0,-8,-3,0
19494109,-156,-8289,260,0,-5,-3,0
19494114,-151,-8291,255,0,-3,-3,0
19494119,-132,-8291,257,0,-1,-3,0
19494124,-100,-8291,261,0,0,-3,0
19494129,-56,-8290,268,0,0,-3,0
19494134,-5,-8288,280,0,-1,-3,0
19494139,43,-8287,296,0,-2,-3,0
19494144,93,-8286,305,0,-3,-3,0
19494149,137,-8285,306,0,-4,-3,0
19494154,174,-8285,302,0,-5,-3,0
19494159,202,-8286,295,0,-7,-3,0
19494164,222,-8284,293,0,-8,-3,0
19494169,233,-8285,286,0,-10,-3,0
19494174,240,-8288,273,0,-12,-3,0
19494179,245,-8288,265,0,-14,-3,0
19494184,251,-8290,264,0,-17,-3,0
19494189,252,-8289,263,0,-20,-2,0
19494194,248,-8289,264,0,-22,-2,0
19494199,235,-8288,259,0,-22,-2,0
19494204,213,-8285,251,0,-22,-3,0
19494209,185,-8286,239,0,-21,-3,0
19494214,149,-8288,219,0,-20,-3,0
19494219,108,-8290,204,0,-19,-3,0
19494224,65,-8292,195,0,-18,-3,0
19494229,19,-8291,187,0,-17,-3,0
19494234,-18,-8291,183,0,-15,-3,0
19494239,-45,-8290,184,0,-11,-3,0
19494244,-59,-8289,184,0,-8,-3,0
19494249,-66,-8288,183,0,-6,-3,0
19494254,-67,-8287,184,0,-4,-3,0
19494259,-59,-8290,179,0,-2,-3,0
19494264,-43,-8290,167,0,0,-3,0
19494269,-22,-8290,152,0,1,-3,0
19494274,8,-8291,147,0,1,-3,0
19494279,41,-8293,149,0,0,-3,0
19494284,73,-8292,150,0,-1,-3,0
19494289,102,-8292,158,0,-2,-3,0
19494294,130,-8291,169,0,-3,-3,0
19494299,159,-8287,183,0,-4,-3,0
19494304,185,-8288,190,0,-6,-3,0
19494309,212,-8289,199,0,-7,-3,0
19494314,242,-8290,211,0,-9,-3,0
19494319,277,-8292,218,0,-10,-3,0
19494324,313,-8290,228,0,-11,-3,0
19494329,350,-8289,239,0,-12,-3,0
19494334,382,-8290,242,0,-13,-3,0
19494339,407,-8291,246,0,-15,-3,0
19494344,422,-8290,247,0,-17,-3,0
19494349,412,-8290,247,0,-19,-2,0
19494354,383,-8292,247,0,-18,-2,0
19494359,352,-8294,248,0,-15,-2,0
19494364,321,-8298,253,0,-11,-2,0
19494369,289,-8300,258,0,-7,-2,0
19494374,263,-8300,272,0,-2,-2,0
19494379,245,-8300,284,0,3,-2,0
19494384,232,-8300,294,0,8,-2,0
19494389,226,-8298,309,0,13,-2,0
19494394,229,-8296,321,0,17,-2,0
19494399,239,-8294,331,0,20,-2,0
19494404,247,-8292,337,0,22,-2,0
19494409,260,-8291,338,0,24,-2,0
19494414,271,-8292,335,0,26,-2,0
19494419,288,-8291,336,0,27,-2,0
19494424,306,-8292,333,0,28,-2,0
19494429,319,-8291,329,0,27,-2,0
19494434,332,-8290,324,0,25,-2,0
19494439,345,-8292,334,0,23,-2,0
19494444,360,-8294,347,0,21,-2,0
19494449,373,-8291,362,0,16,-2,0
19494454,381,-8288,388,0,11,-2,0
19494459,386,-8291,417,0,6,-1,0
19494464,387,-8292,442,0,1,-1,0
19494469,382,-8293,459,0,-2,-1,0
19494474,375,-8293,459,0,-4,-1,0
19494479,367,-8293,453,0,-6,-1,0
19494484,360,-8293,429,0,-7,-1,0
19494489,359,-8293,393,0,-8,-1,0
19494494,362,-8293,352,0,-8,-1,0
19494499,365,-8294,302,0,-8,-1,0
19494504,373,-8296,265,0,-8,-1,0
19494509,387,-8295,235,0,-8,-1,0
19494514,407,-8295,216,0,-8,-1,0
19494519,429,-8295,201,0,-9,-1,0
19494524,454,-8292,197,0,-10,-1,0
19494529,479,-8290,189,0,-11,-1,0
19494534,497,-8289,188,0,-13,-1,0
19494539,509,-8290,186,0,-16,-1,0
19494544,513,-8292,192,0,-18,0,0
19494549,508,-8296,203,0,-20,0,0
19494554,495,-8296,218,0,-22,0,0
19494559,473,-8295,230,0,-23,0,0
19494564,445,-8295,252,0,-23,0,0
19494569,410,-8296,278,0,-23,0,0
19494574,377,-8297,305,0,-22,0,0
19494579,348,-8297,324,0,-21,0,0
19494584,319,-8296,344,0,-20,0,0
19494589,289,-8296,363,0,-19,0,0
19494594,257,-8298,379,0,-18,0,0
19494599,221,-8299,399,0,-16,0,0
19494604,182,-8300,421,0,-15,0,0
19494609,141,-8300,450,0,-13,0,0
19494614,100,-8295,468,0,-10,0,0
19494619,66,-8296,486,0,-6,0,0
19494624,39,-8295,493,0,-2,0,0
19494629,24,-8295,485,0,0,-1,0
19494634,22,-8297,476,0,1,-1,0
19494639,22,-8298,458,-1,-1,-1,0
19494644,13,-8297,433,-1,-3,-1,0
19494649,10,-8298,403,-1,-5,-1,0
19494654,13,-8299,374,-1,-6,-1,0
19494659,25,-8301,348,-1,-6,-1,0
19494664,44,-8300,320,-1,-7,-1,0
19494669,72,-8299,297,-1,-8,-1,0
19494674,95,-8298,288,-1,-10,-1,0
19494679,111,-8297,282,-1,-12,-1,0
19494684,116,-8295,286,-1,-13,-1,0
19494689,109,-8293,293,0,-14,-1,0
19494694,90,-8290,307,0,-15,-1,0
19494699,67,-8290,319,0,-15,-1,0
19494704,40,-8292,330,0,-15,-2,0
19494709,13,-8292,333,0,-16,-2,0
19494714,-8,-8294,334,0,-16,-2,0
19494719,-28,-8298,330,0,-16,-2,0
19494724,-44,-8300,315,0,-17,-2,0
19494729,-55,-8299,305,0,-18,-2,0
19494734,-78,-8302,301,0,-20,-2,0
19494739,-113,-8301,302,0,-21,-2,0
19494744,-155,-8302,319,-1,-22,-2,0
19494749,-194,-8303,338,-1,-20,-3,0
19494754,-225,-8305,368,-1,-15,-3,0
19494759,-237,-8304,405,-1,-10,-3,0
19494764,-229,-8303,437,-1,-5,-3,0
19494769,-198,-8302,464,-1,-2,-3,0
19494774,-151,-8299,476,-1,0,-3,0
19494779,-96,-8300,473,-1,0,-3,0
19494784,-47,-8300,459,-1,-1,-3,0
19494789,-17,-8299,441,-1,-2,-3,0
19494794,2,-8299,406,-1,-3,-3,0
19494799,11,-8297,383,-1,-5,-4,0
19494804,11,-8298,379,-1,-4,-3,0
19494809,22,-8299,383,-1,-2,-3,0
19494814,47,-8295,382,-1,-2,-3,0
19494819,68,-8293,383,-1,-3,-3,0
19494824,92,-8294,370,-1,-3,-4,0
19494829,118,-8295,354,-1,-4,-4,0
19494834,145,-8294,338,-1,-4,-4,0
19494839,164,-8293,324,-1,-6,-4,0
19494844,173,-8293,315,-1,-6,-4,0
19494849,173,-8294,313,-1,-4,-4,0
19494854,176,-8292,313,-1,-1,-4,0
19494859,190,-8291,324,-1,2,-4,0
19494864,221,-8292,328,-1,3,-4,0
19494869,253,-8296,332,-1,2,-4,0
19494874,284,-8297,335,-1,0,-4,0
19494879,308,-8296,341,-1,-1,-4,0
19494884,322,-8297,351,-1,-1,-4,0
19494889,335,-8299,368,-1,-1,-4,0
19494894,347,-8297,398,-1,0,-4,0
19494899,352,-8294,432,-2,0,-4,0
19494904,353,-8293,461,-2,0,-4,0
19494909,349,-8292,484,-2,2,-4,0
19494914,353,-8290,505,-2,4,-3,0
19494919,367,-8287,517,-2,6,-3,0
19494924,393,-8286,527,-2,7,-3,0
19494929,421,-8288,530,-2,9,-3,0
19494934,439,-8289,528,-2,10,-3,0
19494939,451,-8288,523,-2,12,-3,0
19494944,454,-8289,515,-2,15,-3,0
19494949,451,-8289,516,-2,18,-3,0
19494954,447,-8289,517,-2,20,-3,0
19494959,443,-8288,519,-3,21,-3,0
19494964,442,-8286,517,-3,20,-3,0
19494969,443,-8288,516,-3,20,-3,0
19494974,450,-8289,506,-3,19,-3,0
19494979,463,-8293,489,-3,18,-3,0
19494984,480,-8294,461,-3,17,-3,0
19494989,500,-8296,435,-3,16,-3,0
19494994,513,-8295,413,-3,16,-3,0
19494999,521,-8296,391,-3,16,-3,0
19495004,531,-8297,386,-3,16,-3,0
19495009,542,-8300,396,-3,17,-3,0
19495014,562,-8301,413,-3,17,-3,0
19495019,586,-8302,434,-3,15,-2,0
19495024,608,-8301,453,-3,14,-2,0
19495029,629,-8302,471,-3,12,-2,0
19495034,644,-8301,484,-3,10,-2,0
19495039,654,-8298,494,-3,9,-2,0
19495044,653,-8296,487,-3,10,-2,0
19495049,643,-8294,468,-3,11,-2,0
19495054,628,-8293,443,-3,13,-2,0
19495059,615,-8295,410,-3,14,-2,0
19495064,597,-8297,372,-3,15,-2,0
19495069,570,-8298,332,-3,15,-2,0
19495074,536,-8300,289,-3,15,-2,0
19495079,496,-8300,250,-3,15,-2,0
19495084,458,-8299,215,-3,16,-2,0
19495089,426,-8297,182,-3,18,-2,0
19495094,399,-8297,154,-3,19,-2,0
19495099,382,-8295,126,-3,20,-2,0
19495104,371,-8295,91,-3,20,-2,0
19495109,364,-8294,61,-3,19,-2,0
19495114,364,-8295,35,-3,17,-2,0
19495119,360,-8297,11,-3,16,-2,0
19495124,352,-8297,-10,-3,14,-2,0
19495129,340,-8296,-34,-2,12,-2,0
19495134,322,-8296,-54,-2,10,-2,0
19495139,300,-8297,-76,-2,8,-2,0
19495144,273,-8297,-102,-2,7,-2,0
19495149,249,-8300,-118,-2,6,-2,0
19495154,237,-8301,-126,-2,7,-3,0
19495159,231,-8302,-134,-2,7,-3,0
19495164,236,-8303,-134,-2,8,-3,0
19495169,246,-8305,-128,-2,9,-3,0
19495174,264,-8305,-114,-2,10,-3,0
19495179,285,-8307,-93,-2,10,-3,0
19495184,304,-8307,-70,-1,10,-3,0
19495189,321,-8303,-42,-1,9,-3,0
19495194,333,-8301,-20,-1,9,-3,0
19495199,344,-8302,-6,-1,8,-3,0
19495204,358,-8302,12,-1,8,-3,0
19495209,378,-8304,30,-1,8,-3,0
19495214,431,-8305,58,-1,6,-3,0
19495219,522,-8302,64,-1,0,-2,0
19495224,521,-8301,69,-1,-4,-2,0
19495229,520,-8300,61,-1,-3,-3,0
19495234,546,-8303,45,-1,3,-3,0
19495239,586,-8303,63,-1,5,-3,0
19495244,619,-8305,88,-1,3,-3,0
19495249,640,-8304,113,-1,0,-2,0
19495254,666,-8302,164,-1,-1,-2,0
19495259,693,-8301,222,-1,1,-2,0
19495264,740,-8297,281,-1,2,-2,0
19495269,795,-8295,326,-1,4,-2,0
19495274,839,-8294,363,-1,4,-2,0
19495279,877,-8293,386,-1,4,-2,0
19495284,910,-8291,394,-2,5,-1,0
19495289,931,-8295,408,-2,6,-1,0
19495294,951,-8297,418,-2,8,-1,0
19495299,984,-8297,430,-2,9,-1,0
19495304,1007,-8297,446,-2,10,-1,0
19495309,1024,-8297,458,-2,10,0,0
19495314,1046,-8299,454,-2,9,0,0
19495319,1062,-8299,445,-2,8,0,0
19495324,1070,-8296,419,-2,6,0,0
19495329,1078,-8296,389,-2,5,0,0
19495335,1085,-8300,360,-2,5,0,0
19495339,1088,-8301,334,-3,4,1,0
19495344,1085,-8302,318,-3,3,1,0
19495350,1075,-8303,314,-3,2,1,0
19495354,1064,-8300,311,-3,2,1,0
19495359,1041,-8300,313,-3,2,1,0
19495364,1011,-8299,316,-3,2,1,0
19495370,979,-8297,316,-3,3,2,0
19495375,947,-8296,308,-3,4,2,0
19495379,911,-8296,294,-3,4,2,0
19495384,881,-8296,270,-3,5,2,0
19495390,860,-8298,243,-3,5,2,0
19495394,840,-8297,206,-3,6,2,0
19495399,815,-8298,162,-3,6,2,0
19495405,788,-8299,117,-3,5,2,0
19495409,752,-8299,72,-3,4,2,0
19495414,704,-8301,30,-2,3,2,0
19495419,657,-8304,-10,-2,2,2,0
19495425,605,-8304,-49,-2,1,2,0
19495429,554,-8302,-79,-2,1,2,0
19495434,510,-8303,-100,-2,1,2,0
19495439,474,-8304,-123,-2,1,2,0
19495445,448,-8304,-144,-2,1,2,0
19495449,435,-8301,-164,-2,1,2,0
19495455,423,-8302,-178,-2,0,2,0
19495459,407,-8303,-191,-2,-1,2,0
19495464,393,-8304,-203,-1,-2,2,0
19495469,378,-8306,-209,-1,-2,2,0
19495474,360,-8306,-212,-1,-3,2,0
19495479,342,-8306,-213,-1,-4,2,0
19495484,322,-8305,-209,-1,-4,2,0
19495489,306,-8300,-197,-1,-5,2,0
19495494,295,-8299,-187,-1,-6,2,0
19495499,284,-8297,-181,-1,-7,1,0
19495505,278,-8295,-175,-1,-9,1,0
19495510,274,-8296,-175,0,-12,1,0
19495514,274,-8296,-179,0,-15,1,0
19495519,270,-8295,-184,0,-18,1,0
19495524,263,-8294,-186,0,-20,1,0
19495529,255,-8296,-184,0,-21,1,0
19495534,240,-8298,-182,0,-22,1,0
19495540,217,-8299,-173,0,-23,1,0
19495544,188,-8302,-163,0,-23,1,0
19495549,162,-8304,-151,0,-22,1,0
19495554,132,-8304,-127,0,-21,1,0
19495560,96,-8302,-105,0,-19,1,0
19495565,57,-8303,-80,0,-17,0,0
19495569,14,-8302,-47,0,-13,0,0
19495575,-27,-8304,-24,0,-9,0,0
19495580,-55,-8305,-5,0,-5,0,0
19495585,-71,-8304,7,0,-2,0,0
19495589,-64,-8304,18,0,0,0,0
19495595,-34,-8302,32,0,2,0,0
19495600,9,-8303,36,0,2,0,0
19495605,57,-8302,36,0,2,0,0
19495610,101,-8304,39,0,2,0,0
19495615,135,-8305,38,0,2,-1,0
19495619,157,-8304,30,0,1,-1,0
19495625,160,-8307,27,0,0,-1,0
19495630,150,-8307,27,0,0,-1,0
19495634,141,-8306,29,0,0,-1,0
19495640,138,-8306,36,0,0,-1,0
19495645,150,-8305,48,0,0,-1,0
19495650,172,-8301,59,0,0,-1,0
19495654,208,-8302,73,0,1,-1,0
19495660,247,-8306,91,0,1,-1,0
19495665,274,-8306,103,0,0,-1,0
19495669,291,-8307,117,0,0,-1,0
19495675,297,-8308,129,0,0,-1,0
19495680,302,-8310,139,0,1,-1,0
19495685,306,-8307,150,0,1,-1,0
19495689,312,-8308,160,0,2,-1,0
19495695,321,-8308,158,0,3,-1,0
19495700,331,-8306,158,0,4,-1,0
19495705,340,-8305,161,0,5,-1,0
19495710,350,-8306,161,0,6,-1,0
19495714,357,-8308,158,0,6,-1,0
19495720,363,-8313,156,0,5,-1,0
19495725,369,-8312,154,0,4,-1,0
19495729,376,-8313,151,0,3,-1,0
19495735,389,-8312,150,0,2,-1,0
19495740,406,-8309,156,0,2,-1,0
19495745,429,-8309,161,0,1,-1,0
19495750,457,-8308,159,0,0,-1,0
19495755,483,-8307,158,0,0,-1,0
19495760,506,-8307,163,0,0,-1,0
19495765,525,-8302,166,0,1,-1,0
19495770,534,-8301,177,0,1,-1,0
19495775,535,-8301,187,0,1,-1,0
19495780,532,-8301,195,0,1,-1,0
19495785,521,-8303,202,0,1,-1,0
19495790,507,-8305,202,0,1,0,0
19495795,495,-8305,195,0,1,0,0
19495800,487,-8301,190,0,2,0,0
19495805,483,-8298,179,0,3,0,0
19495810,488,-8298,162,0,3,0,0
19495815,495,-8298,153,0,4,0,0
19495820,503,-8301,146,0,4,0,0
19495825,515,-8303,142,0,3,0,0
19495830,521,-8305,145,0,2,0,0
19495835,515,-8307,152,0,0,0,0
19495840,496,-8306,153,0,-1,0,0
19495845,467,-8308,154,0,-1,0,0
19495850,440,-8312,148,0,-1,0,0
19495855,415,-8311,139,0,-1,0,0
19495860,391,-8312,135,0,-1,0,0
19495865,375,-8312,136,0,0,0,0
19495870,367,-8309,138,-1,0,0,0
19495875,366,-8308,148,-1,1,0,0
19495880,371,-8307,166,-1,1,0,0
19495885,373,-8306,187,-1,1,0,0
19495890,362,-8304,207,-1,2,0,0
19495895,355,-8303,221,-1,3,0,0
19495900,351,-8302,235,-1,3,0,0
19495905,342,-8303,240,-1,4,0,0
19495910,339,-8306,234,-1,5,0,0
19495915,343,-8305,228,-1,6,0,0
19495920,352,-8308,219,-1,7,0,0
19495925,366,-8308,204,-1,7,0,0
19495930,382,-8307,190,-1,6,0,0
19495935,396,-8305,171,-1,6,0,0
19495940,409,-8304,155,-1,5,0,0
19495945,422,-8303,147,-1,3,0,0
19495950,435,-8302,142,-1,1,0,0
19495955,443,-8299,143,-1,0,0,0
19495960,453,-8298,143,-1,-1,0,0
19495965,462,-8296,143,-1,-1,0,0
19495970,466,-8297,146,-1,-2,0,0
19495975,464,-8298,144,-1,-2,0,0
19495980,450,-8297,137,-1,-2,0,0
19495985,433,-8299,130,-1,-2,0,0
19495990,413,-8300,123,-1,-2,0,0
19495995,399,-8299,117,-1,-2,0,0
19496000,392,-8299,113,-1,-1,0,0
19496005,383,-8299,110,-1,-1,0,0
19496010,374,-8302,109,-1,0,0,0
19496015,364,-8303,109,-1,0,0,0
19496020,359,-8306,110,-1,1,0,0
19496025,350,-8306,115,-1,1,0,0
19496030,341,-8304,114,-1,1,0,0
19496035,330,-8303,108,-1,1,0,0
19496040,321,-8307,101,-1,1,0,0
19496045,316,-8307,99,-1,1,0,0
19496050,312,-8306,92,-1,1,0,0
19496055,310,-8306,82,-1,1,0,0
19496060,309,-8306,71,-1,1,0,0
19496065,306,-8308,58,-1,1,0,0
19496070,308,-8308,47,-1,1,0,0
19496075,310,-8308,35,-1,1,0,0
19496080,317,-8306,27,-1,0,0,0
19496085,326,-8305,22,-1,0,0,0
19496090,336,-8305,23,-1,-1,0,0
19496095,345,-8305,30,-1,-1,0,0
19496100,356,-8306,35,-1,-1,0,0
19496105,368,-8305,46,0,-1,0,0
19496110,372,-8305,52,0,-1,0,0
19496115,370,-8306,57,0,-1,0,0
19496120,365,-8307,56,0,0,-1,0
19496125,354,-8310,59,0,0,0,0
19496130,342,-8309,59,0,0,0,0
19496135,332,-8307,55,0,0,0,0
19496140,323,-8308,51,0,0,0,0
19496145,321,-8310,47,0,0,0,0
19496150,326,-8308,50,0,0,0,0
19496155,335,-8309,62,0,0,0,0
19496160,342,-8307,81,0,-1,-1,0
19496165,348,-8307,98,0,-1,-1,0
19496170,352,-8304,111,0,-1,-1,0
19496175,351,-8303,126,0,-1,0,0
19496180,351,-8303,143,0,-1,-1,0
19496185,354,-8304,149,0,-1,-1,0
19496190,355,-8306,150,0,0,-1,0
19496195,351,-8307,141,0,0,-1,0
19496200,348,-8308,131,0,0,-1,0
19496205,348,-8308,121,0,-1,-1,0
19496210,345,-8307,112,0,-1,-1,0
19496215,347,-8308,106,-1,0,0,0
19496220,352,-8311,101,-1,0,0,0
19496225,363,-8313,103,-1,0,-1,0
19496230,374,-8314,111,-1,0,0,0
19496235,386,-8314,132,-1,0,0,0
19496240,400,-8310,146,-1,0,-1,0
19496245,412,-8308,156,-1,0,0,0
19496250,418,-8309,167,-1,-1,-1,0
19496255,419,-8306,169,-1,-1,-1,0
19496260,413,-8307,159,-1,-1,0,0
19496265,406,-8308,149,-1,0,0,0
19496270,397,-8312,142,-1,0,0,0
19496275,389,-8314,134,-1,0,0,0
19496280,381,-8315,124,-1,0,0,0
19496285,371,-8314,112,-1,0,0,0
19496290,365,-8313,104,-1,1,0,0
19496295,363,-8308,101,-1,1,0,0
19496300,363,-8307,100,-1,1,0,0
19496305,371,-8307,97,-1,1,0,0
19496310,383,-8304,98,-1,1,0,0
19496315,395,-8303,99,-1,1,0,0
19496320,409,-8303,99,-1,1,0,0
19496325,419,-8300,99,-1,1,0,0
19496330,422,-8300,96,-1,0,0,0
19496335,415,-8301,90,-1,0,0,0
19496340,405,-8300,80,-1,0,0,0
19496345,389,-8298,70,-1,0,0,0
19496350,375,-8298,59,0,0,0,0
19496355,366,-8301,52,-1,1,0,0
19496360,363,-8301,50,-1,1,0,0
19496365,367,-8299,47,0,1,0,0
19496370,379,-8299,48,0,1,0,0
19496375,390,-8301,58,0,1,0,0
19496380,400,-8303,62,0,0,0,0
19496385,406,-8304,73,0,0,0,0
19496390,408,-8307,83,0,0,0,0
19496395,405,-8310,99,0,-1,0,0
19496400,403,-8310,113,-1,0,0,0
19496405,400,-8309,123,0,0,0,0
19496410,396,-8309,136,-1,0,0,0
19496415,395,-8307,150,-1,0,0,0
19496420,397,-8306,152,-1,0,0,0
19496425,398,-8307,161,-1,0,0,0
19496430,400,-8308,166,-1,0,0,0
19496435,399,-8310,167,-1,0,0,0
19496440,395,-8310,173,-1,0,0,0
19496445,392,-8310,177,-1,0,0,0
19496450,387,-8309,179,-1,0,0,0
19496455,383,-8309,181,-1,0,0,0
19496460,375,-8309,178,-1,0,0,0
19496465,367,-8310,176,-1,1,0,0
19496470,359,-8310,173,-1,1,0,0
19496475,356,-8308,162,-1,0,0,0
19496480,356,-8309,150,-1,0,0,0
19496485,353,-8310,139,-1,0,0,0
19496490,355,-8312,129,-1,0,0,0
19496495,361,-8312,126,-1,0,0,0
19496500,369,-8312,125,-1,0,0,0
19496505,373,-8312,132,-1,0,0,0
19496510,376,-8312,143,-1,0,0,0
19496515,374,-8311,150,-1,0,0,0
19496520,370,-8309,155,-1,0,0,0
19496525,362,-8308,159,-1,0,0,0
19496530,356,-8307,160,-1,0,0,0
19496535,352,-8307,155,-1,0,0,0
19496540,347,-8304,145,-1,0,0,0
19496545,343,-8304,135,-1,0,0,0
19496550,337,-8305,120,-1,0,0,0
19496555,324,-8304,108,-1,0,0,0
19496560,310,-8305,96,-1,0,0,0
19496565,293,-8304,86,-1,1,0,0
19496570,278,-8305,70,-1,1,0,0
19496575,264,-8304,58,-1,0,0,0
19496580,253,-8303,49,-1,0,0,0
19496585,250,-8302,39,-1,0,0,0
19496590,256,-8302,33,-1,0,0,0
19496595,268,-8303,32,-1,0,0,0
19496600,281,-8303,33,-1,-1,0,0
19496605,291,-8304,36,-1,-1,0,0
19496610,298,-8306,41,-1,0,0,0
19496615,306,-8306,43,-1,0,0,0
19496620,307,-8305,46,-1,-1,-1,0
19496625,301,-8306,44,-1,-1,-1,0
19496630,293,-8305,44,-1,0,-1,0
19496635,287,-8307,44,-1,0,-1,0
19496640,286,-8308,41,-1,0,-1,0
19496645,284,-8307,35,-1,0,-1,0
19496650,281,-8308,38,-1,0,-1,0
19496655,278,-8305,35,-1,0,-1,0
19496660,275,-8306,29,-1,0,-1,0
19496665,275,-8310,28,-1,-1,-1,0
19496670,274,-8310,28,-1,-1,-1,0
19496675,273,-8306,28,0,-1,-1,0
19496680,278,-8306,36,-1,-1,-1,0
19496685,288,-8308,54,-1,-1,-1,0
19496690,301,-8309,67,0,-1,-1,0
19496695,315,-8306,76,0,-1,-1,0
19496700,335,-8303,87,0,-1,-1,0
19496705,351,-8302,91,0,-1,-1,0
19496710,359,-8301,93,0,-1,-1,0
19496715,363,-8300,96,0,-1,-1,0
19496720,362,-8301,99,-1,-1,-1,0
19496725,363,-8302,101,-1,0,-1,0
19496730,362,-8301,98,-1,0,-1,0
19496735,362,-8302,99,-1,0,-1,0
19496740,364,-8300,103,-1,0,-1,0
19496745,369,-8301,107,-1,0,-1,0
19496750,375,-8305,107,-1,0,-1,0
19496755,383,-8306,104,-1,0,-1,0
19496760,388,-8309,102,-1,0,-1,0
19496765,387,-8309,101,-1,0,-1,0
19496770,384,-8310,98,-1,0,-1,0
19496775,383,-8308,88,-1,0,-1,0
19496780,379,-8306,85,-1,0,-1,0
19496785,375,-8306,91,-1,-1,0,0
19496790,370,-8308,92,-1,-1,-1,0
19496795,364,-8310,88,0,-1,-1,0
19496800,363,-8310,85,0,0,-1,0
19496805,360,-8307,84,0,0,-1,0
19496810,361,-8304,81,-1,0,-1,0
19496815,361,-8305,75,0,0,-1,0
19496820,364,-8307,71,0,0,-1,0
19496825,367,-8308,76,0,0,-1,0
19496830,369,-8306,80,0,0,-1,0
19496835,368,-8306,79,0,0,-1,0
19496840,367,-8304,80,0,0,-1,0
19496845,364,-8303,76,0,-1,-1,0
19496850,362,-8303,79,0,-1,-1,0
19496855,358,-8305,78,0,-1,-1,0
19496860,353,-8304,87,0,-1,-1,0
19496865,351,-8302,89,0,-1,-1,0
19496870,351,-8303,95,0,-1,-1,0
19496875,354,-8303,96,0,-1,0,0
19496880,359,-8302,97,0,-1,0,0
19496885,362,-8302,99,0,0,-1,0
19496890,372,-8303,105,0,0,-1,0
19496895,381,-8302,106,0,0,0,0
19496900,385,-8303,104,0,0,-1,0
19496905,386,-8300,97,0,0,-1,0
19496910,384,-8297,91,0,0,-1,0
19496915,384,-8296,85,0,-1,-1,0
19496920,382,-8296,80,0,-1,-1,0
19496925,378,-8295,74,0,-1,0,0
19496930,375,-8295,73,0,-1,0,0
19496935,372,-8296,80,0,-1,0,0
19496940,368,-8299,83,0,0,-1,0
19496945,366,-8301,90,0,0,0,0
19496950,368,-8303,95,0,0,0,0
19496955,370,-8307,98,0,-1,0,0
19496960,373,-8310,102,0,-1,0,0
19496965,379,-8310,105,0,-1,0,0
19496970,381,-8309,107,0,-1,0,0
19496975,382,-8306,105,0,-1,0,0
19496980,381,-8308,100,0,-1,0,0
19496985,374,-8310,95,0,-1,0,0
19496990,369,-8309,97,0,-1,0,0
19496995,364,-8307,102,0,-1,0,0
19497000,359,-8307,101,0,-1,0,0
19497005,357,-8305,104,0,0,0,0
19497010,355,-8305,105,0,0,0,0
19497015,356,-8304,102,0,0,0,0
19497020,358,-8305,100,0,0,0,0
19497025,359,-8307,96,0,0,0,0
19497030,358,-8308,94,0,0,0,0
19497035,355,-8307,95,0,0,0,0
19497040,351,-8302,96,0,-1,0,0
19497045,344,-8303,94,0,-1,0,0
19497050,337,-8303,92,0,-1,0,0
19497055,331,-8305,89,0,0,0,0
19497060,329,-8305,85,0,0,0,0
19497065,327,-8304,84,0,0,0,0
19497070,326,-8306,82,0,0,-1,0
19497075,329,-8307,82,0,0,0,0
19497080,335,-8307,83,0,0,0,0
19497085,346,-8309,85,0,0,-1,0
19497090,357,-8309,89,0,0,-1,0
19497095,362,-8310,97,0,0,-1,0
19497100,363,-8309,103,0,0,-1,0
19497105,361,-8309,110,0,0,-1,0
19497110,353,-8309,121,-1,0,-1,0
19497115,344,-8307,130,-1,0,-1,0
19497120,337,-8306,138,-1,0,-1,0
19497125,333,-8304,148,-1,0,-1,0
19497130,332,-8305,153,0,0,-1,0
19497135,330,-8305,152,-1,0,-1,0
19497140,333,-8304,149,-1,0,-1,0
19497145,336,-8302,140,-1,0,-1,0
19497150,341,-8301,136,-1,0,-1,0
19497155,347,-8302,129,-1,0,-1,0
19497160,352,-8303,123,-1,0,-1,0
19497165,352,-8304,122,-1,0,-1,0
19497170,353,-8307,119,-1,0,-1,0
19497175,351,-8306,114,-1,0,-1,0
19497180,348,-8306,111,-1,0,-1,0
19497185,347,-8307,104,-1,0,-1,0
19497190,346,-8309,95,-1,0,-1,0
19497195,346,-8304,88,-1,0,-1,0
19497200,347,-8302,82,-1,0,-1,0
19497205,346,-8302,71,-1,0,-1,0
19497210,349,-8301,71,-1,0,-1,0
19497215,354,-8299,73,-1,0,-1,0
19497220,360,-8300,74,-1,0,-1,0
19497225,366,-8303,74,-1,0,0,0
19497230,368,-8303,79,-1,0,-1,0
19497235,372,-8303,85,-1,0,0,0
19497240,375,-8300,89,-1,0,0,0
19497245,381,-8300,87,0,0,0,0
19497250,386,-8302,85,0,0,0,0
19497255,388,-8300,76,0,-1,0,0
19497260,390,-8300,65,0,-1,0,0
19497265,385,-8299,58,0,-1,0,0
19497270,376,-8299,51,0,-1,-1,0
19497275,364,-8300,51,0,-1,0,0
19497280,353,-8300,45,0,-1,0,0
19497285,339,-8304,38,0,-1,0,0
19497290,327,-8304,37,0,0,-1,0
19497295,319,-8304,32,0,-1,-1,0
19497300,315,-8304,25,0,-1,0,0
19497305,318,-8306,19,0,-1,0,0
19497310,325,-8308,16,0,0,0,0
19497315,336,-8307,18,0,0,0,0
19497320,347,-8307,17,0,-1,0,0
19497325,361,-8305,23,0,-1,0,0
19497330,376,-8303,26,0,-1,-1,0
19497335,387,-8304,28,0,-1,-1,0
19497340,392,-8305,32,0,-1,-1,0
19497345,388,-8303,45,0,-1,-1,0
19497350,385,-8305,58,0,-1,0,0
19497355,380,-8305,72,0,-1,0,0
19497360,377,-8304,90,0,-1,0,0
19497365,374,-8302,100,0,-1,0,0
19497370,372,-8304,107,0,-1,0,0
19497375,372,-8303,108,0,-1,0,0
19497380,372,-8305,104,0,-1,0,0
19497385,374,-8306,101,0,-1,0,0
19497390,374,-8305,99,0,-1,0,0
19497395,368,-8307,99,0,-1,0,0
19497400,362,-8310,103,0,-1,0,0
19497405,355,-8312,108,0,-1,0,0
19497410,349,-8311,112,0,-1,0,0
19497415,349,-8312,119,0,0,0,0
19497420,353,-8310,129,0,0,0,0
19497425,360,-8309,139,0,0,0,0
19497430,372,-8306,150,0,0,0,0
19497435,384,-8304,156,0,0,0,0
19497440,394,-8301,157,0,0,0,0
19497445,398,-8300,167,0,0,0,0
19497450,400,-8303,182,-1,0,0,0
19497455,400,-8305,192,-1,0,0,0
19497460,402,-8303,201,-1,0,0,0
19497465,405,-8299,218,-1,0,0,0
19497470,410,-8297,230,-1,0,0,0
19497475,416,-8295,238,-1,-1,0,0
19497480,421,-8296,243,-1,-1,0,8
19497485,430,-8294,248,-1,0,0,8
19497490,435,-8294,248,-1,0,0,8
19497495,441,-8293,244,-1,0,0,8
19497500,450,-8292,240,-1,0,0,8
19497505,462,-8296,233,-1,0,0,8
19497510,469,-8298,225,-1,-1,0,8
19497515,476,-8297,221,-1,-1,0,8
19497520,483,-8296,225,-1,-1,0,8
19497525,488,-8296,237,-1,0,0,8
19497530,496,-8295,251,-1,0,0,8
19497535,506,-8294,255,-1,0,0,8
19497540,517,-8294,262,-1,0,0,8
19497545,525,-8291,270,-1,0,0,8
19497550,535,-8290,276,-1,0,0,8
19497555,544,-8289,278,-1,0,1,8
19497560,550,-8290,279,-2,0,1,8
19497565,551,-8290,282,-2,0,1,8
19497570,551,-8291,279,-2,1,1,8
19497575,547,-8291,273,-2,1,1,8
19497580,537,-8292,269,-2,2,1,8
19497585,520,-8293,269,-2,2,1,8
19497590,507,-8296,266,-2,4,1,8
19497595,497,-8298,258,-2,5,1,8
19497600,495,-8302,255,-2,6,1,8
19497605,499,-8303,249,-2,6,1,8
19497610,511,-8305,248,-2,6,1,8
19497615,525,-8304,242,-2,5,1,8
19497620,535,-8303,236,-2,5,1,8
19497625,543,-8301,233,-2,4,1,8
19497630,545,-8301,224,-2,4,1,8
19497635,538,-8303,219,-2,4,1,8
19497640,522,-8302,214,-2,3,1,8
19497645,493,-8302,213,-2,3,1,8
19497650,459,-8303,203,-2,3,1,8
19497655,424,-8304,192,-2,3,1,8
19497660,389,-8302,178,-2,4,2,8
19497665,361,-8300,165,-2,4,2,8
19497670,339,-8299,154,-2,5,1,8
19497675,325,-8298,145,-2,6,1,8
19497680,315,-8301,132,-2,6,1,8
19497685,303,-8303,118,-3,6,1,8
19497690,287,-8304,106,-3,5,1,8
19497695,260,-8304,91,-2,3,1,8
19497700,217,-8303,78,-2,1,1,8
19497705,155,-8304,73,-2,0,1,8
19497710,80,-8303,72,-2,-2,0,8
19497715,-7,-8300,79,-3,-4,0,8
19497720,-105,-8301,94,-3,-6,0,8
19497725,-216,-8301,121,-3,-7,0,8
19497730,-332,-8303,145,-3,-6,0,8
19497735,-451,-8306,174,-3,-6,-1,8
19497740,-571,-8309,202,-3,-5,-1,8
19497745,-697,-8310,225,-3,-4,-2,8
19497750,-831,-8310,244,-3,-3,-2,8
19497755,-986,-8311,251,-3,-2,-3,8
19497760,-1165,-8313,249,-3,-1,-4,8
19497765,-1359,-8314,229,-3,1,-5,8
19497770,-1557,-8316,198,-3,2,-6,8
19497775,-1752,-8318,155,-3,3,-6,8
19497780,-1938,-8322,108,-3,3,-7,8
19497785,-2098,-8324,54,-3,2,-8,8
19497790,-2229,-8320,7,-3,2,-9,8
19497795,-2331,-8317,-35,-3,1,-9,8
19497800,-2398,-8315,-67,-3,0,-10,8
19497805,-2441,-8311,-94,-3,-1,-11,8
19497810,-2472,-8306,-115,-3,-2,-12,8
19497815,-2506,-8299,-133,-3,-3,-13,8
19497820,-2546,-8294,-148,-3,-4,-14,8
19497825,-2599,-8292,-164,-3,-5,-16,8
19497830,-2654,-8287,-187,-3,-5,-17,8
19497835,-2702,-8278,-222,-2,-5,-17,8
19497840,-2740,-8269,-272,-2,-5,-18,8
19497845,-2759,-8258,-329,-2,-5,-19,8
19497850,-2757,-8249,-402,-2,-4,-20,8
19497855,-2727,-8241,-490,-2,-4,-21,8
19497860,-2673,-8231,-592,-1,-4,-22,8
19497865,-2597,-8218,-693,-1,-5,-23,8
19497870,-2508,-8207,-798,-1,-6,-24,8
19497875,-2409,-8197,-907,0,-8,-25,8
19497880,-2301,-8186,-1012,0,-9,-25,8
19497885,-2180,-8172,-1108,0,-10,-26,8
19497890,-2050,-8157,-1201,1,-12,-27,8
19497895,-1913,-8146,-1284,1,-13,-27,8
19497900,-1747,-8136,-1374,2,-13,-27,8
19497905,-1536,-8126,-1458,3,-13,-28,8
19497910,-1278,-8109,-1513,3,-15,-28,8
19497915,-988,-8097,-1556,4,-18,-29,8
19497920,-776,-8081,-1674,4,-20,-29,8
19497925,-571,-8067,-1768,5,-23,-29,8
19497930,-352,-8054,-1840,5,-23,-29,8
19497935,-133,-8036,-1915,6,-22,-28,8
19497940,110,-8023,-1955,6,-22,-28,8
19497945,372,-8007,-1979,7,-20,-28,8
19497950,660,-7990,-1988,7,-18,-28,8
19497955,955,-7976,-1993,8,-18,-27,8
19497960,1235,-7966,-1993,9,-18,-27,8
19497965,1516,-7958,-1986,9,-19,-26,8
19497970,1772,-7950,-1983,10,-20,-25,8
19497975,2008,-7943,-1975,11,-21,-24,8
19497980,2234,-7939,-1952,12,-22,-23,8
19497985,2434,-7940,-1955,13,-23,-22,8
19497990,2635,-7939,-1985,13,-26,-21,8
19497995,2824,-7939,-2051,14,-30,-19,8
19498000,2992,-7949,-2127,14,-32,-18,8
19498005,3130,-7952,-2181,14,-33,-18,8
19498010,3203,-7946,-2172,14,-33,-20,8
19498015,3408,-7922,-2245,14,-31,-21,8
19498020,3999,-7938,-2483,16,-25,-18,8
19498025,4377,-7944,-2539,18,-19,-14,8
19498030,4662,-7946,-2537,18,-27,-13,8
19498035,5047,-7944,-2600,19,-34,-13,8
19498040,5392,-7944,-2631,19,-33,-12,8
19498045,5590,-7944,-2576,20,-31,-12,8
19498050,5684,-7945,-2507,20,-33,-11,8
19498055,5724,-7948,-2421,21,-34,-10,8
19498060,5680,-7948,-2303,21,-30,-8,8
19498065,5590,-7948,-2171,22,-27,-6,8
19498070,5575,-7947,-2084,23,-26,-5,8
19498075,5583,-7948,-2047,24,-24,-3,8
19498080,5629,-7942,-2024,25,-25,-1,8
19498085,5752,-7935,-2041,26,-28,0,8
19498090,5902,-7927,-2077,26,-32,1,8
19498095,6020,-7918,-2087,27,-36,2,8
19498100,6131,-7907,-2070,27,-42,4,8
19498105,6223,-7893,-2025,28,-46,5,8
19498110,6241,-7875,-1957,28,-50,6,8
19498115,6185,-7857,-1887,29,-54,7,8
19498120,6121,-7838,-1770,30,-56,8,8
19498125,6142,-7831,-1569,30,-54,9,8
19498130,6251,-7821,-1313,30,-47,12,8
19498135,6366,-7797,-1118,30,-41,15,8
19498140,6573,-7771,-873,30,-41,16,8
19498145,6800,-7745,-604,30,-42,17,8
19498150,6973,-7720,-360,31,-44,18,8
19498155,7086,-7697,-113,31,-47,19,8
19498160,7071,-7677,162,31,-48,20,8
19498165,6966,-7663,450,30,-49,21,8
19498170,6817,-7647,703,30,-49,22,8
19498175,6627,-7632,933,29,-47,24,8
19498180,6434,-7615,1144,28,-44,25,8
19498185,6261,-7596,1358,27,-40,27,8
19498190,6107,-7579,1622,26,-37,28,8
19498195,5989,-7562,1899,26,-33,28,8
19498200,5872,-7542,2154,26,-32,29,8
19498205,5753,-7524,2481,26,-33,30,8
19498210,5608,-7508,2821,25,-32,31,8
19498215,5444,-7491,3082,25,-30,33,8
19498220,5288,-7489,3444,25,-30,34,8
19498225,5104,-7490,3885,23,-28,35,8
19498230,4905,-7485,4277,21,-25,35,8
19498235,4744,-7476,4661,19,-22,36,8
19498240,4564,-7472,5063,18,-18,37,8
19498245,4355,-7474,5486,16,-15,37,8
19498250,4144,-7481,5889,14,-13,38,8
19498255,3915,-7478,6206,13,-12,38,8
19498260,3685,-7475,6538,11,-10,39,8
19498265,3427,-7477,6830,9,-5,39,8
19498270,3163,-7483,7061,8,-1,40,8
19498275,2907,-7494,7261,6,3,40,8
19498280,2638,-7499,7375,4,5,40,8
19498285,2365,-7506,7448,2,8,40,8
19498290,2061,-7515,7502,0,11,40,8
19498295,1668,-7529,7596,-3,14,40,8
19498300,1250,-7536,7658,-5,16,39,8
19498305,842,-7540,7679,-7,19,38,8
19498310,428,-7541,7733,-9,23,37,8
19498315,39,-7553,7760,-11,25,37,8
19498320,-355,-7565,7717,-12,26,36,8
19498325,-728,-7575,7628,-14,28,36,8
19498330,-1092,-7587,7460,-16,31,35,8
19498335,-1434,-7598,7266,-18,36,35,8
19498340,-1725,-7607,7060,-20,43,34,8
19498345,-1972,-7616,6872,-22,53,33,8
19498350,-2179,-7626,6721,-24,61,32,8
19498355,-2339,-7630,6598,-25,67,31,8
19498360,-2476,-7631,6480,-27,71,29,8
19498365,-2615,-7627,6349,-28,70,28,8
19498370,-2741,-7628,6184,-29,70,27,8
19498375,-2881,-7630,5982,-31,72,26,8
19498380,-3022,-7630,5751,-32,76,24,8
19498385,-3130,-7634,5492,-34,83,23,8
19498390,-3201,-7632,5229,-35,90,22,8
19498395,-3255,-7629,4981,-36,97,20,8
19498400,-3289,-7624,4739,-37,103,19,8
19498405,-3309,-7619,4482,-38,107,18,8
19498410,-3192,-7612,4185,-39,110,17,8
19498415,-2998,-7603,3815,-39,116,17,8
19498420,-3131,-7607,3435,-39,118,14,8
19498425,-3136,-7605,3135,-39,109,10,8
19498430,-3083,-7589,2730,-39,113,7,8
19498435,-3127,-7577,2392,-38,116,5,8
19498440,-3174,-7584,2096,-38,112,4,8
19498445,-3243,-7592,1685,-39,106,5,8
19498450,-3649,-7644,930,-38,95,3,8
19498455,-3915,-7664,371,-37,75,1,8
19498460,-4149,-7671,-139,-37,77,0,8
19498465,-4344,-7677,-704,-37,88,-1,8
19498470,-4430,-7684,-1111,-37,91,-2,8
19498475,-4450,-7704,-1462,-37,91,-3,8
19498480,-4364,-7719,-1776,-36,87,-5,8
19498485,-4338,-7741,-1992,-35,80,-7,8
19498490,-4290,-7760,-2168,-34,70,-9,8
19498495,-4206,-7770,-2356,-32,58,-11,8
19498500,-4252,-7786,-2526,-31,48,-12,8
19498505,-4278,-7797,-2681,-30,35,-14,8
19498510,-4295,-7805,-2870,-29,28,-15,8
19498515,-4391,-7818,-3053,-27,23,-16,8
19498520,-4436,-7829,-3218,-26,17,-18,8
19498525,-4471,-7840,-3388,-25,14,-19,8
19498530,-4544,-7853,-3538,-24,10,-20,8
19498535,-4586,-7860,-3681,-23,4,-22,8
19498540,-4635,-7866,-3815,-22,2,-23,8
19498545,-4703,-7869,-3935,-20,0,-25,8
19498550,-4738,-7870,-4038,-19,-2,-26,8
19498555,-4766,-7874,-4121,-18,-2,-27,8
19498560,-4772,-7875,-4170,-17,-3,-28,8
19498565,-4734,-7869,-4173,-16,-3,-30,8
19498570,-4670,-7861,-4177,-15,-2,-31,8
19498575,-4559,-7851,-4167,-14,-2,-32,8
19498580,-4398,-7839,-4152,-13,-2,-33,8
19498585,-4210,-7825,-4157,-12,-3,-34,8
19498590,-3987,-7809,-4176,-10,-5,-35,8
19498595,-3752,-7796,-4222,-9,-6,-35,8
19498600,-3503,-7785,-4279,-8,-8,-36,8
19498605,-3243,-7773,-4346,-7,-11,-37,8
19498610,-2989,-7764,-4429,-6,-13,-37,8
19498615,-2725,-7755,-4539,-4,-15,-38,8
19498620,-2458,-7741,-4696,-3,-18,-38,8
19498625,-2212,-7728,-4872,-2,-21,-39,8
19498630,-1975,-7713,-5043,0,-24,-39,8
19498635,-1755,-7698,-5204,1,-26,-39,8
19498640,-1544,-7686,-5323,2,-30,-40,8
19498645,-1328,-7674,-5404,3,-33,-40,8
19498650,-1117,-7664,-5432,4,-34,-40,8
19498655,-901,-7652,-5407,5,-36,-40,8
19498660,-674,-7636,-5341,7,-39,-40,8
19498665,-443,-7625,-5285,8,-43,-40,8
19498670,-209,-7619,-5220,9,-48,-40,8
19498675,22,-7614,-5163,11,-51,-40,8
19498680,240,-7611,-5111,12,-54,-40,8
19498685,443,-7606,-5044,12,-56,-39,8
19498690,711,-7589,-5050,13,-57,-39,8
19498695,996,-7581,-5062,15,-56,-37,8
19498700,1218,-7571,-4998,16,-58,-36,8
19498705,1441,-7568,-5003,17,-61,-35,8
19498710,1661,-7564,-4961,17,-62,-35,8
19498715,1943,-7572,-4892,17,-59,-35,8
19498720,2131,-7594,-4603,18,-54,-36,8
19498725,2432,-7603,-4531,19,-51,-36,8
19498730,2990,-7609,-4363,19,-47,-35,8
19498735,3390,-7614,-4078,20,-40,-33,8
19498740,3710,-7613,-3925,20,-41,-32,8
19498745,4056,-7612,-3711,21,-43,-32,8
19498750,4306,-7615,-3480,22,-40,-31,8
19498755,4446,-7621,-3298,22,-37,-30,8
19498760,4543,-7631,-3098,23,-37,-29,8
19498765,4619,-7641,-2962,23,-36,-28,8
19498770,4656,-7652,-2860,24,-32,-26,8
19498775,4710,-7665,-2757,24,-28,-25,8
19498780,4832,-7676,-2690,25,-24,-24,8
19498785,4954,-7683,-2596,25,-25,-22,8
19498790,5084,-7693,-2477,25,-30,-21,8
19498795,5241,-7702,-2346,25,-36,-20,8
19498800,5284,-7706,-2226,26,-43,-19,8
19498805,5241,-7709,-2088,26,-50,-19,8
19498810,5409,-7737,-1773,26,-54,-17,8
19498815,5599,-7749,-1414,25,-47,-14,8
19498820,5705,-7748,-1150,24,-42,-12,8
19498825,5953,-7756,-811,24,-44,-11,8
19498830,6215,-7762,-473,24,-43,-10,8
19498835,6422,-7772,-162,24,-42,-9,8
19498840,6585,-7788,151,24,-42,-8,8
19498845,6681,-7806,436,23,-42,-7,8
19498850,6732,-7828,684,22,-40,-5,8
19498855,6709,-7850,913,21,-36,-4,8
19498860,6633,-7870,1128,20,-30,-2,8
19498865,6556,-7890,1312,19,-22,-1,8
19498870,6455,-7905,1502,18,-14,0,8
19498875,6370,-7921,1716,18,-9,2,8
19498880,6294,-7936,1917,17,-7,3,8
19498885,6190,-7947,2083,17,-9,4,8
19498890,6087,-7957,2234,16,-14,5,8
19498895,5959,-7968,2365,16,-19,7,8
19498900,5817,-7981,2481,16,-23,8,8
19498905,5620,-8004,2553,15,-27,9,8
19498910,5470,-8014,2618,14,-26,11,8
19498916,5374,-8018,2715,13,-19,12,8
19498920,5356,-8022,2856,12,-13,13,8
19498925,5366,-8025,3001,11,-8,14,8
19498930,5370,-8031,3139,10,-4,15,8
19498935,5364,-8034,3267,9,1,16,8
19498941,5356,-8036,3378,8,5,17,8
19498945,5331,-8034,3475,8,8,18,8
19498950,5270,-8030,3540,7,9,19,8
19498955,5178,-8028,3555,6,10,20,8
19498960,5057,-8023,3535,5,14,21,8
19498965,4920,-8019,3456,4,18,22,8
19498970,4778,-8017,3344,4,23,23,8
19498975,4642,-8015,3210,3,25,24,8
19498980,4503,-8013,3045,2,26,25,8
19498985,4349,-8004,2868,1,23,25,8
19498991,4166,-7994,2679,1,19,26,8
19498995,3948,-7987,2493,0,14,26,8
19499001,3696,-7981,2318,0,10,26,8
19499006,3420,-7976,2149,0,5,27,8
19499011,3116,-7974,1989,0,1,27,8
19499015,2795,-7974,1840,-1,-2,27,8
19499020,2466,-7974,1691,-1,-3,27,8
19499026,2136,-7980,1553,-1,-3,27,8
19499030,1827,-7984,1429,-1,-1,27,8
19499036,1548,-7989,1309,-1,2,27,8
19499041,1300,-7993,1207,-1,5,27,8
19499045,1089,-7998,1108,-1,10,27,8
19499050,913,-8004,1018,-2,15,27,8
19499056,762,-8008,929,-2,19,26,8
19499061,617,-8015,854,-2,22,26,8
19499066,488,-8024,779,-2,24,26,8
19499070,369,-8032,712,-2,24,25,8
19499075,244,-8044,661,-2,22,25,8
19499081,97,-8053,606,-2,18,24,8
19499085,-88,-8062,561,-2,15,24,8
19499091,-303,-8069,526,-2,13,23,8
19499096,-531,-8075,503,-2,12,22,8
19499100,-762,-8081,494,-2,10,21,8
19499106,-944,-8091,475,-3,8,20,8
19499111,-1100,-8102,461,-3,8,19,8
19499115,-1251,-8111,461,-2,8,18,8
19499121,-1425,-8118,482,-2,8,17,8
19499126,-1633,-8130,510,-2,7,17,8
19499131,-1840,-8139,540,-2,7,16,8
19499136,-2007,-8149,554,-2,10,15,8
19499141,-2141,-8160,549,-1,14,14,8
19499146,-2251,-8174,527,-1,17,13,8
19499151,-2318,-8187,501,-1,18,12,8
19499156,-2363,-8205,455,-1,19,12,8
19499161,-2410,-8224,365,-2,18,11,8
19499166,-2455,-8239,258,-2,16,11,8
19499171,-2493,-8253,154,-2,16,10,8
19499176,-2504,-8259,91,-3,17,10,8
19499181,-2487,-8262,71,-3,18,9,8
19499186,-2447,-8264,94,-3,18,8,8
19499191,-2392,-8263,151,-3,17,7,8
19499196,-2337,-8264,197,-3,14,6,8
19499201,-2293,-8268,219,-2,11,5,8
19499206,-2260,-8274,208,-2,8,5,8
19499211,-2231,-8282,168,-2,6,4,8
19499216,-2193,-8290,118,-2,6,4,8
19499221,-2138,-8296,55,-2,6,3,8
19499226,-2063,-8302,-2,-2,7,3,8
19499231,-1968,-8308,-37,-2,8,2,8
19499236,-1854,-8309,-56,-2,8,1,8
19499241,-1732,-8309,-57,-2,7,1,8
19499246,-1614,-8309,-47,-2,5,1,8
19499251,-1506,-8309,-41,-1,2,0,8
19499256,-1407,-8309,-33,-1,0,0,8
19499261,-1311,-8313,-30,-1,-1,-1,8
19499266,-1218,-8315,-36,-1,-1,-1,8
19499271,-1135,-8314,-38,-1,-1,-1,8
19499276,-1050,-8312,-39,-1,-1,-1,8
19499281,-960,-8310,-31,-1,0,-2,8
19499286,-871,-8311,-16,-1,0,-2,8
19499291,-780,-8309,10,-1,1,-2,8
19499296,-687,-8307,44,-1,2,-2,8
19499301,-597,-8307,81,-1,2,-2,8
19499306,-514,-8306,114,0,3,-2,8
19499311,-436,-8308,149,0,3,-2,8
19499316,-363,-8309,175,0,3,-2,8
19499321,-296,-8308,200,0,4,-2,8
19499326,-129,-8291,264,0,4,-3,8
19499331,74,-8281,349,0,8,-3,8
19499336,74,-8283,306,0,8,-3,8
19499341,6,-8286,291,0,1,-3,8
19499346,-71,-8285,230,-1,5,-2,8
19499351,-100,-8286,189,-1,10,-2,8
19499356,-74,-8288,226,-1,11,-2,8
19499361,-22,-8290,246,-1,10,-1,8
19499366,107,-8290,263,-1,9,-2,8
19499371,264,-8290,300,0,8,-2,8
19499376,349,-8295,286,0,7,-2,8
19499381,449,-8298,302,0,1,-2,8
19499386,484,-8299,294,0,0,-2,8
19499391,477,-8299,297,-1,-2,-2,8
19499396,478,-8292,323,-1,-1,-2,8
19499401,456,-8290,339,-1,2,-2,8
19499406,476,-8289,383,-1,2,-1,8
19499411,504,-8289,402,-1,2,-1,8
19499416,515,-8290,419,-1,1,-1,8
19499421,548,-8288,439,-1,-1,-1,8
19499426,570,-8287,427,-1,-1,-1,8
19499431,587,-8288,421,-1,-1,-1,8
19499436,602,-8290,410,-1,-1,-1,8
19499441,607,-8288,400,-1,0,-1,8
19499446,602,-8288,414,-1,1,-1,8
19499451,602,-8288,422,-1,2,-1,8
19499456,596,-8288,441,-1,2,0,8
19499461,579,-8288,461,-1,2,0,8
19499466,569,-8290,469,-1,2,0,8
19499471,550,-8293,462,-1,2,0,8
19499476,527,-8292,440,-1,1,0,8
19499481,512,-8291,404,-1,1,0,0
19499486,494,-8293,370,-1,2,0,0
19499491,480,-8294,336,-1,2,0,0
19499496,482,-8293,304,-1,3,0,0
19499501,476,-8289,293,-1,3,0,0
19499506,472,-8287,290,-1,3,0,0
19499511,466,-8288,286,-1,3,0,0
19499516,454,-8285,293,-1,3,0,0
19499521,446,-8285,293,-1,2,0,0
19499526,432,-8285,291,-1,2,1,0
19499531,419,-8284,290,-1,2,1,0
19499536,412,-8285,278,-1,2,1,0
19499541,402,-8288,270,-1,2,1,0
19499546,394,-8288,264,-1,3,1,0
19499551,390,-8286,260,-1,3,1,0
19499556,384,-8285,262,-1,4,1,0
19499561,378,-8283,262,-1,4,1,0
19499566,362,-8283,264,-1,4,1,0
19499571,347,-8284,282,-1,4,1,0
19499576,331,-8285,297,-1,4,1,0
19499581,317,-8291,307,-1,4,1,0
19499586,306,-8293,319,-1,4,1,0
19499591,295,-8294,317,-1,4,1,0
19499596,293,-8296,316,-1,4,1,0
19499601,290,-8298,314,-1,3,1,0
19499606,285,-8300,314,-1,3,1,0
19499611,283,-8301,308,-1,3,1,0
19499616,274,-8301,305,-1,2,1,0
19499621,264,-8298,308,-1,2,1,0
19499626,250,-8296,316,-1,1,1,0
19499631,228,-8295,321,-1,1,1,0
19499636,210,-8298,326,-1,1,1,0
19499641,191,-8299,331,-1,1,1,0
19499646,177,-8303,334,-1,1,1,0
19499651,176,-8303,329,-1,2,1,0
19499656,174,-8304,334,-1,2,1,0
19499661,178,-8305,335,-1,3,1,0
19499666,185,-8305,325,-1,3,1,0
19499671,187,-8306,320,-1,4,1,0
19499676,188,-8303,322,-1,4,1,0
19499681,176,-8302,313,-1,5,1,0
19499686,170,-8299,310,-1,6,1,0
19499691,169,-8299,311,-1,6,1,0
19499696,167,-8294,297,-1,5,1,0
19499701,169,-8293,287,-1,3,1,0
19499706,163,-8290,261,-1,2,1,0
19499711,158,-8292,236,-1,0,1,0
19499716,154,-8296,213,-1,0,1,0
19499721,148,-8297,199,-1,-1,1,0
19499726,146,-8297,189,-1,-1,1,0
19499731,142,-8296,185,-1,-2,1,0
19499736,141,-8294,189,-1,-2,1,0
19499741,141,-8293,197,-1,-2,0,0
19499746,141,-8293,203,-1,-2,1,0
19499751,141,-8294,219,-1,-2,1,0
19499756,140,-8293,237,-1,-1,1,0
19499761,138,-8295,246,-1,-1,0,0
19499766,141,-8295,258,-1,0,1,0
19499771,149,-8299,266,-1,1,1,0
19499776,155,-8301,268,-1,1,1,0
19499781,161,-8301,274,-1,1,1,0
19499786,160,-8297,275,-1,1,1,0
19499791,159,-8294,271,-1,1,0,0
19499796,156,-8294,268,-1,1,0,0
19499801,143,-8295,261,-1,0,0,0
19499806,127,-8296,249,-1,-1,0,0
19499811,108,-8297,240,-1,-1,0,0
19499816,90,-8297,230,-1,-1,0,0
19499821,74,-8298,220,-1,-1,0,0
19499826,61,-8297,221,-1,-1,0,0
19499831,54,-8296,218,-1,0,0,0
19499836,46,-8295,221,-1,0,0,0
19499841,45,-8298,224,-1,0,0,0
19499846,46,-8296,227,-1,0,0,0
19499851,42,-8299,227,-1,-1,0,0
19499856,35,-8300,226,-1,-1,0,0
19499861,29,-8299,221,-1,-1,0,0
19499866,26,-8300,223,-1,-1,0,0
19499871,22,-8301,227,-1,0,0,0
19499876,17,-8300,235,-1,0,0,0
19499881,14,-8299,244,-1,0,0,0
19499886,13,-8300,250,-1,0,0,0
19499891,13,-8301,247,-1,-1,0,0
19499896,14,-8304,243,-1,-1,0,0
19499901,19,-8302,232,-1,-1,0,0
19499906,23,-8298,223,-1,-1,0,0
19499911,33,-8299,219,-1,-1,0,0
19499916,44,-8301,210,-1,-1,0,0
19499921,53,-8301,200,-1,-1,-1,0
19499926,59,-8299,194,0,-1,-1,0
19499931,64,-8298,188,0,-1,-1,0
19499936,62,-8298,190,0,-1,-1,0
19499941,58,-8297,193,0,-1,-1,0
19499946,52,-8296,197,0,-1,-1,0
19499951,43,-8299,199,0,-1,-1,0
19499956,41,-8301,204,0,-1,-1,0
19499961,43,-8301,210,0,0,-1,0
19499966,55,-8298,214,0,0,-1,0
19499971,71,-8295,220,0,0,-1,0
19499976,85,-8295,228,0,0,-1,0
19499981,101,-8297,238,0,0,-1,0
19499986,120,-8297,247,0,0,-1,0
19499991,130,-8297,258,0,0,-1,0
19499996,137,-8296,274,0,0,-1,0
19500001,138,-8296,284,0,0,-1,0
19500006,137,-8295,293,0,0,-1,0
19500011,134,-8294,305,0,0,-1,0
19500016,128,-8294,318,0,-1,-1,0
19500021,120,-8292,321,0,-1,-1,0
19500026,115,-8291,321,0,-1,-1,0
19500031,108,-8288,316,0,0,-1,0
19500036,107,-8287,311,0,0,-1,0
19500041,107,-8288,308,-1,0,-1,0
19500046,103,-8290,299,-1,-1,-1,0
19500051,106,-8291,296,-1,-1,-1,0
19500056,110,-8291,300,-1,-1,-1,0
19500061,118,-8295,307,-1,0,-1,0
19500066,125,-8294,316,-1,0,-1,0
19500071,137,-8296,337,-1,0,-1,0
19500076,144,-8298,348,-1,0,-1,0
19500081,149,-8298,356,-1,0,-1,0
19500086,152,-8297,355,-1,1,-1,0
19500091,156,-8298,354,-1,1,-1,0
19500096,156,-8300,348,-1,1,-1,0
19500101,155,-8302,335,-1,1,-1,0
19500106,156,-8302,332,-1,1,-1,0
19500111,163,-8302,328,-1,1,-1,0
19500116,171,-8304,324,-1,1,-1,0
19500121,183,-8301,328,-1,0,-1,0
19500126,193,-8302,330,-1,0,-1,0
19500131,204,-8302,330,-1,0,-1,0
19500136,211,-8298,332,-1,0,-1,0
19500141,209,-8299,333,-1,1,-1,0
19500146,204,-8301,332,-1,2,-1,0
19500151,194,-8302,329,-1,3,-1,0
19500156,184,-8302,327,-1,4,-1,0
19500161,178,-8305,323,-1,5,-1,0
19500166,176,-8303,321,-1,5,-1,0
19500171,177,-8303,314,-1,4,-1,0
19500176,182,-8303,305,-1,4,-1,0
19500181,185,-8303,295,-1,3,-1,0
19500186,187,-8303,276,-1,2,-1,0
19500191,187,-8304,260,-1,2,-1,0
19500196,181,-8305,250,-1,2,-1,0
19500201,170,-8305,242,-1,2,-1,0
19500206,166,-8306,238,-1,2,-1,0
19500211,160,-8304,234,-1,3,-1,0
19500216,156,-8304,231,-1,3,-1,0
19500221,152,-8302,227,-1,3,-1,0
19500226,147,-8301,222,-1,3,-1,0
19500231,143,-8302,209,-1,3,-1,0
19500236,140,-8303,186,-1,3,-1,0
19500241,132,-8303,170,-1,2,-1,0
19500246,125,-8301,157,-1,2,-1,0
19500251,122,-8301,148,-1,2,-1,0
19500256,120,-8302,149,-1,2,-1,0
19500261,118,-8300,159,-1,3,-1,0
19500266,114,-8299,170,-1,4,-1,0
19500271,118,-8299,181,-1,5,-1,0
19500276,126,-8299,192,-1,7,-1,0
19500281,140,-8300,207,-1,7,-1,0
19500286,160,-8298,220,-1,8,-1,0
19500291,177,-8299,229,-1,7,-1,0
19500296,191,-8301,229,-1,7,-1,0
19500301,199,-8302,228,-1,7,-1,0
19500306,198,-8302,230,-1,6,-1,0
19500311,193,-8301,219,-1,6,-1,0
19500316,180,-8300,202,-1,6,-1,0
19500321,163,-8300,191,-1,6,-1,0
19500326,144,-8299,183,-1,6,-1,0
19500331,131,-8301,180,-1,7,-1,0
19500336,127,-8301,179,-1,7,-1,0
19500341,130,-8301,179,-1,7,-1,0
19500346,133,-8303,195,-1,8,-1,0
19500351,140,-8302,209,-1,8,-1,0
19500356,146,-8303,217,-1,9,-1,0
19500361,155,-8305,223,-1,9,-1,0
19500366,161,-8303,226,-1,10,-1,0
19500371,170,-8303,235,-1,10,-1,0
19500376,183,-8304,242,-1,10,-1,0
19500381,197,-8302,247,-1,9,-1,0
19500386,210,-8300,251,-1,8,-1,0
19500391,221,-8301,245,-1,7,-1,0
19500396,232,-8300,238,-1,6,-1,0
19500401,246,-8302,226,-1,5,-1,0
19500406,257,-8301,213,-1,3,-1,0
19500411,257,-8302,205,-1,2,-1,0
19500416,262,-8300,198,-1,2,-1,0
19500421,276,-8299,201,-1,1,-1,0
19500426,291,-8298,207,-1,0,-1,0
19500431,300,-8296,210,-1,-2,-1,0
19500436,300,-8296,211,-1,-4,-1,0
19500441,294,-8296,207,0,-5,-1,0
19500446,278,-8296,201,0,-6,-1,0
19500451,256,-8294,195,0,-6,-1,0
19500456,229,-8294,191,-1,-5,-1,0
19500461,152,-8299,191,-1,0,-1,0
19500466,120,-8300,187,-1,8,-1,0
19500471,148,-8296,208,-1,12,-1,0
19500476,168,-8296,250,-1,10,-1,0
19500481,182,-8294,285,-1,4,-1,0
19500486,184,-8292,295,-1,0,-1,0
19500491,182,-8291,289,0,-1,-1,0
19500496,180,-8291,264,0,0,-1,0
19500501,179,-8293,224,0,0,-1,0
19500506,177,-8294,181,0,-1,-1,0
19500511,161,-8297,140,0,-2,-1,0
19500516,145,-8299,110,-1,-2,-1,0
19500521,144,-8299,104,-1,-1,-1,0
19500526,142,-8298,112,-1,0,-1,0
19500531,152,-8298,143,-1,0,-1,0
19500536,171,-8298,166,0,0,-1,0
19500541,185,-8299,191,0,0,-1,0
19500546,207,-8301,208,0,0,-1,0
19500551,232,-8300,208,0,0,-1,0
19500556,253,-8303,203,0,0,-1,0
19500561,280,-8303,199,0,0,-1,0
19500566,306,-8302,192,0,0,-1,0
19500571,322,-8302,197,0,-1,-1,0
19500576,328,-8303,206,0,-1,-1,0
19500581,325,-8301,211,0,-1,-1,0
19500586,307,-8302,214,0,-1,-1,0
19500591,280,-8303,218,0,-1,-1,0
19500596,249,-8303,210,0,-1,-1,0
19500601,225,-8302,202,0,0,-1,0
19500606,205,-8302,191,0,0,-1,0
19500611,190,-8302,176,0,0,-1,0
19500616,180,-8303,165,0,0,-1,0
19500621,173,-8305,157,0,1,-1,0
19500626,166,-8307,157,0,1,-1,0
19500631,162,-8305,156,0,1,-1,0
19500636,158,-8306,170,0,1,-1,0
19500641,155,-8304,188,0,1,-1,0
19500646,151,-8304,204,0,1,-1,0
19500651,152,-8303,220,0,2,-1,0
19500656,157,-8300,238,0,3,-1,0
19500661,162,-8302,250,0,4,-1,0
19500666,164,-8303,258,0,5,-1,0
19500671,168,-8301,259,0,5,-1,0
19500676,171,-8302,261,0,6,-1,0
19500681,175,-8301,261,0,6,-1,0
19500686,179,-8301,261,0,6,-1,0
19500691,184,-8302,260,0,7,-1,0
19500696,189,-8304,258,0,6,-1,0
19500701,200,-8304,256,-1,5,-1,0
19500706,209,-8301,258,-1,3,-1,0
19500711,218,-8299,266,0,2,-1,0
19500716,229,-8298,272,0,0,-1,0
19500721,238,-8299,273,0,-1,-1,0
19500726,237,-8300,272,0,-2,-1,0
19500731,231,-8301,258,0,-2,-1,0
19500736,230,-8301,241,0,-1,-1,0
19500741,221,-8302,236,0,0,-1,0
19500746,222,-8304,233,-1,1,-1,0
19500751,226,-8303,241,-1,1,-1,0
19500756,226,-8300,249,-1,1,-1,0
19500761,225,-8302,255,-1,1,-1,0
19500766,226,-8302,262,-1,2,-1,0
19500771,226,-8302,265,-1,3,-1,0
19500776,227,-8301,269,-1,4,-1,0
19500781,227,-8300,275,-1,4,-1,0
19500786,230,-8300,281,-1,4,-1,0
19500791,233,-8299,284,-1,4,-1,0
19500796,236,-8299,287,-1,4,-1,0
19500801,244,-8296,281,-1,4,-1,0
19500806,251,-8295,279,-1,3,-1,0
19500811,257,-8299,280,-1,3,-1,0
19500816,260,-8300,271,-1,2,-1,0
19500821,258,-8304,260,-1,1,-1,0
19500826,253,-8306,250,-1,0,-1,0
19500831,252,-8304,235,-1,0,-1,0
19500836,251,-8304,225,-1,0,-1,0
19500841,253,-8303,219,-1,0,-1,0
19500846,257,-8302,219,-1,0,-1,0
19500851,261,-8304,215,-1,0,-1,0
19500856,269,-8305,218,-1,-1,-1,0
19500861,274,-8308,220,-1,-1,-1,0
19500866,274,-8307,221,-1,-2,-1,0
19500871,275,-8309,219,-1,-2,-1,0
19500876,274,-8309,214,-1,-2,-1,0
19500881,272,-8307,215,-1,-2,-1,0
19500886,269,-8307,214,-1,-1,-1,0
19500891,265,-8307,214,-1,-1,-1,0
19500896,256,-8308,221,-1,-1,-1,0
19500901,247,-8305,221,-1,-1,0,0
19500906,241,-8305,220,-1,-2,0,0
19500911,232,-8306,217,-1,-2,-1,0
19500916,223,-8305,205,-1,-1,0,0
19500921,222,-8306,197,-1,-1,-1,0
19500926,224,-8308,195,-1,-1,0,0
19500931,230,-8305,193,-1,-1,-1,0
19500936,235,-8306,190,-1,-1,-1,0
19500941,233,-8306,190,-1,-2,-1,0
19500946,232,-8307,192,0,-2,-1,0
19500951,227,-8304,192,0,-2,-1,0
19500956,220,-8303,198,0,-2,-1,0
19500961,210,-8304,199,0,-1,-1,0
19500966,202,-8303,198,0,-1,-1,0
19500971,196,-8303,194,0,0,-1,0
19500976,197,-8301,194,0,1,-1,0
19500981,206,-8299,194,0,1,-1,0
19500986,214,-8298,195,0,1,-1,0
19500991,217,-8303,189,0,0,-1,0
19500996,218,-8302,178,0,0,-1,0
19501001,212,-8301,155,0,0,-1,0
19501006,200,-8302,135,0,0,-1,0
19501011,189,-8305,116,0,1,-1,0
19501016,181,-8304,101,0,1,-1,0
19501021,174,-8305,100,0,1,-1,0
19501026,172,-8305,105,0,1,-1,0
19501031,182,-8303,122,0,1,-1,0
19501036,193,-8303,142,0,0,-1,0
19501041,203,-8304,163,0,-1,-1,0
19501046,213,-8303,175,0,-1,-1,0
19501051,221,-8304,188,0,-1,-1,0
19501056,230,-8307,197,0,-1,-1,0
19501061,235,-8305,204,0,-1,-1,0
19501066,235,-8305,209,0,-1,-1,0
19501071,235,-8305,213,0,-1,-1,0
19501076,240,-8307,218,0,-1,-1,0
19501081,239,-8305,228,0,-1,-1,0
19501086,241,-8303,235,0,-2,-1,0
19501091,239,-8301,247,0,-3,-1,0
19501096,236,-8298,249,0,-4,-1,0
19501101,231,-8298,247,0,-4,-1,0
19501106,233,-8297,244,0,-4,-1,0
19501111,239,-8298,247,0,-4,-1,0
19501116,246,-8300,243,0,-4,0,0
19501121,252,-8298,241,0,-5,-1,0
19501126,252,-8297,230,0,-5,-1,0
19501131,256,-8298,226,0,-5,-1,0
19501136,259,-8296,222,0,-4,-1,0
19501141,256,-8295,217,0,-4,-1,0
19501146,250,-8295,222,0,-3,-1,0
19501151,250,-8299,223,0,-3,0,0
19501156,251,-8299,229,0,-3,0,0
19501161,256,-8303,235,0,-2,0,0
19501166,270,-8305,241,0,-3,0,0
19501171,283,-8306,244,0,-3,0,0
19501176,291,-8306,258,0,-3,0,0
19501181,299,-8307,260,0,-4,0,0
19501186,298,-8306,263,0,-3,0,0
19501191,292,-8305,267,0,-3,0,0
19501196,284,-8306,267,0,-2,0,0
19501201,281,-8306,270,0,-2,0,0
19501206,278,-8305,274,0,-1,0,0
19501211,280,-8302,276,0,-1,0,0
19501216,284,-8302,274,0,-1,0,0
19501221,284,-8302,273,0,-1,0,0
19501226,284,-8301,269,0,-1,0,0
19501231,284,-8303,262,0,-1,0,0
19501236,280,-8305,256,0,-1,0,0
19501241,277,-8305,248,0,-1,0,0
19501246,272,-8304,247,0,0,0,0
19501251,268,-8302,254,0,-1,0,0
19501256,263,-8304,258,0,-1,0,0
19501261,258,-8304,262,0,-1,0,0
19501266,255,-8306,262,0,-1,0,0
19501271,251,-8304,254,0,-1,0,0
19501276,251,-8302,242,0,-2,0,0
19501281,248,-8303,228,0,-2,0,0
19501286,243,-8303,217,0,-2,0,0
19501291,235,-8304,204,0,-2,0,0
19501296,225,-8303,192,0,-2,0,0
19501301,216,-8302,192,0,-2,0,0
19501306,203,-8303,197,0,-1,0,0
19501311,196,-8301,196,0,-2,0,0
19501316,190,-8302,197,0,-2,0,0
19501321,189,-8303,204,0,-2,0,0
19501326,195,-8304,211,0,-2,0,0
19501331,199,-8298,219,0,-2,0,0
19501336,208,-8298,225,0,-2,0,0
19501341,213,-8296,232,0,-2,0,0
19501346,216,-8296,244,0,-2,0,0
19501351,216,-8299,254,0,-2,0,0
19501356,212,-8298,254,0,-2,0,0
19501361,206,-8297,255,0,-1,0,0
19501366,201,-8297,259,0,-1,0,0
19501371,193,-8298,259,0,-1,0,0
19501376,187,-8296,256,0,-2,0,0
19501381,185,-8298,257,0,-2,0,0
19501386,186,-8301,251,0,-2,0,0
19501391,190,-8301,248,0,-2,0,0
19501396,200,-8300,244,0,-3,0,0
19501401,204,-8298,244,0,-4,0,0
19501406,207,-8296,246,0,-5,0,0
19501411,209,-8297,249,0,-5,0,0
19501416,207,-8297,253,0,-5,0,0
19501421,203,-8297,255,0,-4,0,0
19501426,201,-8296,260,0,-4,0,0
19501431,205,-8296,265,0,-3,0,0
19501436,208,-8295,265,0,-3,0,0
19501441,205,-8295,266,0,-3,0,0
19501446,203,-8294,264,0,-3,0,0
19501451,207,-8295,258,0,-3,0,0
19501456,216,-8297,254,0,-3,0,0
19501461,232,-8299,249,0,-3,0,0
19501466,252,-8299,243,0,-4,0,0
19501471,266,-8300,240,0,-5,0,0
19501476,280,-8301,241,0,-5,0,0
19501481,293,-8301,245,0,-5,0,0
19501486,300,-8301,256,0,-5,0,0
19501491,295,-8302,270,-1,-6,0,0
19501496,281,-8300,284,-1,-7,0,0
19501501,261,-8296,297,0,-7,0,0
19501506,238,-8298,306,-1,-6,0,0
19501511,216,-8299,307,-1,-5,0,0
19501516,196,-8299,307,-1,-5,0,0
19501521,185,-8300,305,-1,-4,0,0
19501526,183,-8300,299,-1,-4,0,0
19501531,187,-8300,298,-1,-3,0,0
19501536,189,-8301,300,-1,-2,0,0
19501541,195,-8301,301,-1,-1,0,0
19501546,201,-8300,298,-1,0,0,0
19501552,204,-8298,294,-1,0,-1,0
19501556,203,-8301,290,-1,1,0,0
19501561,200,-8305,286,-1,1,0,0
19501566,195,-8308,275,-1,1,0,0
19501571,195,-8307,261,-1,1,0,0
19501576,197,-8307,252,-1,1,0,0
19501581,207,-8305,243,-1,1,0,0
19501586,217,-8305,234,-1,1,0,0
19501591,228,-8304,228,-1,1,0,0
19501596,236,-8306,220,-1,1,0,0
19501601,241,-8307,213,-1,1,0,0
19501606,245,-8305,209,-1,0,0,0
19501611,247,-8303,207,-1,0,0,0
19501616,244,-8301,205,-1,1,0,0
19501621,242,-8298,213,-1,1,0,0
19501626,242,-8299,220,-1,1,0,0
19501631,241,-8300,228,-1,1,0,0
19501636,241,-8302,234,-1,2,0,0
19501641,244,-8302,239,-1,2,0,0
19501646,249,-8300,238,-1,2,0,0
19501651,249,-8303,233,-1,2,0,0
19501656,249,-8304,229,-1,2,0,0
19501661,244,-8304,232,-1,2,0,0
19501666,239,-8302,232,-1,2,0,0
19501671,233,-8304,233,-1,2,0,0
19501677,228,-8304,235,-1,2,0,0
19501681,224,-8303,238,-1,1,0,0
19501687,219,-8302,244,-1,1,0,0
19501691,212,-8300,255,-1,1,0,0
19501696,206,-8301,261,-1,1,0,0
19501701,205,-8302,267,-1,2,0,0
19501706,203,-8305,275,-1,2,0,0
19501711,204,-8306,276,-1,2,0,0
19501716,207,-8306,276,-1,2,0,0
19501721,211,-8304,281,-1,2,0,0
19501726,215,-8303,283,-1,2,0,0
19501731,217,-8302,284,-1,2,0,0
19501736,219,-8305,276,-1,2,0,0
19501741,216,-8306,268,-1,2,0,0
19501746,208,-8305,258,-1,1,0,0
19501751,197,-8302,249,-1,1,0,0
19501756,182,-8300,241,-1,0,0,0
19501761,167,-8298,232,-1,0,0,0
19501766,151,-8296,221,-1,0,0,0
19501771,138,-8297,207,-1,0,0,0
19501777,128,-8297,201,-1,0,-1,0
19501781,125,-8298,195,-1,0,-1,0
19501786,123,-8297,193,-1,0,-1,0
19501791,125,-8297,192,-1,0,-1,0
19501796,129,-8299,191,-1,0,0,0
19501802,132,-8298,193,-1,-1,-1,0
19501807,135,-8298,198,-1,0,-1,0
19501811,138,-8297,204,-1,0,-1,0
19501817,140,-8296,208,-1,1,-1,0
19501821,143,-8293,214,-1,2,-1,0
19501826,145,-8296,221,-1,2,-1,0
19501832,149,-8299,223,-1,2,-1,0
19501836,151,-8300,220,-1,2,-1,0
19501841,155,-8300,219,-1,1,-1,0
19501846,162,-8302,217,-1,0,-1,0
19501852,172,-8303,213,-1,-1,-1,0
19501857,177,-8301,211,-1,-1,-1,0
19501862,181,-8299,206,-1,-2,-1,0
19501867,184,-8297,199,-1,-2,-1,0
19501872,181,-8299,186,-1,-2,-1,0
19501877,173,-8301,174,-1,-2,-1,0
19501882,162,-8301,162,-1,-1,-1,0
19501887,158,-8301,158,-1,0,-1,0
19501891,165,-8301,155,-1,0,-1,0
19501897,178,-8301,156,-1,0,-1,0
19501902,201,-8297,161,-1,-1,-1,0
19501907,227,-8296,171,-1,-2,-1,0
19501912,248,-8298,186,0,-3,-1,0
19501916,268,-8301,192,0,-3,-1,0
19501922,279,-8302,192,0,-3,-1,0
19501927,279,-8302,194,0,-3,-1,0
19501931,273,-8301,191,0,-2,-1,0
19501937,261,-8297,185,0,-2,-1,0
19501942,246,-8296,180,0,-1,-1,0
19501946,234,-8296,175,0,0,-1,0
19501952,226,-8296,175,0,1,-1,0
19501957,226,-8296,175,0,2,-1,0
