millis,ax,ay,az,gx,gy,gz,label
290349,419,-8156,-1096,1,-6,0,0
290354,418,-8156,-1103,1,-6,0,0
290359,415,-8155,-1099,1,-6,0,0
290364,411,-8156,-1093,1,-5,0,0
290369,406,-8155,-1086,1,-4,0,0
290374,402,-8152,-1074,1,-4,0,0
290379,399,-8152,-1062,1,-3,0,0
290384,393,-8151,-1046,1,-2,0,0
290389,380,-8151,-1029,1,-2,0,0
290394,360,-8152,-1006,1,-2,0,0
290399,333,-8153,-979,1,-3,0,0
290404,299,-8155,-965,1,-4,0,0
290409,269,-8158,-947,1,-6,0,0
290414,248,-8160,-935,1,-6,0,0
290419,234,-8160,-933,1,-5,0,0
290423,233,-8159,-930,1,-4,0,0
290429,248,-8158,-930,1,-4,0,0
290434,271,-8161,-934,1,-4,0,0
290439,286,-8162,-943,1,-6,0,0
290443,289,-8162,-958,1,-7,0,0
290449,284,-8163,-970,1,-8,0,0
290454,271,-8165,-976,1,-8,0,0
290459,257,-8162,-975,1,-7,0,0
290463,243,-8161,-970,1,-5,0,0
290469,225,-8159,-951,1,-3,0,0
290474,205,-8161,-918,1,-1,0,0
290478,181,-8166,-875,1,-1,0,0
290483,158,-8167,-833,1,-1,0,0
290488,136,-8166,-785,0,-1,0,0
290493,122,-8168,-737,0,-1,0,0
290498,116,-8169,-694,0,-1,0,0
290503,122,-8167,-651,0,-1,0,0
290508,134,-8166,-614,0,-1,0,0
290513,151,-8167,-577,0,-1,0,0
290518,165,-8164,-545,0,-1,0,0
290523,177,-8161,-523,0,-1,0,0
290528,183,-8163,-512,0,0,0,0
290533,186,-8161,-508,-1,0,0,0
290538,194,-8160,-512,-1,0,0,0
290543,203,-8156,-525,-1,0,0,0
290548,211,-8157,-549,-1,0,0,0
290553,221,-8155,-578,-1,0,0,0
290558,235,-8154,-607,-1,0,0,0
290563,248,-8158,-637,-1,0,0,0
290568,265,-8157,-668,-1,0,0,0
290573,284,-8160,-696,-1,0,0,0
290578,304,-8157,-720,-1,1,0,0
290583,327,-8157,-738,-1,1,0,0
290588,346,-8153,-752,-1,1,0,0
290593,355,-8153,-762,-1,0,0,0
290598,353,-8150,-774,-1,-1,0,0
290603,335,-8152,-797,-1,-1,0,0
290608,307,-8151,-827,-1,-1,0,0
290613,279,-8154,-859,-1,-1,0,0
290618,251,-8155,-892,-1,0,0,0
290623,227,-8158,-920,-1,0,0,0
290628,199,-8160,-940,-1,0,0,0
290633,173,-8161,-946,-1,0,0,0
290638,157,-8162,-947,-1,0,0,0
290643,140,-8164,-939,-1,0,0,0
290648,123,-8163,-917,-1,0,-1,0
290653,117,-8164,-893,-2,0,-1,0
290658,119,-8163,-860,-2,-1,-1,0
290663,125,-8159,-843,-2,-1,-1,0
290668,139,-8159,-855,-1,-1,-1,0
290673,163,-8156,-878,-1,-1,-1,0
290678,189,-8162,-923,-1,-1,-1,0
290683,216,-8162,-985,-1,-1,-1,0
290688,237,-8164,-1035,-1,-1,-1,0
290693,254,-8161,-1082,-1,-1,-1,0
290698,267,-8157,-1106,-1,0,-1,0
290703,272,-8160,-1119,-1,0,-1,0
290708,283,-8156,-1129,-1,0,-1,0
290713,294,-8156,-1134,-1,0,-1,0
290718,298,-8157,-1140,-1,0,-1,0
290723,304,-8157,-1146,-1,0,-1,0
290728,311,-8156,-1163,-1,0,-1,0
290733,318,-8152,-1186,0,0,0,0
290738,329,-8154,-1207,0,-1,0,0
290743,340,-8157,-1226,0,-1,0,0
290748,360,-8157,-1235,0,0,0,0
290753,389,-8158,-1233,0,0,0,0
290758,420,-8157,-1217,0,0,0,0
290763,446,-8153,-1197,0,1,0,0
290768,468,-8152,-1167,0,1,0,0
290773,481,-8150,-1135,0,1,0,0
290778,485,-8151,-1102,0,0,0,0
290783,475,-8153,-1072,0,-1,0,0
290788,457,-8152,-1037,0,-1,0,0
290793,435,-8153,-1002,0,-1,0,0
290798,413,-8156,-967,0,-1,0,0
290803,382,-8155,-931,0,-1,0,0
290808,359,-8157,-901,0,-1,0,0
290813,339,-8160,-889,0,-2,0,0
290818,301,-8158,-889,0,-3,0,0
290823,268,-8157,-899,0,-2,0,0
290828,247,-8159,-916,0,0,0,0
290833,228,-8161,-929,0,0,0,0
290838,214,-8162,-941,0,-1,0,0
290843,197,-8160,-941,-1,-1,0,0
290848,184,-8159,-935,-1,0,0,0
290853,183,-8158,-932,0,0,0,0
290858,184,-8159,-927,0,0,0,0
290863,183,-8161,-926,0,-1,0,0
290868,179,-8159,-935,0,-1,0,0
290873,169,-8158,-949,0,-1,0,0
290878,158,-8158,-968,0,-1,0,0
290883,140,-8159,-989,0,-1,0,0
290888,127,-8160,-1005,0,-1,0,0
290893,119,-8162,-1018,0,-1,0,0
290898,114,-8163,-1021,0,-1,0,0
290903,114,-8164,-1023,0,-1,0,0
290908,119,-8163,-1025,0,-1,0,0
290913,127,-8161,-1016,0,-1,-1,0
290918,138,-8160,-1005,0,-1,-1,0
290923,149,-8160,-984,0,-1,-1,0
290928,162,-8158,-960,0,-1,-1,0
290933,173,-8158,-939,0,-2,-1,0
290938,175,-8158,-928,0,-2,-1,0
290943,172,-8157,-927,0,-2,-1,0
290948,167,-8156,-927,0,-1,-1,0
290953,162,-8157,-938,0,-2,-1,0
290958,152,-8155,-950,0,-2,-1,0
290963,138,-8154,-956,0,-1,-1,0
290968,127,-8153,-960,0,-1,-1,0
290973,122,-8155,-954,0,0,-1,0
290978,124,-8154,-945,0,0,-1,0
290983,136,-8154,-934,0,0,-1,0
290988,151,-8152,-918,0,0,-1,0
290993,170,-8155,-906,0,0,-1,0
290998,190,-8160,-890,0,0,-1,0
291003,209,-8158,-880,0,0,-1,0
291008,221,-8160,-877,0,-1,-1,0
291013,222,-8163,-876,0,-1,-1,0
291018,226,-8163,-890,0,-1,-1,0
291023,229,-8162,-907,0,-1,-1,0
291028,234,-8162,-931,0,-1,-1,0
291033,237,-8159,-955,0,-1,-1,0
291038,240,-8160,-979,0,-1,-1,0
291042,243,-8160,-1002,0,-1,-1,0
291048,246,-8160,-1019,0,0,-1,0
291053,248,-8162,-1022,0,0,-1,0
291057,251,-8161,-1015,0,0,-1,0
291062,252,-8161,-1006,0,0,-1,0
291067,253,-8162,-984,0,0,-1,0
291072,252,-8164,-958,0,0,-1,0
291077,250,-8165,-932,0,0,-1,0
291082,247,-8166,-910,0,0,-1,0
291087,243,-8168,-894,0,-1,-1,0
291092,238,-8168,-887,0,-1,-1,0
291097,232,-8167,-887,0,-1,-1,0
291102,222,-8166,-887,0,-1,-1,0
291107,212,-8165,-885,0,-1,-1,0
291112,203,-8164,-884,0,-1,-1,0
291117,196,-8160,-883,0,0,-1,0
291122,195,-8161,-885,-1,0,-1,0
291127,195,-8162,-888,-1,-1,-1,0
291132,199,-8162,-885,-1,-1,-1,0
291137,208,-8162,-875,-1,-1,-1,0
291142,222,-8160,-858,-1,-1,-1,0
291147,234,-8161,-837,-1,-1,-1,0
291152,247,-8163,-819,-1,-1,-1,0
291157,260,-8164,-803,-1,-1,-1,0
291162,274,-8162,-789,-1,-1,-1,0
291167,279,-8160,-779,-1,-1,-1,0
291172,284,-8158,-769,-1,-1,-1,0
291177,287,-8157,-770,-1,-1,-1,0
291182,284,-8156,-773,-1,-1,-1,0
291187,285,-8156,-778,-1,-1,-1,0
291192,288,-8155,-783,-1,-1,-1,0
291197,296,-8155,-788,-1,-1,-1,0
291202,305,-8156,-793,-1,-2,-1,0
291207,311,-8158,-804,-1,-2,-1,0
291212,314,-8159,-817,-1,-2,-1,0
291217,316,-8159,-826,-1,-1,-1,0
291222,317,-8162,-840,-1,-1,-1,0
291227,319,-8158,-854,-1,-1,-1,0
291232,324,-8157,-872,-1,-1,-1,0
291237,328,-8156,-892,-1,-1,-1,0
291242,332,-8158,-910,-1,0,-1,0
291247,333,-8162,-931,-1,0,-1,0
291252,330,-8163,-946,-1,0,-1,0
291257,326,-8163,-954,-1,0,-1,0
291262,323,-8162,-960,-1,0,-1,0
291267,321,-8160,-962,-1,0,-1,0
291272,320,-8159,-964,-1,0,-1,0
291277,322,-8156,-963,-1,0,-1,0
291282,324,-8156,-965,-1,0,-1,0
291287,327,-8155,-962,-1,-1,-1,0
291292,329,-8156,-958,-1,-1,-1,0
291297,328,-8155,-948,-1,-1,-1,0
291302,324,-8159,-938,-1,-1,-1,0
291307,321,-8160,-932,-1,-1,-1,0
291312,315,-8159,-925,-1,-1,-1,0
291317,310,-8158,-913,-1,-1,-1,0
291322,305,-8156,-910,-1,-1,-1,0
291327,302,-8157,-917,-1,-1,-1,0
291332,302,-8155,-922,-1,-1,-1,0
291337,305,-8155,-932,-1,-1,-1,0
291342,314,-8157,-941,-1,-1,-1,0
291347,325,-8155,-954,-1,-1,-1,0
291352,343,-8155,-971,-1,-1,-1,0
291357,362,-8151,-988,-1,-1,-1,0
291362,377,-8152,-1008,-1,-1,-1,0
291367,390,-8155,-1032,-1,-1,-1,0
291372,400,-8158,-1059,-1,0,-1,0
291377,402,-8163,-1087,-1,-1,-1,0
291382,401,-8164,-1113,-1,0,-1,0
291387,398,-8167,-1134,-1,0,-1,0
291392,391,-8165,-1147,-1,0,-1,0
291397,382,-8163,-1156,-1,0,-1,0
291402,377,-8162,-1160,-1,0,-1,0
291407,375,-8162,-1157,-1,0,-1,0
291412,377,-8166,-1156,-1,0,-1,0
291417,379,-8167,-1149,-1,0,-1,0
291422,384,-8167,-1137,-1,0,-1,0
291427,390,-8169,-1130,-1,0,-1,0
291432,397,-8166,-1127,-1,0,-1,0
291437,396,-8162,-1127,-1,0,-1,0
291442,391,-8161,-1122,0,0,-1,0
291447,379,-8160,-1118,0,0,-1,0
291452,362,-8158,-1110,0,0,-1,0
291457,347,-8159,-1099,0,0,-1,0
291462,333,-8157,-1097,0,0,0,0
291467,324,-8155,-1103,0,0,0,0
291472,325,-8154,-1114,0,0,0,0
291477,334,-8155,-1130,0,0,0,0
291482,349,-8154,-1142,0,0,0,0
291487,362,-8155,-1151,0,0,0,0
291492,373,-8154,-1150,0,-1,0,0
291497,377,-8151,-1150,0,-1,0,0
291502,379,-8151,-1146,0,-1,0,0
291507,378,-8150,-1142,0,-1,0,0
291512,377,-8152,-1139,0,-1,0,0
291517,374,-8155,-1141,0,-1,0,0
291522,378,-8156,-1145,0,-1,0,0
291527,386,-8155,-1148,0,0,0,0
291532,395,-8153,-1141,0,0,0,0
291537,412,-8153,-1131,0,0,0,0
291542,436,-8153,-1115,0,1,0,0
291547,458,-8152,-1095,0,1,0,0
291552,479,-8151,-1075,0,2,0,0
291557,496,-8150,-1046,0,2,0,0
291562,504,-8153,-1014,0,1,0,0
291567,492,-8157,-987,0,1,0,0
291572,470,-8157,-967,0,0,0,0
291577,431,-8159,-956,0,0,0,0
291582,377,-8160,-946,0,-1,0,0
291587,315,-8160,-942,0,-1,0,0
291592,258,-8159,-945,0,-1,0,0
291597,213,-8162,-951,0,-1,0,0
291602,187,-8161,-958,0,-1,0,0
291607,180,-8158,-967,0,-1,0,0
291612,188,-8158,-979,0,-1,0,0
291616,208,-8157,-984,0,-1,0,0
291621,238,-8156,-980,0,-1,0,0
291626,265,-8155,-976,0,-1,0,0
291632,286,-8153,-967,0,-1,0,0
291636,301,-8150,-956,0,-1,0,0
291641,312,-8149,-945,0,-1,0,0
291646,318,-8149,-937,0,-1,0,0
291651,317,-8149,-927,0,-1,0,0
291656,314,-8150,-923,0,-1,0,0
291661,311,-8153,-924,0,-1,0,0
291666,302,-8155,-922,0,0,0,0
291671,295,-8157,-920,0,0,0,0
291676,285,-8157,-917,0,0,0,0
291681,272,-8157,-916,0,0,0,0
291686,261,-8159,-917,0,0,0,0
291691,253,-8157,-919,0,0,0,0
291696,249,-8159,-920,0,0,0,0
291701,248,-8157,-926,0,0,0,0
291706,250,-8159,-927,0,0,0,0
291711,256,-8162,-924,0,0,0,0
291716,263,-8161,-920,0,0,0,0
291721,268,-8162,-914,0,-1,0,0
291726,272,-8161,-908,0,-1,0,0
291731,274,-8159,-906,0,0,0,0
291736,272,-8159,-907,0,0,0,0
291741,265,-8157,-907,0,0,0,0
291746,250,-8157,-900,0,0,0,0
291751,238,-8160,-893,0,0,0,0
291756,232,-8162,-886,0,0,0,0
291761,227,-8164,-884,0,0,0,0
291766,223,-8163,-884,0,0,0,0
291771,221,-8165,-886,0,-1,0,0
291776,219,-8164,-889,0,-1,0,0
291781,217,-8163,-891,0,0,-1,0
291786,218,-8161,-889,0,0,-1,0
291791,218,-8161,-893,0,0,0,0
291796,221,-8159,-892,0,0,0,0
291801,227,-8159,-899,0,0,0,0
291806,236,-8158,-905,0,0,0,0
291811,247,-8158,-910,0,0,-1,0
291816,258,-8158,-914,0,0,0,0
291821,268,-8158,-923,0,0,-1,0
291826,279,-8161,-931,0,0,-1,0
291831,287,-8161,-941,0,-1,-1,0
291836,290,-8158,-949,0,-1,-1,0
291841,287,-8158,-959,0,-1,-1,0
291846,283,-8159,-963,0,-1,-1,0
291851,279,-8160,-965,0,-1,-1,0
291856,274,-8163,-963,0,-1,-1,0
291861,267,-8163,-964,0,-1,-1,0
291866,262,-8161,-957,0,-1,-1,0
291871,259,-8161,-948,0,-1,-1,0
291876,258,-8160,-938,0,-1,-1,0
291881,257,-8158,-925,0,0,-1,0
291886,255,-8157,-912,0,0,-1,0
291891,255,-8159,-906,0,0,-1,0
291896,254,-8164,-905,0,0,-1,0
291901,258,-8162,-901,0,0,-1,0
291906,260,-8161,-900,0,-1,-1,0
291911,259,-8161,-899,0,-1,-1,0
291916,258,-8162,-902,0,0,-1,0
291921,260,-8162,-911,0,0,-1,0
291926,261,-8161,-917,0,0,-1,0
291931,265,-8161,-926,0,-1,-1,0
291936,269,-8162,-933,0,-1,-1,0
291941,274,-8163,-938,0,-1,-1,0
291946,282,-8161,-937,0,0,-1,0
291951,291,-8160,-937,0,0,-1,0
291956,301,-8159,-937,0,0,-1,0
291961,309,-8160,-938,0,0,-1,0
291966,310,-8159,-937,0,-1,-1,0
291971,307,-8157,-936,0,-1,-1,0
291976,300,-8158,-931,0,-1,-1,0
291981,287,-8159,-931,0,-1,-1,0
291986,276,-8156,-928,0,-1,-1,0
291991,266,-8158,-930,0,-1,-1,0
291996,258,-8158,-926,0,-1,-1,0
292001,260,-8161,-921,0,-1,-1,0
292006,267,-8162,-918,0,-1,-1,0
292011,279,-8163,-920,0,-1,-1,0
292016,295,-8160,-920,0,-1,-1,0
292021,312,-8161,-925,0,-1,-1,0
292026,334,-8160,-933,0,-1,-1,0
292031,352,-8159,-933,0,0,-1,0
292036,365,-8158,-937,0,0,-1,0
292041,375,-8160,-943,0,-1,-1,0
292046,382,-8161,-950,0,-1,-1,0
292051,381,-8164,-957,0,-1,-1,0
292056,374,-8166,-963,0,-1,-1,0
292061,361,-8164,-969,0,-1,-1,0
292066,354,-8163,-967,0,-1,-1,0
292071,344,-8162,-967,0,-1,-1,0
292076,338,-8162,-964,0,-1,0,0
292081,337,-8162,-957,0,-1,0,0
292086,337,-8164,-949,0,0,0,0
292091,341,-8167,-932,0,0,0,0
292096,345,-8169,-914,0,0,0,0
292101,343,-8168,-896,0,0,-1,0
292106,341,-8167,-873,0,0,0,0
292111,338,-8168,-857,0,-1,0,0
292116,331,-8168,-843,0,-1,0,0
292121,320,-8167,-834,0,-1,0,0
292126,311,-8166,-830,0,-1,-1,0
292131,302,-8166,-830,0,-1,-1,0
292136,290,-8166,-830,0,-1,-1,0
292141,281,-8166,-829,0,-1,0,0
292146,276,-8166,-833,0,-1,-1,0
292151,272,-8169,-837,0,-1,-1,0
292156,271,-8169,-840,0,0,-1,0
292161,273,-8169,-838,0,0,-1,0
292166,279,-8168,-839,0,0,-1,0
292171,286,-8169,-838,0,0,-1,0
292176,293,-8168,-826,0,0,-1,0
292181,305,-8166,-817,0,0,-1,0
292186,316,-8164,-807,0,0,-1,0
292191,325,-8162,-798,0,0,0,0
292196,330,-8162,-786,0,0,0,0
292201,333,-8165,-780,0,0,0,0
292206,332,-8166,-775,0,0,-1,0
292211,328,-8168,-778,0,0,-1,0
292216,321,-8171,-780,0,-1,-1,0
292221,312,-8171,-785,0,0,-1,0
292226,301,-8174,-791,0,0,-1,0
292231,290,-8173,-796,0,0,0,0
292235,282,-8169,-803,0,0,0,0
292240,277,-8167,-810,0,0,0,0
292246,277,-8166,-817,0,0,0,0
292250,277,-8166,-826,0,0,-1,0
292256,278,-8167,-842,0,0,-1,0
292261,282,-8167,-853,0,0,-1,0
292266,285,-8168,-860,0,0,-1,0
292270,292,-8171,-861,0,0,-1,0
292275,298,-8171,-857,0,0,-1,0
292280,304,-8167,-845,0,0,-1,0
292285,312,-8165,-834,0,-1,-1,0
292291,316,-8164,-822,0,-1,-1,0
292295,320,-8165,-816,0,-1,-1,0
292300,319,-8165,-812,0,-1,-1,0
292305,317,-8167,-814,0,-1,-1,0
292310,312,-8166,-823,0,-1,-1,0
292315,309,-8164,-826,0,-1,-1,0
292320,301,-8163,-831,0,-1,-1,0
292325,291,-8164,-840,0,-1,-1,0
292330,281,-8164,-849,0,-1,-1,0
292335,275,-8165,-855,0,-1,-1,0
292340,274,-8167,-860,0,-1,-1,0
292345,278,-8168,-871,0,0,-1,0
292350,281,-8168,-879,0,0,-1,0
292355,288,-8171,-885,0,0,0,0
292360,298,-8172,-884,0,0,0,0
292365,307,-8171,-884,0,0,0,0
292370,319,-8170,-882,0,0,0,0
292375,332,-8171,-872,0,0,0,0
292380,339,-8170,-863,0,0,0,0
292385,345,-8171,-846,0,0,0,0
292390,347,-8169,-833,0,0,0,0
292395,346,-8167,-819,0,0,0,0
292400,339,-8167,-810,0,0,0,0
292405,331,-8167,-802,0,-1,0,0
292410,322,-8167,-799,0,-1,0,0
292415,312,-8167,-794,0,-1,0,0
292420,305,-8164,-792,0,-1,0,0
292425,299,-8166,-794,0,-1,0,0
292430,290,-8164,-796,0,-1,0,0
292435,284,-8165,-800,0,-1,0,0
292440,279,-8162,-805,0,-1,0,0
292445,276,-8163,-813,0,-1,-1,0
292450,275,-8162,-823,0,-1,-1,0
292455,277,-8164,-831,0,-1,-1,0
292460,284,-8168,-838,0,-1,-1,0
292465,289,-8168,-841,0,-1,-1,0
292470,294,-8168,-838,0,0,-1,0
292475,301,-8166,-832,0,-1,-1,0
292480,304,-8164,-827,0,0,-1,0
292485,309,-8166,-825,0,0,-1,0
292490,310,-8170,-822,0,-1,-1,0
292495,306,-8170,-819,0,-1,-1,0
292500,304,-8170,-814,0,-1,-1,0
292505,299,-8168,-812,0,-1,0,0
292510,295,-8168,-814,0,-1,-1,0
292515,289,-8166,-819,0,-1,-1,0
292520,281,-8168,-825,0,-1,-1,0
292525,275,-8168,-831,0,-1,-1,0
292530,269,-8168,-841,0,-1,-1,0
292535,264,-8169,-847,0,-1,-1,0
292540,265,-8172,-849,0,-1,-1,0
292545,267,-8172,-856,0,-1,-1,0
292550,271,-8173,-860,0,-1,-1,0
292555,276,-8171,-863,0,-1,-1,0
292560,285,-8169,-861,0,0,-1,0
292565,293,-8171,-865,0,0,-1,0
292570,303,-8173,-863,0,0,-1,0
292575,312,-8173,-863,0,0,-1,0
292580,319,-8173,-860,0,0,-1,0
292585,325,-8171,-856,0,-1,-1,0
292590,327,-8167,-853,0,-1,-1,0
292595,328,-8166,-852,0,-1,-1,0
292600,325,-8165,-852,0,-1,-1,0
292605,321,-8164,-852,0,-1,-1,0
292610,315,-8164,-852,0,-1,-1,0
292615,308,-8167,-855,0,-1,-1,0
292620,300,-8166,-860,0,-1,-1,0
292625,297,-8164,-860,0,0,-1,0
292630,293,-8162,-859,0,0,0,0
292635,292,-8161,-854,0,0,-1,0
292640,294,-8163,-850,0,0,-1,0
292645,300,-8164,-847,0,0,-1,0
292650,306,-8164,-845,0,0,-1,0
292655,312,-8163,-843,0,0,-1,0
292660,314,-8163,-838,0,0,-1,0
292665,314,-8165,-835,0,0,-1,0
292670,311,-8166,-832,0,0,-1,0
292675,305,-8167,-826,0,0,-1,0
292680,297,-8166,-823,0,0,-1,0
292685,292,-8166,-821,0,-1,-1,0
292690,283,-8168,-814,0,-1,-1,0
292695,275,-8169,-808,0,-1,-1,0
292700,271,-8167,-802,0,-1,-1,0
292705,268,-8165,-794,0,-1,-1,0
292710,266,-8169,-790,-1,0,-1,0
292715,271,-8171,-784,-1,0,-1,0
292720,279,-8172,-780,-1,0,-1,0
292725,294,-8174,-782,-1,-1,-1,0
292730,304,-8173,-789,-1,-1,-1,0
292735,314,-8173,-797,-1,-1,-1,0
292740,322,-8172,-806,-1,-1,-1,0
292745,325,-8172,-813,-1,-1,-1,0
292750,323,-8171,-824,-1,-1,-1,0
292755,321,-8171,-835,-1,-1,-1,0
292760,316,-8169,-839,-1,0,-1,0
292765,312,-8168,-838,-1,-1,-1,0
292770,309,-8165,-842,-1,-1,-1,0
292775,308,-8164,-843,-1,-1,-1,0
292780,307,-8163,-847,-1,-1,-1,0
292785,303,-8166,-842,-1,-1,-1,0
292790,300,-8168,-841,-1,0,-1,0
292795,298,-8167,-829,-1,0,-1,0
292800,298,-8166,-822,-1,-1,-1,0
292805,294,-8165,-816,-1,-1,-1,0
292810,294,-8163,-812,-1,-1,-1,0
292815,299,-8161,-812,-1,-1,-1,0
292820,300,-8161,-818,-1,-1,-1,0
292825,301,-8162,-819,-1,-1,-1,0
292829,305,-8165,-822,-1,-1,-1,0
292835,307,-8165,-826,-1,-1,-1,0
292840,310,-8164,-824,-1,-1,-1,0
292845,310,-8165,-821,-1,-1,-1,0
292849,309,-8167,-821,-1,-1,-1,0
292855,304,-8167,-823,-1,0,-1,0
292860,304,-8164,-823,-1,0,-1,0
292864,307,-8163,-821,-1,0,-1,0
292869,308,-8162,-818,-1,0,-1,0
292874,311,-8161,-819,-1,0,-1,0
292879,316,-8162,-817,-1,0,-1,0
292884,321,-8165,-819,-1,0,-1,0
292889,324,-8163,-823,-1,0,-1,0
292894,326,-8163,-826,-1,0,-1,0
292899,328,-8165,-826,-1,0,-1,0
292904,330,-8168,-828,-1,0,-1,0
292909,329,-8169,-830,-1,0,-1,0
292914,330,-8168,-832,-1,0,-1,0
292919,330,-8169,-837,-1,0,-1,0
292924,331,-8168,-847,-1,0,-1,0
292929,329,-8166,-859,-1,0,-1,0
292934,328,-8165,-874,-1,-1,-1,0
292939,329,-8167,-879,-1,-1,-1,0
292944,332,-8171,-882,-1,-1,-1,0
292949,335,-8172,-886,-1,-1,0,0
292954,342,-8173,-889,-1,-1,-1,0
292959,346,-8172,-890,-1,-1,-1,0
292964,353,-8171,-895,-1,-1,0,0
292969,359,-8171,-897,0,-1,0,0
292974,361,-8170,-898,0,-1,0,0
292979,362,-8166,-894,-1,-1,0,0
292984,359,-8166,-888,-1,-1,-1,0
292989,351,-8167,-879,-1,-1,0,0
292994,340,-8169,-871,0,-1,-1,0
292999,327,-8169,-864,0,-1,-1,0
293004,316,-8167,-857,0,-1,-1,0
293009,308,-8167,-852,0,-1,0,0
293014,300,-8167,-853,-1,-1,0,0
293019,295,-8168,-854,-1,0,0,0
293024,295,-8170,-850,-1,-1,0,0
293029,294,-8170,-846,-1,0,-1,0
293034,294,-8171,-841,-1,0,-1,0
293039,298,-8172,-837,-1,0,-1,0
293044,303,-8170,-833,-1,0,0,0
293049,307,-8167,-828,-1,0,-1,0
293054,308,-8165,-829,0,0,0,0
293059,309,-8166,-828,-1,0,-1,0
293064,308,-8164,-828,-1,0,-1,0
293069,302,-8163,-830,-1,0,-1,0
293074,298,-8162,-831,-1,0,-1,0
293079,293,-8164,-838,-1,0,-1,0
293084,289,-8163,-844,-1,0,-1,0
293089,285,-8164,-850,-1,0,-1,0
293094,284,-8167,-857,-1,0,-1,0
293099,284,-8169,-864,0,0,-1,0
293104,284,-8171,-867,-1,0,-1,0
293109,289,-8169,-862,-1,0,-1,0
293114,296,-8169,-860,-1,0,-1,0
293119,302,-8169,-856,-1,0,-1,0
293124,310,-8166,-850,0,0,-1,0
293129,318,-8162,-841,0,0,-1,0
293134,326,-8161,-837,0,0,-1,0
293139,333,-8162,-835,0,0,-1,0
293144,336,-8164,-836,0,-1,-1,0
293149,337,-8161,-842,0,-1,0,0
293154,337,-8159,-847,-1,-1,-1,0
293159,335,-8157,-854,0,-1,-1,0
293164,331,-8158,-858,0,-1,-1,0
293169,326,-8159,-855,0,-1,-1,0
293174,321,-8163,-854,0,-1,0,0
293179,318,-8164,-859,0,-1,0,0
293184,317,-8165,-865,0,-1,0,0
293189,319,-8162,-872,0,-1,-1,0
293194,323,-8162,-876,0,-1,0,0
293199,330,-8161,-875,0,-1,0,0
293204,338,-8161,-872,0,0,0,0
293209,349,-8161,-864,0,0,0,0
293214,357,-8163,-857,0,-1,0,0
293219,364,-8164,-853,0,-1,0,0
293224,363,-8165,-844,0,-1,0,0
293229,362,-8166,-841,0,-1,0,0
293234,353,-8165,-836,0,-1,0,0
293239,341,-8163,-831,0,-1,0,0
293244,331,-8164,-830,0,-1,0,0
293249,319,-8165,-834,0,-1,0,0
293254,308,-8166,-836,0,0,0,0
293259,302,-8167,-833,0,0,0,0
293264,296,-8167,-832,-1,-1,0,0
293269,293,-8167,-829,0,-1,0,0
293274,292,-8167,-826,0,-1,0,0
293279,297,-8167,-825,0,-1,0,0
293284,300,-8167,-824,-1,-1,0,0
293289,304,-8167,-825,0,-1,0,0
293294,308,-8172,-831,0,-1,0,0
293299,311,-8172,-845,0,-1,0,0
293304,315,-8174,-854,-1,-1,0,0
293309,316,-8171,-861,-1,-1,0,0
293314,312,-8172,-866,0,-1,-1,0
293319,309,-8170,-865,0,-1,-1,0
293324,308,-8168,-863,-1,0,-1,0
293329,306,-8168,-860,0,0,-1,0
293334,302,-8166,-852,0,0,-1,0
293339,298,-8165,-842,0,-1,-1,0
293344,292,-8164,-830,0,0,-1,0
293349,288,-8163,-822,0,0,-1,0
293354,288,-8165,-816,0,0,-1,0
293359,290,-8162,-806,-1,0,-1,0
293364,294,-8162,-797,-1,-1,-1,0
293369,300,-8162,-795,0,-1,-1,0
293374,308,-8163,-799,0,-1,-1,0
293379,317,-8163,-807,0,0,0,0
293384,324,-8161,-811,-1,0,0,0
293389,333,-8163,-817,-1,-1,-1,0
293394,335,-8162,-824,-1,-1,-1,0
293399,334,-8162,-829,-1,0,-1,0
293404,334,-8165,-834,-1,0,0,0
293409,334,-8164,-836,-1,0,0,0
293414,333,-8162,-836,-1,0,0,0
293419,329,-8164,-836,-1,0,0,0
293424,330,-8167,-832,-1,-1,0,0
293429,332,-8166,-830,-1,-1,0,0
293433,335,-8166,-825,-1,-1,0,0
293438,339,-8163,-823,-1,-1,0,0
293444,346,-8164,-822,-1,-1,0,0
293448,353,-8166,-827,-1,-1,0,0
293453,357,-8168,-831,-1,-1,0,0
293458,355,-8167,-834,-1,-1,0,0
293463,354,-8166,-842,-1,-1,0,0
293468,350,-8168,-847,-1,-1,0,0
293473,344,-8169,-844,-1,-1,0,0
293479,337,-8168,-842,-1,-1,0,0
293483,329,-8169,-844,-1,-1,0,0
293488,322,-8168,-845,-1,-1,0,0
293493,314,-8166,-843,-1,0,0,0
293498,308,-8166,-845,-1,0,0,0
293503,303,-8167,-839,-1,0,0,0
293508,298,-8165,-834,-1,0,0,0
293513,295,-8163,-832,-1,0,0,0
293518,297,-8162,-830,-1,0,0,0
293523,301,-8164,-826,-1,-1,0,0
293528,306,-8167,-820,-1,-1,0,0
293533,308,-8167,-816,-1,-1,0,0
293538,310,-8163,-817,-1,0,0,0
293543,310,-8165,-819,-1,-1,0,0
293548,310,-8169,-829,-1,-1,0,0
293553,307,-8170,-837,-1,-1,0,0
293558,301,-8167,-841,-1,-1,-1,0
293563,296,-8167,-843,-1,0,0,0
293568,292,-8166,-839,-1,0,0,0
293573,290,-8165,-838,-1,0,0,0
293578,290,-8166,-839,-1,0,0,0
293583,292,-8168,-840,-1,-1,0,0
293588,298,-8168,-836,-1,-1,0,0
293593,303,-8168,-832,-1,-1,0,0
293598,310,-8169,-827,-1,-1,0,0
293603,318,-8172,-828,-1,-1,0,0
293608,319,-8173,-833,-1,-1,0,0
293613,322,-8174,-839,-1,-1,0,0
293618,322,-8172,-842,-1,0,0,0
293623,322,-8170,-850,-1,0,0,0
293628,321,-8170,-849,0,-1,0,0
293633,320,-8170,-854,0,-1,0,0
293638,321,-8173,-860,0,0,0,0
293643,324,-8172,-867,-1,0,0,0
293648,327,-8170,-874,-1,0,0,0
293653,330,-8170,-878,0,-1,0,0
293658,332,-8171,-878,0,0,0,0
293663,336,-8171,-880,0,0,0,0
293668,338,-8170,-884,0,0,0,0
293673,342,-8169,-889,0,0,0,0
293678,344,-8168,-899,0,-1,0,0
293683,342,-8165,-898,0,0,0,0
293688,346,-8163,-903,0,0,0,0
293693,350,-8164,-910,0,0,0,0
293698,349,-8163,-909,0,-1,0,0
293703,352,-8164,-912,0,-1,0,0
293708,354,-8164,-915,0,0,0,0
293713,359,-8165,-920,0,-1,0,0
293718,357,-8164,-925,0,-1,0,0
293723,355,-8164,-929,0,-1,0,0
293728,355,-8162,-928,0,-1,0,0
293733,352,-8164,-923,0,-1,0,0
293738,347,-8162,-920,0,-1,0,0
293743,343,-8161,-915,0,-1,0,0
293748,338,-8159,-905,0,-1,0,0
293753,333,-8162,-901,0,-1,0,0
293758,325,-8164,-896,0,-1,0,0
293763,317,-8168,-886,0,-1,0,0
293768,310,-8166,-876,0,-1,0,0
293773,303,-8167,-865,0,-1,0,0
293778,295,-8169,-852,0,-1,0,0
293783,288,-8169,-835,0,-1,0,0
293788,280,-8166,-814,0,-1,0,0
293793,275,-8163,-794,0,-1,0,0
293798,266,-8162,-770,0,0,0,0
293803,258,-8164,-749,0,0,0,0
293808,247,-8164,-731,0,0,0,0
293813,234,-8165,-704,0,0,0,0
293818,217,-8167,-683,0,0,0,0
293823,197,-8167,-661,0,0,-1,0
293828,180,-8168,-636,-1,0,-1,0
293833,165,-8169,-611,-1,0,-1,0
293838,153,-8166,-582,-1,0,-1,0
293843,146,-8166,-555,-1,0,-1,0
293848,134,-8166,-525,-1,0,-1,0
293853,118,-8169,-490,-1,0,-1,0
293858,103,-8173,-451,-1,1,-1,0
293863,85,-8175,-407,-2,1,-1,0
293868,61,-8178,-355,-2,0,-1,0
293873,33,-8181,-293,-2,0,-1,0
293878,-1,-8184,-224,-3,0,-2,0
293883,-41,-8186,-140,-3,1,-2,0
293888,-82,-8187,-45,-3,1,-2,0
293893,-120,-8186,52,-4,1,-2,0
293898,-160,-8184,160,-4,1,-2,0
293903,-203,-8184,271,-5,2,-2,0
293908,-245,-8184,380,-5,2,-3,0
293913,-284,-8182,486,-6,3,-3,0
293918,-318,-8179,590,-6,3,-3,0
293923,-351,-8178,685,-7,4,-3,0
293928,-376,-8179,768,-7,4,-3,0
293933,-394,-8181,836,-8,5,-4,0
293938,-410,-8180,901,-8,5,-4,0
293943,-423,-8175,956,-9,6,-4,0
293948,-434,-8171,1006,-10,8,-4,0
293953,-437,-8167,1050,-10,10,-4,0
293958,-450,-8160,1093,-11,14,-5,0
293963,-462,-8159,1120,-12,19,-5,0
293968,-462,-8156,1146,-13,26,-5,0
293973,-460,-8151,1171,-13,32,-5,0
293978,-454,-8147,1196,-14,37,-5,0
293983,-446,-8141,1226,-15,41,-6,0
293988,-430,-8134,1242,-16,44,-6,0
293993,-402,-8122,1262,-16,45,-6,0
293998,-372,-8122,1281,-17,44,-6,0
294003,-344,-8113,1306,-18,42,-7,0
294008,-319,-8103,1336,-18,41,-7,0
294013,-297,-8091,1359,-19,40,-7,0
294018,-270,-8074,1377,-20,40,-7,0
294023,-236,-8063,1387,-20,41,-8,0
294027,-190,-8052,1381,-21,43,-8,0
294032,-150,-8036,1369,-21,43,-8,0
294038,-104,-8023,1341,-22,44,-8,0
294043,-54,-8014,1304,-23,43,-8,0
294048,-13,-7996,1271,-23,42,-9,0
294053,30,-7981,1225,-24,41,-9,0
294058,70,-7967,1182,-25,41,-9,0
294062,108,-7954,1138,-25,41,-9,0
294067,143,-7936,1093,-26,41,-10,0
294072,182,-7919,1036,-26,41,-10,0
294077,224,-7907,978,-27,41,-10,0
294082,277,-7894,914,-28,41,-10,0
294087,326,-7877,860,-28,40,-10,0
294092,376,-7859,794,-28,38,-10,0
294097,427,-7846,725,-29,37,-11,0
294102,468,-7822,661,-29,35,-11,0
294107,514,-7811,576,-30,34,-11,0
294112,555,-7794,499,-30,32,-11,0
294117,594,-7776,413,-31,32,-11,0
294122,642,-7766,318,-31,32,-11,0
294127,676,-7739,237,-31,33,-11,0
294132,712,-7721,145,-32,34,-11,0
294137,744,-7700,56,-32,37,-11,0
294142,777,-7679,-36,-32,39,-11,0
294147,805,-7645,-120,-33,41,-12,0
294152,855,-7646,-231,-33,43,-12,0
294157,898,-7632,-317,-33,43,-12,0
294162,950,-7609,-408,-33,42,-12,0
294167,1007,-7589,-498,-34,40,-12,0
294172,1076,-7586,-603,-34,37,-12,0
294177,1152,-7575,-706,-34,34,-12,0
294182,1241,-7578,-829,-34,31,-12,0
294187,1328,-7561,-944,-34,28,-12,0
294192,1403,-7536,-1070,-34,25,-12,0
294197,1477,-7525,-1204,-34,24,-11,0
294202,1540,-7512,-1347,-34,26,-11,0
294207,1591,-7490,-1485,-34,29,-11,0
294212,1634,-7482,-1621,-34,32,-11,0
294217,1678,-7466,-1761,-34,37,-11,0
294222,1720,-7443,-1889,-33,41,-11,0
294227,1762,-7445,-2005,-33,44,-11,0
294232,1813,-7457,-2099,-33,45,-11,0
294237,1857,-7452,-2153,-33,45,-10,0
294242,1864,-7423,-2151,-33,44,-10,0
294247,1826,-7416,-2076,-34,42,-11,0
294252,1848,-7341,-2246,-34,43,-11,0
294257,2097,-7221,-2778,-30,47,-9,0
294262,2357,-7391,-3074,-28,43,-8,0
294267,2572,-7499,-3334,-28,24,-8,0
294272,2785,-7416,-3788,-28,0,-8,0
294277,2921,-7428,-4096,-29,-16,-9,0
294282,2979,-7449,-4337,-29,-21,-8,0
294287,2988,-7421,-4555,-27,-16,-8,0
294292,2931,-7426,-4720,-25,-4,-8,0
294297,2911,-7437,-4928,-24,7,-7,0
294302,2922,-7450,-5153,-22,12,-6,0
294307,2917,-7460,-5470,-21,9,-6,0
294312,2946,-7482,-5789,-20,1,-5,0
294317,2971,-7497,-6054,-19,-5,-5,0
294322,2978,-7500,-6351,-18,-8,-4,0
294327,2997,-7510,-6589,-16,-6,-4,0
294332,3041,-7525,-6821,-14,-2,-3,0
294337,3101,-7534,-7104,-13,2,-2,0
294342,3172,-7546,-7372,-11,4,-2,0
294347,3236,-7564,-7630,-9,4,-1,0
294352,3274,-7571,-7893,-8,2,-1,0
294357,3287,-7574,-8113,-6,1,0,0
294362,3293,-7577,-8288,-4,-1,0,0
294367,3278,-7579,-8455,-2,-2,1,0
294372,3261,-7582,-8590,0,-5,1,0
294377,3253,-7589,-8681,2,-10,2,0
294382,3239,-7590,-8777,4,-16,2,0
294387,3239,-7592,-8844,6,-22,3,0
294392,3256,-7594,-8867,7,-28,3,0
294397,3269,-7587,-8881,9,-34,3,0
294402,3286,-7577,-8874,11,-38,4,0
294407,3306,-7573,-8835,13,-43,4,0
294412,3315,-7568,-8803,15,-48,4,0
294417,3303,-7556,-8761,17,-52,5,0
294422,3277,-7545,-8687,19,-58,5,0
294427,3224,-7538,-8616,20,-63,5,0
294432,3146,-7524,-8538,22,-68,5,0
294437,3052,-7509,-8419,24,-73,5,0
294442,2947,-7492,-8294,25,-77,6,0
294447,2839,-7481,-8154,26,-80,6,0
294452,2739,-7470,-7976,28,-81,6,0
294457,2649,-7455,-7786,29,-82,6,0
294462,2566,-7438,-7590,31,-81,6,0
294467,2497,-7426,-7374,32,-80,6,0
294472,2437,-7415,-7154,33,-79,6,0
294477,2374,-7397,-6932,34,-76,6,0
294482,2317,-7380,-6707,35,-74,6,0
294487,2243,-7368,-6480,36,-72,6,0
294492,2156,-7356,-6254,37,-70,6,0
294497,2071,-7340,-6025,37,-67,6,0
294502,1973,-7332,-5789,38,-64,6,0
294507,1869,-7321,-5558,39,-61,6,0
294512,1775,-7310,-5326,39,-58,6,0
294517,1689,-7297,-5092,40,-55,6,0
294522,1619,-7286,-4870,40,-53,6,0
294527,1567,-7276,-4648,41,-51,6,0
294532,1525,-7269,-4420,41,-50,6,0
294537,1494,-7262,-4207,42,-48,6,0
294542,1465,-7259,-3993,42,-47,6,0
294547,1447,-7256,-3767,42,-46,6,0
294552,1425,-7255,-3551,42,-46,5,0
294557,1408,-7255,-3336,42,-47,5,0
294562,1386,-7255,-3119,43,-48,5,0
294567,1352,-7253,-2914,43,-48,5,0
294572,1310,-7253,-2709,43,-48,5,0
294577,1259,-7261,-2513,42,-47,5,0
294582,1201,-7273,-2317,42,-44,5,0
294587,1138,-7282,-2116,42,-40,5,0
294592,1075,-7290,-1900,42,-35,5,0
294597,1003,-7300,-1685,41,-30,5,0
294602,934,-7311,-1469,41,-25,5,0
294607,874,-7326,-1245,41,-18,5,0
294612,810,-7340,-1029,40,-11,5,0
294617,750,-7354,-821,40,-4,5,0
294622,714,-7372,-601,39,4,5,0
294627,693,-7396,-377,38,9,6,0
294632,683,-7416,-165,38,10,6,0
294637,685,-7434,28,37,9,6,0
294642,681,-7459,215,36,6,6,0
294647,675,-7483,387,36,3,6,0
294651,677,-7508,526,35,-1,6,0
294657,673,-7530,639,35,-4,6,0
294662,669,-7551,723,34,-7,6,0
294667,663,-7573,788,34,-8,6,0
294671,642,-7594,846,33,-9,6,0
294676,608,-7615,907,32,-9,6,0
294681,567,-7639,963,31,-7,6,0
294686,518,-7660,1022,30,-4,6,0
294691,464,-7683,1124,30,-2,5,0
294696,432,-7714,1248,28,0,5,0
294701,377,-7740,1354,27,2,5,0
294706,314,-7760,1458,26,2,5,0
294711,242,-7783,1564,25,2,5,0
294716,194,-7806,1638,24,2,6,0
294721,188,-7822,1650,23,2,6,0
294726,205,-7836,1635,22,0,7,0
294731,237,-7854,1649,22,-6,7,0
294736,181,-7908,1839,21,-13,6,0
294741,-189,-7945,2503,17,-22,3,0
294746,-439,-7958,2833,14,-28,2,0
294751,-647,-7946,3115,14,-24,1,0
294756,-916,-7975,3565,14,-20,1,0
294761,-1078,-8000,3848,14,-17,1,0
294766,-1189,-8017,4058,14,-14,2,0
294771,-1285,-8053,4237,12,-14,1,0
294776,-1305,-8091,4334,11,-16,0,0
294781,-1339,-8121,4420,8,-16,-1,0
294786,-1395,-8148,4501,6,-18,-2,0
294791,-1461,-8169,4614,4,-18,-2,0
294796,-1552,-8183,4741,2,-14,-3,0
294801,-1642,-8193,4830,1,-8,-3,0
294806,-1706,-8205,4925,-1,-2,-4,0
294811,-1733,-8215,5014,-2,5,-4,0
294816,-1733,-8223,5055,-4,8,-5,0
294821,-1723,-8230,5109,-6,9,-5,0
294826,-1715,-8236,5167,-8,9,-6,0
294831,-1703,-8234,5195,-10,9,-6,0
294836,-1687,-8230,5244,-12,10,-7,0
294841,-1665,-8228,5298,-13,11,-7,0
294846,-1639,-8215,5329,-15,14,-8,0
294851,-1601,-8198,5355,-17,18,-8,0
294856,-1548,-8184,5353,-18,24,-8,0
294861,-1482,-8168,5301,-20,30,-9,0
294866,-1391,-8147,5227,-21,36,-9,0
294871,-1288,-8127,5137,-23,41,-9,0
294876,-1190,-8106,5013,-24,46,-10,0
294881,-1088,-8080,4877,-26,49,-10,0
294886,-989,-8052,4741,-27,52,-11,0
294891,-902,-8023,4595,-29,55,-11,0
294896,-816,-7996,4441,-30,58,-11,0
294901,-726,-7968,4301,-31,62,-12,0
294906,-641,-7939,4156,-32,65,-12,0
294911,-550,-7905,4005,-34,69,-12,0
294916,-452,-7872,3868,-35,73,-13,0
294921,-357,-7840,3739,-36,77,-13,0
294926,-257,-7807,3606,-37,81,-13,0
294931,-151,-7770,3477,-38,84,-14,0
294936,-46,-7731,3340,-39,87,-14,0
294941,68,-7690,3188,-39,90,-14,0
294946,192,-7654,3026,-40,90,-15,0
294951,313,-7617,2864,-41,90,-15,0
294956,432,-7577,2690,-42,88,-15,0
294961,561,-7540,2504,-42,85,-16,0
294966,685,-7505,2313,-43,82,-16,0
294971,796,-7465,2132,-43,78,-16,0
294976,904,-7428,1947,-44,73,-17,0
294981,1002,-7391,1773,-44,69,-17,0
294986,1093,-7357,1603,-45,66,-17,0
294991,1195,-7324,1431,-45,64,-17,0
294996,1296,-7289,1259,-45,62,-17,0
295001,1385,-7260,1091,-45,60,-17,0
295006,1469,-7237,920,-45,56,-17,0
295011,1570,-7209,732,-45,52,-17,0
295016,1668,-7178,554,-45,48,-16,0
295021,1756,-7150,392,-44,44,-16,0
295026,1831,-7116,254,-43,42,-15,0
295031,1885,-7096,79,-43,40,-16,0
295036,2008,-7085,-203,-44,35,-17,0
295041,2204,-7078,-505,-44,28,-17,0
295046,2356,-7065,-771,-45,19,-17,0
295051,2429,-7049,-984,-46,10,-17,0
295056,2492,-7009,-1238,-47,4,-17,0
295061,2765,-6974,-1784,-45,5,-15,0
295066,2941,-6989,-2125,-43,10,-14,0
295071,3063,-7011,-2338,-42,7,-13,0
295076,3229,-7011,-2678,-43,2,-13,0
295081,3310,-7014,-2934,-43,1,-13,0
295086,3341,-7023,-3113,-42,1,-13,0
295091,3393,-7029,-3339,-42,5,-12,0
295096,3374,-7041,-3519,-42,12,-12,0
295101,3341,-7049,-3685,-41,19,-11,0
295106,3319,-7061,-3852,-40,28,-10,0
295111,3280,-7081,-4031,-39,36,-9,0
295116,3267,-7096,-4265,-38,44,-9,0
295121,3303,-7110,-4501,-37,51,-8,0
295126,3370,-7130,-4744,-36,56,-8,0
295131,3464,-7145,-5031,-35,59,-7,0
295136,3586,-7155,-5332,-34,59,-6,0
295141,3711,-7176,-5672,-32,58,-6,0
295146,3849,-7193,-6095,-30,56,-5,0
295151,3978,-7204,-6528,-28,53,-5,0
295156,4087,-7221,-6983,-26,47,-5,0
295161,4156,-7243,-7451,-24,41,-5,0
295166,4171,-7260,-7863,-23,33,-4,0
295171,4129,-7277,-8222,-21,25,-4,0
295176,4031,-7297,-8510,-19,19,-3,0
295181,3896,-7325,-8683,-18,14,-3,0
295186,3751,-7355,-8773,-16,12,-2,0
295191,3620,-7381,-8785,-14,10,-2,0
295196,3523,-7409,-8731,-12,9,-1,0
295201,3469,-7435,-8644,-10,7,0,0
295206,3458,-7462,-8532,-8,4,0,0
295211,3479,-7484,-8410,-6,0,1,0
295216,3520,-7505,-8291,-5,-4,1,0
295221,3555,-7519,-8200,-3,-9,1,0
295226,3575,-7530,-8132,-1,-15,1,0
295231,3571,-7541,-8097,0,-20,2,0
295236,3527,-7550,-8116,2,-26,2,0
295241,3451,-7560,-8172,4,-31,3,0
295246,3365,-7569,-8240,6,-34,3,0
295251,3260,-7577,-8334,7,-34,3,0
295256,3158,-7583,-8412,9,-32,4,0
295260,3066,-7579,-8463,10,-30,4,0
295265,2983,-7578,-8473,11,-28,4,0
295270,2905,-7572,-8425,13,-28,5,0
295275,2835,-7564,-8318,14,-30,5,0
295280,2765,-7554,-8156,16,-33,5,0
295285,2688,-7543,-7954,17,-36,5,0
295290,2627,-7529,-7733,18,-38,5,0
295295,2577,-7520,-7515,20,-40,5,0
295300,2539,-7513,-7301,21,-42,6,0
295305,2513,-7512,-7102,22,-44,6,0
295310,2484,-7507,-6919,23,-47,6,0
295315,2466,-7502,-6750,24,-51,6,0
295320,2456,-7495,-6599,25,-54,6,0
295325,2442,-7491,-6470,26,-56,6,0
295330,2422,-7484,-6365,28,-58,6,0
295335,2407,-7477,-6284,29,-59,6,0
295340,2389,-7465,-6223,30,-60,6,0
295345,2373,-7451,-6182,31,-60,6,0
295350,2361,-7440,-6148,32,-59,6,0
295355,2343,-7429,-6103,33,-58,6,0
295360,2320,-7413,-6033,33,-57,6,0
295365,2299,-7394,-5939,34,-56,7,0
295370,2275,-7375,-5818,35,-55,7,0
295375,2254,-7358,-5675,36,-55,7,0
295380,2223,-7343,-5511,37,-54,7,0
295385,2185,-7329,-5320,37,-53,7,0
295390,2130,-7315,-5109,38,-52,7,0
295395,2065,-7299,-4877,38,-49,7,0
295400,1993,-7285,-4646,39,-46,7,0
295405,1911,-7278,-4394,39,-44,7,0
295410,1828,-7275,-4146,40,-42,7,0
295415,1750,-7273,-3911,40,-41,7,0
295420,1681,-7270,-3673,40,-40,7,0
295425,1626,-7272,-3450,40,-39,7,0
295430,1586,-7275,-3234,40,-38,7,0
295435,1557,-7277,-3029,40,-38,7,0
295440,1543,-7278,-2838,40,-38,7,0
295445,1534,-7286,-2656,40,-39,7,0
295450,1520,-7293,-2483,40,-41,7,0
295455,1500,-7301,-2314,40,-42,7,0
295460,1476,-7310,-2165,40,-43,7,0
295465,1448,-7318,-2016,40,-43,7,0
295470,1411,-7328,-1872,40,-41,7,0
295475,1368,-7343,-1723,40,-38,7,0
295480,1312,-7352,-1569,39,-33,7,0
295485,1252,-7363,-1411,39,-26,7,0
295490,1191,-7376,-1238,39,-19,7,0
295495,1126,-7386,-1053,38,-12,7,0
295500,1065,-7403,-858,37,-6,7,0
295505,1008,-7421,-653,37,0,7,0
295510,957,-7435,-450,36,5,7,0
295515,918,-7453,-253,36,8,7,0
295520,889,-7479,-62,35,9,7,0
295525,861,-7503,137,35,8,7,0
295530,830,-7527,340,34,6,7,0
295535,793,-7550,523,33,4,7,0
295540,757,-7574,674,32,2,7,0
295545,718,-7596,816,31,1,7,0
295550,682,-7621,941,30,-1,7,0
295555,643,-7645,1054,30,-3,7,0
295560,605,-7665,1163,29,-4,7,0
295565,562,-7688,1258,28,-4,7,0
295570,518,-7712,1342,28,-4,7,0
295575,476,-7735,1420,27,-4,7,0
295580,439,-7758,1493,26,-3,6,0
295585,401,-7783,1558,25,-2,6,0
295590,367,-7807,1618,24,-1,6,0
295595,342,-7831,1672,23,-2,6,0
295600,323,-7852,1718,21,-2,5,0
295605,309,-7871,1760,20,-3,5,0
295610,300,-7881,1781,19,-4,4,0
295615,274,-7896,1822,19,-4,4,0
295620,223,-7916,1904,19,-5,4,0
295625,140,-7933,2011,18,-6,4,0
295630,46,-7949,2104,18,-6,5,0
295635,-53,-7969,2170,17,-6,5,0
295640,-139,-7992,2227,16,-6,5,0
295645,-188,-8011,2260,15,-7,5,0
295650,-214,-8028,2276,14,-7,4,0
295655,-222,-8046,2294,13,-9,4,0
295660,-218,-8063,2303,13,-11,4,0
295665,-206,-8077,2304,12,-14,3,0
295670,-193,-8092,2298,11,-16,3,0
295675,-184,-8098,2275,10,-19,3,0
295680,-179,-8105,2239,10,-20,3,0
295685,-182,-8117,2197,9,-20,2,0
295690,-194,-8126,2141,8,-19,2,0
295695,-213,-8137,2077,7,-17,2,0
295700,-238,-8148,2007,7,-14,2,0
295705,-262,-8161,1942,6,-11,2,0
295710,-285,-8169,1886,5,-7,1,0
295715,-299,-8174,1834,5,-5,1,0
295720,-303,-8178,1789,4,-3,1,0
295725,-294,-8183,1744,3,-3,1,0
295730,-277,-8188,1697,3,-3,1,0
295735,-255,-8191,1636,2,-4,1,0
295740,-220,-8191,1563,2,-5,0,0
295745,-179,-8192,1476,2,-6,0,0
295750,-140,-8196,1378,1,-7,0,0
295755,-103,-8196,1269,1,-7,0,0
295760,-73,-8196,1163,1,-7,0,0
295765,-48,-8194,1052,0,-6,0,0
295770,-32,-8191,946,0,-4,0,0
295775,-16,-8192,848,0,-2,0,0
295780,0,-8191,764,-1,0,-1,0
295785,12,-8191,687,-1,0,-1,0
295789,17,-8193,628,-1,1,-1,0
295795,15,-8192,577,-2,0,-1,0
295799,9,-8190,538,-2,0,-1,0
295804,4,-8190,508,-2,0,-1,0
295810,0,-8192,481,-2,0,-1,0
295815,0,-8191,455,-2,0,-1,0
295820,2,-8191,423,-3,0,-1,0
295824,10,-8191,388,-3,0,-1,0
295830,25,-8194,343,-3,0,-2,0
295835,44,-8194,298,-3,0,-2,0
295839,65,-8192,248,-3,1,-2,0
295844,89,-8191,189,-3,1,-2,0
295849,114,-8188,125,-3,1,-2,0
295854,138,-8187,56,-4,1,-2,0
295859,160,-8186,-13,-4,1,-2,0
295864,179,-8184,-77,-4,1,-2,0
295869,198,-8183,-131,-4,1,-2,0
295874,216,-8181,-183,-4,1,-2,0
295879,233,-8180,-232,-4,1,-2,0
295884,250,-8180,-279,-4,1,-2,0
295889,267,-8180,-325,-4,0,-2,0
295894,282,-8179,-372,-4,0,-2,0
295899,303,-8178,-419,-4,0,-2,0
295904,328,-8176,-464,-4,0,-2,0
295909,352,-8178,-508,-4,0,-2,0
295914,376,-8177,-548,-3,0,-2,0
295919,396,-8174,-586,-3,1,-2,0
295924,413,-8172,-618,-3,1,-2,0
295929,428,-8175,-646,-3,1,-2,0
295934,443,-8176,-669,-3,1,-2,0
295939,456,-8175,-686,-3,1,-2,0
295944,468,-8173,-705,-3,1,-2,0
295949,480,-8172,-725,-3,1,-2,0
295954,490,-8174,-740,-3,1,-2,0
295959,503,-8175,-757,-3,1,-2,0
295964,523,-8174,-775,-3,1,-2,0
295969,543,-8174,-783,-3,2,-2,0
295974,565,-8172,-789,-3,1,-2,0
295979,588,-8167,-799,-3,1,-2,0
295984,613,-8162,-812,-3,0,-2,0
295989,634,-8163,-825,-2,-1,-2,0
295994,648,-8161,-844,-2,-1,-2,0
295999,659,-8162,-865,-2,-1,-2,0
296004,669,-8162,-883,-2,-1,-2,0
296009,678,-8161,-908,-2,-1,-2,0
296014,684,-8162,-926,-2,-1,-1,0
296019,691,-8161,-940,-2,-1,-1,0
296024,697,-8161,-954,-2,-1,-1,0
296029,707,-8162,-961,-1,-1,-1,0
296034,717,-8163,-957,-1,0,-1,0
296039,722,-8164,-958,-1,0,-1,0
296044,725,-8165,-949,-1,0,-1,0
296049,728,-8165,-937,-1,0,-1,0
296054,722,-8162,-913,-1,-1,-1,0
296059,715,-8164,-890,-1,-1,-1,0
296064,710,-8163,-874,-1,-1,-1,0
296069,707,-8164,-860,-1,-1,-1,0
296074,703,-8165,-850,-1,-1,-1,0
296079,701,-8165,-846,-1,-1,-1,0
296084,696,-8163,-838,-1,-1,-1,0
296089,687,-8164,-824,-1,-1,-1,0
296094,679,-8166,-807,-1,-1,-1,0
296099,665,-8167,-791,-1,-1,-1,0
296104,654,-8169,-772,-1,-1,-1,0
296109,641,-8170,-747,-1,0,0,0
296114,630,-8172,-723,-1,0,0,0
296119,620,-8173,-699,-1,0,0,0
296124,609,-8173,-674,-1,-1,0,0
296129,593,-8171,-651,-1,-1,0,0
296134,575,-8172,-631,-1,-1,0,0
296139,561,-8169,-616,-1,-1,-1,0
296144,545,-8171,-604,-1,-1,-1,0
296149,525,-8173,-591,-1,-1,-1,0
296154,502,-8171,-577,-1,-1,-1,0
296159,467,-8169,-572,-1,0,-1,0
296164,420,-8170,-593,-1,3,-1,0
296169,399,-8168,-601,-1,5,-1,0
296174,396,-8177,-605,-1,4,-1,0
296179,384,-8177,-619,-1,2,-1,0
296184,382,-8182,-616,-1,0,-1,0
296189,383,-8178,-610,-1,0,-1,0
296194,389,-8174,-601,-1,0,-1,0
296199,401,-8172,-599,-1,0,-1,0
296204,411,-8171,-612,-1,0,-1,0
296209,419,-8171,-620,-1,0,-1,0
296214,416,-8172,-643,-1,0,-1,0
296219,412,-8174,-662,-1,0,-1,0
296224,413,-8173,-665,-1,0,-1,0
296229,407,-8174,-679,-1,0,-1,0
296234,407,-8173,-677,-1,0,-1,0
296239,409,-8173,-674,-1,0,-1,0
296244,408,-8172,-676,-1,1,-1,0
296249,407,-8171,-666,-1,1,-1,0
296254,404,-8171,-660,-1,1,-1,0
296259,403,-8174,-657,-1,0,-1,0
296264,407,-8174,-648,-1,0,-1,0
296269,414,-8174,-650,-1,0,-1,0
296274,427,-8175,-647,-1,0,-1,0
296279,452,-8175,-630,-1,0,-1,0
296284,478,-8177,-600,-1,0,-1,0
296289,497,-8177,-581,-1,0,-1,0
296294,520,-8176,-560,-1,1,-1,0
296299,554,-8175,-532,-1,2,-1,0
296304,589,-8175,-518,-1,2,-1,0
296309,626,-8175,-503,-1,2,-1,0
296314,664,-8174,-488,-1,1,-1,0
296319,696,-8173,-465,-1,0,-1,0
296324,727,-8172,-436,-1,0,-1,0
296329,753,-8169,-402,-1,0,-1,0
296334,783,-8170,-365,-1,0,0,0
296339,812,-8170,-330,-2,1,0,0
296344,836,-8171,-296,-2,1,0,0
296349,854,-8169,-264,-2,0,0,0
296354,850,-8167,-252,-2,0,0,0
296359,821,-8167,-236,-2,0,0,0
296364,762,-8171,-245,-2,2,-1,0
296369,684,-8168,-283,-2,3,-1,0
296373,609,-8172,-317,-2,4,-1,0
296379,534,-8175,-362,-2,4,-1,0
296384,470,-8175,-399,-2,5,-1,0
296388,422,-8175,-425,-1,5,-1,0
296394,387,-8174,-451,-1,5,-1,0
296398,374,-8173,-479,-1,6,-1,0
296403,386,-8173,-511,-1,7,-1,0
296408,403,-8173,-537,-1,9,0,0
296413,397,-8169,-555,-1,15,0,0
296418,383,-8167,-577,-1,23,0,0
296423,378,-8167,-600,-1,32,0,0
296428,384,-8173,-642,-1,40,0,0
296433,411,-8176,-732,-1,47,0,0
296438,436,-8180,-822,-1,51,0,0
296443,444,-8186,-905,-2,53,0,0
296448,435,-8185,-959,-3,55,0,0
296453,405,-8182,-971,-3,57,0,0
296458,369,-8178,-945,-3,60,0,0
296463,348,-8173,-901,-2,65,0,0
296468,345,-8169,-856,-2,70,0,0
296473,371,-8165,-815,-2,74,1,0
296478,426,-8164,-786,-2,77,1,0
296483,491,-8166,-763,-2,77,0,0
296488,560,-8165,-735,-2,76,0,0
296493,610,-8165,-714,-2,73,0,0
296498,642,-8164,-689,-2,70,0,0
296503,651,-8165,-662,-2,67,0,0
296508,645,-8164,-650,-2,65,0,0
296513,634,-8162,-648,-2,63,0,0
296518,623,-8163,-656,-2,61,0,0
296523,620,-8163,-679,-2,59,0,0
296528,622,-8162,-703,-2,56,0,0
296533,626,-8162,-717,-2,52,0,0
296538,627,-8163,-736,-2,48,0,0
296543,627,-8162,-742,-2,43,0,0
296548,625,-8165,-729,-2,38,0,0
296553,624,-8162,-716,-1,34,0,0
296558,624,-8159,-697,-1,30,0,0
296563,629,-8159,-675,-1,28,0,0
296568,639,-8162,-657,-1,26,0,0
296573,649,-8166,-647,-1,24,0,0
296578,658,-8167,-638,-1,22,0,0
296583,659,-8166,-630,-1,21,0,0
296588,648,-8164,-624,-1,21,0,0
296593,630,-8165,-619,-1,22,0,0
296598,608,-8166,-610,-1,24,0,0
296603,589,-8166,-612,-1,27,0,0
296608,578,-8165,-610,-1,29,0,0
296613,570,-8166,-605,-1,32,0,0
296618,569,-8169,-608,-1,33,0,0
296623,574,-8171,-599,-1,34,0,0
296628,582,-8172,-596,-1,33,0,0
296633,592,-8170,-593,-1,32,0,0
296638,599,-8174,-590,-1,31,0,0
296643,608,-8174,-595,-1,30,0,0
296648,612,-8177,-604,-1,30,0,0
296653,620,-8177,-613,-1,29,0,0
296658,630,-8177,-625,-1,28,0,0
296663,636,-8174,-633,-1,26,0,0
296668,639,-8173,-645,-1,24,0,0
296673,642,-8171,-656,-1,21,0,0
296678,655,-8164,-659,-1,19,0,0
296683,693,-8159,-679,-1,14,0,0
296688,734,-8161,-708,-1,8,0,0
296693,756,-8161,-740,0,1,0,0
296698,757,-8166,-776,0,-4,0,0
296703,737,-8169,-801,-1,-4,0,0
296708,715,-8171,-806,-1,-2,0,0
296713,700,-8170,-794,-1,0,0,0
296718,687,-8172,-764,-1,0,0,0
296723,669,-8172,-731,0,-1,0,0
296728,648,-8172,-697,0,-2,0,0
296733,632,-8173,-669,0,-1,0,0
296738,625,-8177,-645,0,0,0,0
296743,621,-8174,-622,0,1,0,0
296748,614,-8170,-600,-1,1,0,0
296753,601,-8168,-582,-1,0,0,0
296758,583,-8168,-574,-1,0,0,0
296763,567,-8167,-571,-1,1,0,0
296768,554,-8169,-577,0,1,0,0
296773,551,-8167,-593,0,1,0,0
296778,552,-8165,-611,0,0,0,0
296783,554,-8164,-630,0,0,0,0
296788,553,-8163,-644,-1,-1,0,0
296793,549,-8165,-655,-1,-1,0,0
296798,541,-8166,-655,-1,-1,-1,0
296803,533,-8165,-646,-1,-1,-1,0
296808,529,-8164,-632,-1,-1,0,0
296813,527,-8165,-610,-1,-1,0,0
296818,531,-8166,-590,-1,-1,0,0
296823,545,-8167,-565,-1,0,0,0
296828,560,-8168,-544,-1,1,0,0
296833,575,-8171,-526,-1,0,-1,0
296838,584,-8172,-513,-1,0,-1,0
296843,583,-8169,-508,-1,0,-1,0
296848,577,-8169,-507,-1,0,-1,0
296853,577,-8168,-512,-1,0,0,0
296858,578,-8167,-528,-1,1,0,0
296863,580,-8166,-549,-1,1,0,0
296868,581,-8169,-569,-1,1,0,0
296873,579,-8173,-591,-1,0,-1,0
296878,575,-8173,-611,-1,0,-1,0
296883,567,-8171,-624,-1,-1,-1,0
296888,558,-8171,-638,-1,-1,-1,0
296893,552,-8172,-645,-1,-2,-1,0
296898,545,-8169,-646,-1,-2,-1,0
296903,539,-8171,-642,-1,-2,0,0
296908,545,-8173,-634,-1,-1,0,0
296913,563,-8175,-620,-1,0,0,0
296918,593,-8173,-609,-1,1,0,0
296923,628,-8172,-599,-1,2,0,0
296928,656,-8170,-597,-1,2,0,0
296933,676,-8167,-603,-1,2,0,0
296938,686,-8167,-618,-1,2,0,0
296943,685,-8162,-643,-1,4,0,0
296948,680,-8160,-674,-1,4,0,0
296953,674,-8158,-714,0,5,0,0
296957,666,-8160,-754,0,4,0,0
296963,663,-8162,-792,0,3,0,0
296968,665,-8165,-824,0,1,0,0
296972,662,-8167,-846,0,-1,0,0
296977,663,-8170,-858,0,-2,0,0
296982,665,-8170,-848,0,-1,0,0
296987,671,-8171,-806,0,0,0,0
296992,678,-8170,-758,0,1,0,0
296997,680,-8170,-703,0,1,0,0
297002,674,-8168,-648,0,1,0,0
297007,659,-8166,-606,0,0,0,0
297012,637,-8166,-575,0,0,0,0
297017,607,-8172,-568,0,-1,0,0
297022,578,-8175,-572,0,-1,0,0
297027,549,-8176,-575,0,-1,0,0
297032,523,-8174,-579,0,-1,0,0
297037,502,-8173,-584,0,-2,0,0
297042,490,-8174,-593,0,-2,0,0
297047,492,-8175,-594,0,-2,0,0
297052,507,-8175,-595,0,-2,0,0
297057,534,-8174,-595,0,-2,0,0
297062,566,-8171,-597,0,-3,0,0
297067,593,-8169,-590,0,-3,0,0
297072,611,-8171,-582,0,-3,0,0
297077,621,-8172,-573,0,-2,0,0
297082,631,-8174,-558,0,-1,0,0
297087,643,-8173,-546,0,1,0,0
297092,665,-8175,-528,-1,4,0,0
297097,688,-8175,-509,-1,5,0,0
297102,701,-8170,-492,-1,6,0,0
297107,691,-8169,-480,-1,7,0,0
297112,645,-8166,-478,-1,10,0,0
297117,581,-8170,-491,-1,16,0,0
297122,525,-8166,-511,-1,25,0,0
297127,482,-8167,-529,-1,34,0,0
297132,448,-8163,-550,-1,43,1,0
297137,447,-8166,-572,-1,51,1,0
297142,471,-8168,-590,-1,53,1,0
297147,512,-8169,-584,-1,52,1,0
297152,544,-8171,-579,-1,49,1,0
297157,566,-8169,-555,-1,45,0,0
297162,580,-8166,-538,-1,39,0,0
297167,594,-8167,-524,-1,32,0,0
297172,602,-8170,-519,-1,23,0,0
297177,598,-8172,-528,-1,11,0,0
297182,574,-8172,-542,-1,1,0,0
297187,524,-8172,-574,-1,-6,0,0
297192,476,-8172,-599,-1,-8,0,0
297197,448,-8177,-615,-1,-7,0,0
297202,439,-8180,-622,-1,-5,0,0
297207,454,-8183,-615,-1,-3,0,0
297212,484,-8180,-594,-1,-2,0,0
297217,519,-8179,-568,-1,-1,0,0
297222,550,-8176,-538,-1,-1,0,0
297227,572,-8173,-514,-1,-1,-1,0
297232,577,-8170,-498,-1,-1,-1,0
297237,592,-8154,-480,-1,-1,-1,0
297242,646,-8153,-497,-1,-4,0,0
297247,659,-8181,-568,0,-8,0,0
297252,640,-8162,-603,0,-9,0,0
297257,652,-8183,-645,-1,-4,0,0
297262,651,-8170,-689,-1,2,0,0
297267,654,-8180,-689,-1,4,0,0
297272,664,-8174,-679,-1,3,-1,0
297277,651,-8173,-650,-1,0,-1,0
297282,615,-8171,-630,-1,-2,0,0
297287,581,-8170,-624,0,-2,0,0
297292,563,-8171,-614,0,0,0,0
297297,569,-8173,-629,0,1,0,0
297302,585,-8173,-639,-1,-1,0,0
297307,586,-8170,-644,-1,-2,0,0
297312,573,-8169,-659,-1,-1,0,0
297317,566,-8168,-653,-1,0,0,0
297322,569,-8169,-647,-1,1,0,0
297327,569,-8168,-640,-1,0,0,0
297332,565,-8167,-626,0,-1,0,0
297337,566,-8168,-616,0,-2,0,0
297342,567,-8167,-622,0,-2,0,0
297347,572,-8167,-634,0,-2,0,0
297352,578,-8167,-639,0,-2,0,0
297357,579,-8166,-649,0,-2,0,0
297362,576,-8166,-655,0,-3,0,0
297367,574,-8166,-651,0,-3,0,0
297372,565,-8164,-647,0,-2,0,0
297377,561,-8165,-637,0,-1,0,0
297382,562,-8165,-613,0,0,0,0
297387,566,-8166,-598,0,0,0,0
297392,574,-8167,-587,0,0,0,0
297397,579,-8170,-581,0,0,0,0
297402,573,-8172,-576,0,0,0,0
297407,563,-8175,-569,0,0,0,0
297412,550,-8174,-566,0,0,-1,0
297417,526,-8177,-574,0,0,-1,0
297422,489,-8173,-596,0,1,-1,0
297427,463,-8175,-615,0,2,-1,0
297432,439,-8178,-642,0,1,-1,0
297437,409,-8182,-672,0,-1,-1,0
297442,381,-8182,-690,0,-1,-1,0
297447,354,-8181,-708,0,-1,-1,0
297452,337,-8178,-711,0,0,-1,0
297457,330,-8176,-708,0,1,-1,0
297462,328,-8174,-713,0,0,-1,0
297467,324,-8175,-726,0,0,-1,0
297472,317,-8173,-745,0,-1,-1,0
297477,308,-8175,-766,0,0,-1,0
297482,299,-8174,-781,0,1,-2,0
297487,298,-8177,-786,0,2,-2,0
297492,305,-8178,-771,0,2,-2,0
297497,318,-8176,-744,0,3,-2,0
297501,345,-8173,-697,0,4,-1,0
297507,394,-8172,-633,0,5,-1,0
297512,457,-8172,-564,0,6,-1,0
297517,527,-8172,-496,0,6,-1,0
297522,601,-8171,-430,0,5,-1,0
297526,675,-8171,-377,0,4,-1,0
297531,746,-8172,-331,0,3,-1,0
297536,805,-8172,-292,-1,1,-1,0
297542,850,-8171,-264,-1,0,-1,0
297546,884,-8169,-252,-1,-1,-1,0
297551,909,-8167,-250,-1,-2,-1,0
297556,925,-8168,-266,-1,-2,-1,0
297561,942,-8168,-298,-1,-2,-1,0
297566,956,-8169,-341,-1,-3,0,0
297571,971,-8171,-375,-1,-4,0,0
297576,944,-8169,-400,-1,-7,-1,0
297581,887,-8165,-436,-1,-8,-1,0
297586,803,-8162,-456,-1,-7,-1,0
297591,727,-8160,-481,-1,-4,-1,0
297596,682,-8163,-512,-1,-2,0,0
297601,655,-8163,-539,-1,-2,0,0
297606,639,-8165,-575,-1,-2,0,0
297611,632,-8168,-612,-1,-2,0,0
297616,634,-8171,-637,-1,0,0,0
297621,645,-8169,-649,-1,1,0,0
297626,650,-8169,-646,-1,1,0,0
297631,647,-8169,-640,-1,1,0,0
297636,639,-8170,-630,-1,1,0,0
297641,626,-8168,-625,-1,2,0,0
297646,621,-8168,-624,-1,2,0,0
297651,616,-8168,-621,-1,2,0,0
297656,606,-8172,-621,-1,2,0,0
297661,586,-8174,-626,-1,1,0,0
297666,564,-8177,-633,-1,1,0,0
297671,547,-8177,-639,-1,1,0,0
297676,537,-8176,-643,-1,1,0,0
297681,535,-8175,-645,-1,1,0,0
297686,546,-8174,-647,-1,0,0,0
297691,571,-8172,-649,-1,0,0,0
297696,605,-8173,-657,-1,-1,0,0
297701,638,-8173,-663,0,-1,0,0
297706,672,-8173,-671,0,-1,0,0
297711,701,-8172,-680,0,-2,0,0
297716,715,-8171,-688,0,-2,0,0
297721,717,-8172,-700,0,-2,0,0
297726,713,-8170,-703,0,-1,0,0
297731,708,-8171,-699,0,-1,0,0
297736,703,-8176,-695,0,0,0,0
297741,698,-8175,-677,0,0,0,0
297746,689,-8171,-658,0,0,0,0
297751,681,-8176,-629,0,1,0,0
297756,673,-8174,-602,0,1,0,0
297761,659,-8176,-575,0,1,0,0
297766,641,-8176,-548,0,1,0,0
297771,615,-8174,-535,0,1,0,0
297776,590,-8173,-525,0,1,0,0
297781,563,-8170,-522,0,0,0,0
297786,533,-8171,-525,0,0,0,0
297791,506,-8175,-527,0,0,0,0
297796,482,-8176,-529,0,0,0,0
297801,467,-8180,-527,-1,0,0,0
297806,460,-8182,-526,-1,-1,0,0
297811,462,-8183,-521,-1,-1,0,0
297816,470,-8182,-514,-1,-1,0,0
297821,482,-8182,-501,-1,-1,0,0
297826,505,-8183,-495,-1,-1,0,0
297831,524,-8182,-495,-1,-2,0,0
297836,537,-8180,-494,-1,-2,-1,0
297841,544,-8179,-500,-1,-1,0,0
297846,556,-8178,-509,-1,0,0,0
297851,571,-8177,-512,-1,2,0,0
297856,591,-8176,-512,-1,2,0,0
297861,611,-8174,-510,-1,3,0,0
297866,630,-8171,-518,-1,3,0,0
297871,649,-8162,-523,-1,3,0,0
297876,664,-8165,-568,-1,3,0,0
297881,670,-8163,-605,0,0,-1,0
297886,665,-8170,-627,0,-2,0,0
297891,646,-8173,-658,-1,-2,0,0
297896,639,-8178,-660,-1,1,0,0
297901,658,-8173,-646,-1,3,0,0
297906,683,-8168,-611,-1,3,0,0
297911,694,-8165,-561,-1,3,0,0
297916,687,-8163,-519,-1,4,0,0
297921,658,-8166,-481,-1,6,0,0
297926,606,-8167,-462,-1,9,0,0
297931,555,-8167,-457,-1,14,0,0
297936,509,-8166,-456,-1,18,0,0
297941,474,-8167,-470,-1,22,0,0
297946,459,-8171,-496,-1,23,0,0
297951,454,-8173,-516,-1,22,0,0
297956,455,-8174,-535,-1,19,0,0
297961,462,-8175,-544,-1,15,0,0
297966,466,-8179,-533,-1,10,0,0
297971,469,-8175,-523,-1,6,-1,0
297976,473,-8173,-512,-1,2,-1,0
297981,478,-8171,-498,-1,0,-1,0
297986,485,-8168,-497,-1,-2,-1,0
297991,496,-8163,-509,-1,-2,-1,0
297996,534,-8138,-522,-1,-2,-1,0
298001,644,-8184,-578,-1,-5,0,0
298006,666,-8160,-681,0,-6,0,0
298011,690,-8182,-685,-1,-4,0,0
298016,745,-8173,-735,-1,1,0,0
298021,744,-8174,-756,-1,5,-1,0
298026,735,-8171,-729,-1,2,-1,0
298031,707,-8171,-717,-1,0,-1,0
298036,647,-8173,-674,-1,-1,-1,0
298041,587,-8176,-679,-1,-1,0,0
298046,549,-8177,-680,0,0,0,0
298051,537,-8182,-682,0,1,0,0
298056,542,-8184,-711,-1,0,0,0
298061,541,-8185,-710,-1,-1,0,0
298066,527,-8181,-707,-1,0,-1,0
298071,524,-8180,-698,-1,1,-1,0
298076,519,-8177,-675,-1,1,-1,0
298081,515,-8175,-660,0,1,-1,0
298085,507,-8179,-650,0,0,-1,0
298090,496,-8178,-636,0,-1,-1,0
298096,491,-8176,-634,0,0,-1,0
298101,482,-8176,-639,0,0,-1,0
298106,477,-8176,-640,0,-1,-1,0
298110,474,-8178,-631,-1,-1,-1,0
298116,471,-8176,-621,-1,-1,-1,0
298120,472,-8174,-607,-1,-1,-1,0
298126,485,-8172,-592,0,-1,-1,0
298130,502,-8171,-583,0,0,-1,0
298135,522,-8171,-567,-1,0,-1,0
298140,544,-8172,-548,-1,0,-1,0
298145,564,-8172,-544,0,0,-1,0
298150,579,-8171,-543,-1,0,-1,0
298155,587,-8170,-543,-1,0,-1,0
298160,591,-8169,-546,-1,0,-1,0
298165,597,-8169,-548,-1,0,-1,0
298170,598,-8168,-548,-1,-1,-1,0
298175,593,-8170,-561,-1,-1,-1,0
298180,588,-8175,-571,-1,-2,-1,0
298185,586,-8176,-573,-1,-1,-1,0
298190,588,-8173,-583,-1,-1,-1,0
298195,598,-8167,-598,-1,-2,-1,0
298200,601,-8169,-613,0,-4,-1,0
298205,592,-8173,-610,0,-3,-1,0
298210,593,-8172,-613,-1,0,-1,0
298215,603,-8174,-595,-1,1,-1,0
298220,617,-8171,-571,-1,0,-1,0
298225,624,-8172,-542,-1,-1,-1,0
298230,620,-8172,-504,-1,-1,-1,0
298235,617,-8172,-483,-1,0,-1,0
298240,621,-8173,-468,-1,1,-1,0
298245,625,-8175,-465,-1,0,-1,0
298250,628,-8176,-470,-1,-1,-1,0
298255,627,-8177,-471,-1,-2,-1,0
298260,622,-8177,-481,-1,-2,-1,0
298265,613,-8176,-489,-1,-2,-1,0
298270,609,-8177,-497,-1,-1,-1,0
298275,606,-8175,-509,-1,-1,-1,0
298280,603,-8173,-520,-1,-2,-1,0
298285,595,-8172,-538,-1,-2,-1,0
298290,583,-8173,-553,-1,-2,-1,0
298295,572,-8172,-565,-1,-2,-1,0
298300,564,-8174,-579,-1,-2,-1,0
298305,559,-8175,-587,-1,-1,-1,0
298310,551,-8175,-604,-1,-1,-1,0
298315,546,-8175,-616,-1,-1,-1,0
298320,549,-8176,-627,-1,-1,-1,0
298325,555,-8179,-640,-1,-1,-1,0
298330,565,-8180,-642,-1,-1,-1,0
298335,583,-8179,-637,-1,-1,-1,0
298340,610,-8179,-630,-1,-1,-1,0
298345,638,-8176,-617,-1,0,-1,0
298350,663,-8176,-603,-1,-1,-1,0
298355,682,-8175,-594,-1,-1,-1,0
298360,696,-8176,-586,-1,-1,-1,0
298365,702,-8174,-587,-1,-1,-1,0
298370,701,-8173,-593,-1,-1,-1,0
298375,692,-8172,-601,-1,-1,-1,0
298380,679,-8169,-609,-1,-1,-1,0
298385,666,-8170,-618,-1,-1,-1,0
298390,654,-8168,-619,-1,-1,-1,0
298395,645,-8169,-624,-1,-1,0,0
298400,635,-8169,-623,-1,-1,-1,0
298405,625,-8166,-625,-1,-1,-1,0
298410,619,-8164,-633,-1,-1,-1,0
298415,616,-8164,-645,-1,-1,-1,0
298420,612,-8167,-661,-1,-1,-1,0
298425,611,-8169,-675,-1,-1,-1,0
298430,615,-8171,-678,-1,-1,-1,0
298435,622,-8172,-683,-1,-1,-1,0
298440,626,-8173,-678,-1,-1,-1,0
298445,630,-8173,-669,-1,-1,-1,0
298450,634,-8173,-660,-1,-1,-1,0
298455,633,-8170,-654,-1,-1,-1,0
298460,631,-8170,-645,-1,-1,-1,0
298465,630,-8171,-633,-1,-1,-1,0
298470,631,-8171,-627,-1,0,0,0
298475,632,-8173,-630,-1,0,0,0
298480,632,-8173,-629,0,0,0,0
298485,631,-8172,-628,-1,0,0,0
298490,632,-8169,-627,-1,0,0,0
298495,632,-8169,-627,-1,0,0,0
298500,634,-8170,-629,-1,1,0,0
298505,635,-8171,-629,-1,1,0,0
298510,639,-8168,-629,-1,1,0,0
298515,640,-8168,-630,-1,0,0,0
298520,635,-8169,-635,-1,0,0,0
298525,626,-8171,-635,0,0,-1,0
298530,621,-8173,-630,0,0,0,0
298535,617,-8174,-626,0,0,0,0
298540,610,-8173,-625,0,0,0,0
298545,608,-8173,-621,0,0,0,0
298550,607,-8172,-610,-1,-1,0,0
298555,607,-8172,-600,-1,-1,0,0
298560,603,-8174,-585,-1,-1,0,0
298565,599,-8177,-572,-1,-1,0,0
298570,599,-8173,-561,-1,-1,0,0
298575,600,-8174,-557,-1,-1,0,0
298580,601,-8174,-560,-1,-1,0,0
298585,606,-8175,-566,-1,-1,0,0
298590,609,-8176,-572,-1,-1,0,0
298595,614,-8175,-579,-1,0,0,0
298600,621,-8177,-589,-1,0,0,0
298605,625,-8177,-592,-1,0,0,0
298610,626,-8177,-595,-1,0,0,0
298615,625,-8175,-599,-1,0,0,0
298620,628,-8177,-603,-1,0,0,0
298625,626,-8176,-608,-1,0,0,0
298630,622,-8173,-614,-1,0,0,0
298635,615,-8171,-617,-1,0,0,0
298640,610,-8168,-614,-1,0,0,0
298644,602,-8167,-609,-1,0,0,0
298650,596,-8168,-604,-1,0,0,0
298655,591,-8169,-596,-1,0,0,0
298660,587,-8168,-591,-1,0,0,0
298665,586,-8168,-587,-1,0,0,0
298669,586,-8169,-585,-1,0,0,0
298674,587,-8168,-586,-1,0,0,0
298679,589,-8168,-589,-1,-1,0,0
298684,586,-8171,-589,-1,-1,0,0
298689,590,-8172,-587,-1,-1,0,0
298694,594,-8169,-587,-1,-1,0,0
298699,599,-8170,-586,-1,-1,0,0
298704,599,-8167,-587,-1,-1,-1,0
298709,598,-8164,-587,-1,-1,0,0
298714,597,-8164,-589,-1,0,-1,0
298719,599,-8166,-590,-1,0,0,0
298724,603,-8165,-588,-1,0,0,0
298729,608,-8166,-587,-1,0,0,0
298734,612,-8168,-588,-1,-1,0,0
298739,609,-8166,-592,-1,-1,0,0
298744,605,-8163,-597,-1,-1,0,0
298749,602,-8163,-603,-1,-1,0,0
298754,600,-8162,-608,-1,-1,0,0
298759,596,-8165,-613,-1,-1,0,0
298764,589,-8163,-615,-1,-1,0,0
298769,586,-8163,-614,-1,0,0,0
298774,585,-8166,-610,-1,0,0,0
298779,586,-8168,-604,-1,0,0,0
298784,587,-8167,-600,-1,-1,0,0
298789,590,-8167,-596,-1,-1,0,0
298794,595,-8169,-591,-1,-1,-1,0
298799,599,-8168,-585,-1,-1,-1,0
298804,600,-8165,-585,-1,-1,-1,0
298809,598,-8165,-588,-1,-1,-1,0
298814,598,-8164,-593,-1,-1,-1,0
298819,598,-8165,-596,-1,-1,-1,0
298824,598,-8163,-599,-1,-1,-1,0
298829,593,-8166,-606,-1,-1,0,0
298834,595,-8166,-612,-1,-1,-1,0
298839,600,-8169,-613,-1,-1,-1,0
298844,605,-8168,-610,-1,-1,0,0
298849,611,-8167,-607,-1,-1,0,0
298854,620,-8167,-602,-1,-1,0,0
298859,629,-8169,-598,-1,-1,0,0
298864,633,-8168,-594,-1,-1,0,0
298869,633,-8168,-590,-1,-1,0,0
298874,637,-8169,-593,-1,0,0,0
298879,642,-8169,-596,-1,-1,0,0
298884,646,-8168,-602,-1,-1,0,0
298889,647,-8167,-610,-1,-1,0,0
298894,647,-8165,-611,-1,0,0,0
298899,646,-8164,-618,-1,0,0,0
298904,641,-8165,-623,-1,0,0,0
298909,635,-8168,-626,-1,0,0,0
298914,628,-8168,-625,-1,0,0,0
298919,621,-8169,-627,-1,0,0,0
298924,620,-8172,-628,-1,0,0,0
298929,621,-8172,-622,-1,0,0,0
298934,622,-8175,-614,-1,0,0,0
298939,628,-8173,-606,-1,0,0,0
298944,635,-8173,-603,-1,0,0,0
298949,642,-8173,-601,-1,0,0,0
298954,644,-8173,-603,-1,-1,0,0
298959,643,-8170,-607,-1,0,0,0
298964,642,-8165,-617,-1,0,0,0
298969,637,-8163,-618,-1,0,0,0
298974,628,-8164,-618,-1,0,0,0
298979,619,-8164,-620,-1,0,0,0
298984,610,-8168,-619,-1,0,0,0
298989,600,-8172,-617,-1,0,0,0
298994,591,-8174,-613,-1,0,0,0
298999,581,-8173,-606,-1,-1,0,0
299004,576,-8174,-596,-1,-1,0,0
299009,570,-8173,-587,-1,0,0,0
299014,566,-8173,-577,-1,-1,0,0
299019,565,-8172,-573,-1,-1,0,0
299024,564,-8172,-565,-1,-1,0,0
299029,563,-8172,-562,-1,-1,0,0
299034,566,-8176,-565,-1,0,0,0
299039,568,-8180,-567,-1,0,0,0
299044,571,-8177,-572,-1,0,0,0
299049,571,-8175,-576,-1,0,0,0
299054,574,-8177,-584,-1,0,0,0
299059,579,-8178,-590,-1,0,0,0
299064,579,-8179,-599,-1,0,0,0
299069,582,-8178,-608,-1,-1,0,0
299074,583,-8175,-614,-1,-1,0,0
299079,586,-8175,-618,-1,0,0,0
299084,591,-8173,-620,-1,0,0,0
299089,594,-8171,-622,-1,0,0,0
299094,600,-8169,-623,-1,0,0,0
299099,606,-8167,-622,-1,0,0,0
299104,610,-8168,-615,-1,0,0,0
299109,619,-8166,-613,-1,0,0,0
299114,626,-8168,-610,-1,0,0,0
299119,627,-8168,-608,-1,0,0,0
299124,625,-8167,-609,-1,0,0,0
299129,614,-8167,-610,-1,0,0,0
299134,600,-8166,-612,-1,0,0,0
299139,588,-8167,-619,-1,0,0,0
299144,580,-8166,-621,-1,0,0,0
299149,568,-8165,-617,-1,0,0,0
299154,562,-8165,-612,-1,0,0,0
299159,560,-8164,-611,-1,0,0,0
299164,561,-8166,-611,-1,0,0,0
299169,566,-8166,-609,-1,0,0,0
299174,573,-8165,-604,-1,-1,0,0
299179,580,-8167,-605,-1,-1,0,0
299184,587,-8165,-608,-1,-1,0,0
299189,592,-8165,-615,-1,-1,0,0
299194,597,-8169,-620,-1,-1,0,0
299198,604,-8174,-622,-1,-1,0,0
299204,611,-8175,-619,-1,-1,0,0
299208,613,-8177,-611,-1,-1,0,0
299214,611,-8177,-604,-1,-1,0,0
299219,614,-8177,-603,-1,-1,0,0
299223,619,-8175,-605,0,-1,0,0
299228,622,-8175,-611,0,-1,0,0
299233,622,-8175,-620,0,-1,0,0
299238,622,-8176,-627,-1,0,0,0
299243,624,-8174,-636,-1,0,0,0
299248,617,-8175,-642,-1,0,0,0
299253,608,-8175,-640,-1,0,0,0
299258,600,-8177,-633,-1,0,0,0
299263,596,-8176,-629,-1,0,0,0
299268,591,-8179,-624,-1,-1,0,0
299273,590,-8179,-623,0,-1,0,0
299278,597,-8180,-625,0,-1,0,0
299283,603,-8178,-626,0,0,0,0
299288,607,-8177,-628,0,0,0,0
299293,607,-8174,-628,0,-1,0,0
299298,606,-8173,-635,0,-1,0,0
299303,598,-8171,-633,0,0,0,0
299308,591,-8172,-631,0,0,0,0
299313,580,-8172,-624,0,0,0,0
299318,572,-8173,-619,0,0,0,0
299323,565,-8171,-616,0,-1,0,0
299328,560,-8174,-610,0,-1,0,0
299333,553,-8173,-602,-1,-1,0,0
299338,542,-8172,-586,-1,-1,0,0
299343,535,-8173,-571,-1,-1,0,0
299348,527,-8174,-559,-1,-1,-1,0
299353,526,-8171,-548,-1,-1,0,0
299358,527,-8172,-544,0,-1,0,0
299363,538,-8174,-547,-1,-1,0,0
299368,558,-8175,-553,-1,-1,0,0
299373,582,-8176,-558,-1,-1,0,0
299378,611,-8176,-560,-1,-1,0,0
299383,639,-8176,-564,-1,-1,0,0
299388,656,-8176,-569,-1,-1,0,0
299393,664,-8178,-580,-1,-1,0,0
299398,665,-8177,-590,-1,-1,0,0
299403,661,-8176,-599,-1,-1,0,0
299408,659,-8177,-607,-1,-1,0,0
299413,653,-8176,-610,-1,0,0,0
299418,644,-8177,-607,-1,0,0,0
299423,632,-8175,-602,-1,0,0,0
299428,619,-8172,-600,-1,0,0,0
299433,604,-8170,-594,-1,0,0,0
299438,590,-8173,-594,-1,0,0,0
299443,577,-8172,-593,-1,-1,0,0
299448,566,-8171,-589,-1,-1,0,0
299453,557,-8168,-585,-1,-1,0,0
299458,549,-8170,-582,-1,-1,0,0
299463,544,-8169,-587,-1,-1,0,0
299468,538,-8171,-588,-1,-1,0,0
299473,532,-8173,-587,-1,-1,0,0
299478,528,-8175,-582,-1,-1,-1,0
299483,525,-8174,-579,-1,0,-1,0
299488,529,-8173,-580,-1,0,0,0
299493,532,-8176,-582,-1,0,0,0
299498,538,-8176,-579,-1,-1,0,0
299503,551,-8174,-579,-1,-1,0,0
299508,564,-8178,-573,-1,-1,-1,0
299513,576,-8178,-573,-1,-1,0,0
299518,588,-8180,-578,-1,-1,0,0
299523,601,-8179,-588,-1,-1,0,0
299528,611,-8179,-602,-1,-1,0,0
299533,618,-8180,-616,-1,-1,0,0
299538,619,-8178,-623,-1,-1,-1,0
299543,618,-8178,-632,-1,-1,0,0
299548,612,-8181,-638,-1,-1,0,0
299553,605,-8181,-644,-1,0,0,0
299558,599,-8179,-647,-1,0,0,0
299563,591,-8179,-646,-1,0,0,0
299568,578,-8179,-644,-1,0,0,0
299573,571,-8177,-638,-1,0,0,0
299578,563,-8175,-632,-1,0,0,0
299583,560,-8169,-624,-1,0,0,0
299588,558,-8166,-620,-1,0,0,0
299593,563,-8167,-612,-1,0,0,0
299598,568,-8167,-604,-1,0,0,0
299603,574,-8167,-591,-1,0,0,0
299608,579,-8170,-583,-1,0,-1,0
299613,581,-8171,-575,-1,0,-1,0
299618,577,-8173,-569,-1,0,-1,0
299623,572,-8173,-565,-1,0,-1,0
299628,561,-8174,-562,-1,0,-1,0
299633,551,-8173,-562,-1,0,-1,0
299638,539,-8172,-565,-1,0,-1,0
299643,533,-8172,-571,-1,0,-1,0
299648,529,-8177,-585,-1,0,-1,0
299653,525,-8177,-598,-1,-1,-1,0
299658,525,-8177,-609,-1,-1,-1,0
299663,530,-8177,-616,-1,-1,-1,0
299668,537,-8176,-616,-1,-1,-1,0
299673,545,-8176,-614,-1,-1,-1,0
299678,554,-8176,-612,-1,-1,-1,0
299683,564,-8175,-610,-1,-1,-1,0
299688,627,-8174,-596,-1,-3,0,0
299693,652,-8171,-589,-1,-3,0,0
299698,686,-8171,-586,-1,-2,0,0
299703,737,-8175,-586,-1,0,0,0
299708,753,-8174,-590,-1,1,-1,0
299713,762,-8174,-595,-1,0,-1,0
299718,733,-8175,-609,-1,-1,-1,0
299723,685,-8173,-614,-1,-1,-1,0
299728,652,-8172,-625,-1,-1,0,0
299733,621,-8170,-637,-1,0,0,0
299738,611,-8171,-646,-1,0,0,0
299743,603,-8172,-669,-1,-1,0,0
299748,585,-8172,-684,-1,-1,0,0
299752,566,-8173,-690,-1,-1,-1,0
299758,538,-8174,-696,-1,0,-1,0
299763,514,-8175,-684,-1,0,-1,0
299767,502,-8173,-665,-1,-1,0,0
299773,484,-8170,-650,-1,-1,0,0
299777,484,-8169,-632,-1,-1,0,0
299783,495,-8171,-619,-1,-1,-1,0
299788,510,-8175,-607,0,-1,-1,0
299792,533,-8165,-593,-1,-2,-1,0
299797,581,-8167,-600,-1,-4,-1,0
299803,603,-8180,-626,0,-6,0,0
299808,606,-8173,-641,0,-6,0,0
299812,628,-8174,-655,-1,-2,0,0
299817,646,-8170,-657,-1,1,-1,0
299823,653,-8169,-641,-1,1,-1,0
299827,648,-8166,-618,-1,0,-1,0
299832,620,-8164,-593,-1,-1,-1,0
299837,588,-8161,-584,0,0,-1,0
299842,566,-8161,-579,0,0,0,0
299847,552,-8164,-585,0,0,0,0
299852,541,-8165,-604,-1,0,0,0
299857,532,-8168,-608,-1,-1,-1,0
299862,519,-8171,-601,-1,0,-1,0
299867,507,-8172,-594,-1,0,-1,0
299872,498,-8173,-578,-1,-1,-1,0
299877,492,-8174,-562,-1,-1,-1,0
299882,488,-8177,-558,-1,-1,-1,0
299887,493,-8181,-553,-1,-1,-1,0
299892,499,-8179,-556,-1,-1,-1,0
299897,502,-8179,-564,-1,-1,-1,0
299902,509,-8179,-578,-1,-1,-1,0
299907,517,-8179,-595,-1,-2,-1,0
299912,521,-8177,-616,-1,-2,-1,0
299917,531,-8176,-641,-1,-2,-1,0
299922,552,-8176,-652,-1,-2,-1,0
299927,576,-8177,-667,-1,-1,-1,0
299932,604,-8176,-679,-1,-1,-1,0
299937,634,-8175,-677,-1,0,-1,0
299942,657,-8173,-669,-1,0,-1,0
299947,675,-8174,-656,-1,0,-1,0
299952,694,-8174,-640,-1,0,-1,0
299957,712,-8170,-622,-1,-1,-1,0
299962,719,-8172,-613,0,-1,-1,0
299967,718,-8172,-604,0,-1,-1,0
299972,715,-8174,-598,-1,-1,-1,0
299977,711,-8174,-592,-1,0,-1,0
299982,704,-8176,-575,-1,0,0,0
299987,695,-8176,-564,-1,-1,0,0
299992,688,-8175,-553,-1,-1,0,0
299997,682,-8173,-537,-1,-1,0,0
300002,678,-8173,-531,-1,-1,0,0
300007,672,-8172,-534,-1,0,0,0
300012,663,-8173,-545,-1,-1,0,0
300017,649,-8171,-558,-1,-1,-1,0
300022,626,-8168,-569,-1,-1,0,0
300027,608,-8165,-578,-1,-1,0,0
300032,597,-8164,-593,-1,-1,0,0
300037,589,-8166,-614,-1,-1,0,0
300042,587,-8167,-633,-1,-1,0,0
300047,588,-8168,-649,-1,-1,0,0
300052,581,-8167,-672,-1,-1,0,0
300057,576,-8165,-688,-1,-1,-1,0
300062,570,-8168,-696,-1,-1,0,0
300067,567,-8169,-708,-1,-1,0,0
300072,567,-8168,-716,0,-1,0,0
300077,568,-8169,-718,0,-1,0,0
300082,570,-8169,-718,0,0,0,0
300087,572,-8169,-712,0,0,0,0
300092,578,-8170,-705,0,0,0,0
300097,584,-8171,-700,0,0,0,0
300102,592,-8171,-687,0,0,0,0
300107,604,-8171,-669,0,0,0,0
300112,616,-8168,-651,0,0,0,0
300117,629,-8168,-634,0,0,0,0
300122,641,-8171,-610,0,0,0,0
300127,647,-8171,-595,0,0,0,0
300132,651,-8171,-583,0,0,0,0
300137,655,-8172,-570,0,-1,0,0
300142,662,-8172,-569,0,-1,0,0
300147,668,-8171,-572,0,-1,0,0
300152,673,-8173,-576,0,-1,0,0
300157,675,-8171,-583,0,-1,0,0
300162,676,-8172,-594,0,-1,0,0
300167,679,-8172,-604,0,-1,0,0
300172,681,-8171,-620,0,0,0,0
300177,679,-8171,-630,0,0,0,0
300182,677,-8171,-635,0,0,0,0
300187,674,-8172,-634,0,0,0,0
300192,667,-8172,-634,0,0,0,0
300197,661,-8170,-630,0,0,0,0
300202,655,-8168,-631,0,0,0,0
300207,649,-8168,-634,0,0,0,0
300212,642,-8167,-634,0,-1,0,0
300217,634,-8169,-634,0,-1,0,0
300222,629,-8168,-640,0,-1,0,0
300227,626,-8170,-651,0,-1,0,0
300232,624,-8172,-657,0,-1,0,0
300237,627,-8174,-657,0,-1,0,0
300242,627,-8174,-653,0,0,0,0
300247,628,-8172,-649,0,0,0,0
300252,630,-8170,-641,0,0,0,0
300257,634,-8173,-634,0,0,0,0
300262,636,-8175,-621,0,0,0,0
300267,634,-8178,-603,0,0,0,0
300272,628,-8175,-585,0,0,0,0
300277,619,-8172,-574,0,0,0,0
300282,610,-8173,-564,0,0,0,0
300287,596,-8175,-558,0,0,0,0
300292,581,-8173,-553,0,-1,0,0
300297,568,-8173,-553,0,-1,0,0
300302,551,-8170,-562,0,-1,0,0
300307,537,-8171,-570,0,-1,0,0
300312,519,-8171,-581,0,-1,0,0
300317,503,-8173,-596,0,-1,0,0
300321,493,-8173,-615,0,-1,0,0
300326,486,-8170,-632,0,-1,0,0
300331,484,-8169,-643,0,-1,0,0
300336,486,-8167,-654,0,0,0,0
300342,495,-8165,-664,0,0,0,0
300347,507,-8165,-670,0,0,0,0
300351,521,-8163,-665,0,0,0,0
300357,534,-8166,-651,0,0,0,0
300361,549,-8171,-640,0,0,0,0
300367,566,-8172,-632,0,0,0,0
300372,574,-8171,-617,0,0,0,0
300376,580,-8169,-603,0,0,0,0
300381,587,-8168,-590,0,0,0,0
300387,593,-8166,-578,0,0,0,0
300391,592,-8166,-564,0,-1,0,0
300396,579,-8167,-559,0,-1,0,0
300401,560,-8169,-553,0,-1,0,0
300406,541,-8172,-554,0,-1,0,0
300411,522,-8173,-564,0,-1,0,0
300416,505,-8174,-570,0,-1,0,0
300421,494,-8175,-581,0,-1,0,0
300426,482,-8176,-594,0,-1,0,0
300431,480,-8177,-609,0,-1,0,0
300436,478,-8178,-619,0,-1,-1,0
300441,477,-8177,-627,0,-1,-1,0
300446,481,-8177,-631,-1,-1,-1,0
300451,488,-8175,-634,-1,-1,-1,0
300456,497,-8171,-638,0,-1,-1,0
300461,516,-8174,-638,0,0,-1,0
300466,535,-8177,-642,0,-1,-1,0
300471,553,-8175,-644,0,-1,-1,0
300476,571,-8175,-642,0,-1,-1,0
300481,586,-8174,-643,0,-1,-1,0
300486,603,-8173,-641,0,-1,0,0
300491,620,-8172,-638,0,0,0,0
300496,633,-8173,-632,0,0,0,0
300501,641,-8173,-627,0,-1,0,0
300506,647,-8171,-620,0,-1,0,0
300511,650,-8170,-611,0,-1,0,0
300516,651,-8168,-602,0,-1,0,0
300521,652,-8169,-596,0,-1,0,0
300526,648,-8170,-590,0,-1,0,0
300531,643,-8169,-585,0,-1,0,0
300536,639,-8169,-584,0,-1,0,0
300541,633,-8170,-585,0,-1,0,0
300546,629,-8171,-590,0,-1,0,0
300551,627,-8172,-594,0,-1,0,0
300556,626,-8169,-597,0,-1,0,0
300561,623,-8166,-600,0,-1,0,0
300566,623,-8166,-606,0,-1,0,0
300571,623,-8164,-615,0,-1,0,0
300576,619,-8166,-627,0,-1,0,0
300581,616,-8163,-635,0,-1,0,0
300586,611,-8163,-641,0,-1,0,0
300591,608,-8165,-644,0,0,0,0
300596,607,-8167,-644,0,0,0,0
300601,603,-8168,-641,0,0,0,0
300606,601,-8170,-636,0,0,0,0
300611,596,-8172,-632,0,0,0,0
300616,593,-8174,-625,0,0,0,0
300621,591,-8174,-615,0,0,0,0
300626,591,-8174,-606,0,-1,0,0
300631,591,-8173,-602,0,-1,0,0
300636,591,-8171,-597,0,-1,0,0
300641,592,-8169,-591,0,-1,0,0
300646,589,-8167,-590,0,-1,0,0
300651,582,-8167,-590,0,-1,0,0
300656,577,-8168,-589,0,-1,0,0
300661,569,-8172,-593,0,-1,0,0
300666,560,-8176,-597,0,-1,0,0
300671,552,-8175,-600,0,-1,0,0
300676,548,-8174,-602,0,-1,0,0
300681,547,-8172,-600,0,-1,0,0
300686,549,-8174,-602,0,-1,0,0
300691,550,-8175,-602,0,-1,0,0
300696,553,-8174,-602,0,0,0,0
300701,553,-8172,-599,0,0,0,0
300706,553,-8168,-593,0,0,0,0
300711,554,-8163,-590,0,-1,0,0
300716,553,-8158,-584,0,0,0,0
300721,552,-8158,-583,0,-1,0,0
300726,547,-8160,-583,0,-1,0,0
300731,540,-8161,-581,0,-1,0,0
300736,533,-8163,-580,0,-1,0,0
300741,523,-8165,-579,0,-1,0,0
300746,517,-8166,-581,0,0,0,0
300751,512,-8167,-580,0,-1,0,0
300756,511,-8167,-580,0,0,0,0
300761,511,-8166,-583,0,0,0,0
300766,513,-8165,-583,0,0,0,0
300771,516,-8165,-580,0,0,0,0
300776,518,-8164,-578,0,-1,0,0
300781,522,-8163,-580,0,0,0,0
300786,527,-8165,-580,0,-1,0,0
300791,534,-8166,-580,0,0,0,0
300796,538,-8167,-576,0,0,0,0
300801,541,-8167,-569,0,0,0,0
300806,541,-8168,-565,0,0,0,0
300811,543,-8170,-561,0,0,0,0
300816,544,-8172,-555,0,0,0,0
300821,546,-8175,-551,0,0,0,0
300826,545,-8178,-548,0,-1,0,0
300831,541,-8178,-547,0,-1,0,0
300836,535,-8177,-544,0,0,0,0
300841,531,-8177,-549,0,0,0,0
300846,527,-8175,-554,0,-1,0,0
300851,527,-8173,-557,0,-1,0,0
300856,529,-8174,-564,0,-1,0,0
300861,533,-8175,-574,0,-1,0,0
300866,538,-8175,-585,0,-1,0,0
300871,544,-8176,-603,0,-1,0,0
300876,553,-8174,-616,0,-1,0,0
300881,562,-8170,-629,0,-1,0,0
300885,571,-8170,-639,0,-1,0,0
300891,581,-8172,-642,0,0,0,0
300896,590,-8172,-641,0,0,0,0
300901,598,-8171,-640,0,0,0,0
300905,604,-8168,-629,0,0,0,0
300910,606,-8166,-622,0,0,0,0
300915,607,-8166,-610,0,0,0,0
300920,605,-8165,-601,0,0,0,0
300925,601,-8165,-592,0,0,0,0
300930,592,-8164,-585,0,0,0,0
300935,580,-8164,-576,0,0,0,0
300940,568,-8163,-569,0,0,0,0
300945,556,-8161,-566,0,0,0,0
300950,547,-8164,-563,0,0,0,0
300955,540,-8166,-561,0,0,0,0
300960,536,-8166,-563,0,0,0,0
300965,535,-8165,-564,0,-1,0,0
300970,536,-8168,-567,0,0,0,0
300975,542,-8170,-569,0,0,0,0
300980,552,-8172,-567,0,0,0,0
300985,559,-8171,-565,0,0,0,0
300990,565,-8171,-562,0,0,0,0
300995,571,-8175,-559,0,0,0,0
301000,577,-8176,-563,0,0,0,0
301005,582,-8177,-564,0,0,0,0
301010,585,-8176,-566,0,0,0,0
301015,587,-8176,-567,0,0,0,0
301020,585,-8176,-569,0,0,0,0
301025,583,-8177,-565,0,0,0,0
301030,578,-8178,-565,0,0,0,0
301035,568,-8179,-562,-1,0,0,0
301040,561,-8178,-558,-1,0,0,0
301045,555,-8178,-553,-1,0,0,0
301050,548,-8178,-551,-1,0,0,0
301055,545,-8177,-545,-1,0,0,0
301060,539,-8176,-542,-1,0,0,0
301065,533,-8178,-547,-1,0,0,0
301070,529,-8177,-546,-1,0,0,0
301075,528,-8176,-547,-1,0,0,0
301080,527,-8177,-545,-1,0,0,0
301085,523,-8179,-545,-1,0,0,0
301090,521,-8176,-546,-1,0,0,0
301095,521,-8175,-541,-1,0,0,0
301100,521,-8175,-537,-1,0,0,0
301105,517,-8175,-533,-1,0,0,0
301110,517,-8175,-530,-1,0,0,0
301115,516,-8177,-529,-1,0,0,0
301120,514,-8180,-523,-1,0,-1,0
301125,512,-8180,-523,-1,-1,-1,0
301130,507,-8180,-527,-1,-1,0,0
301135,500,-8180,-531,-1,-1,-1,0
301140,496,-8178,-538,-1,-1,0,0
301145,491,-8178,-543,-1,-1,-1,0
301150,489,-8176,-550,-1,-1,-1,0
301155,489,-8175,-552,-1,-1,-1,0
301160,492,-8172,-554,-1,0,-1,0
301165,496,-8171,-553,-1,0,-1,0
301170,505,-8168,-550,-1,0,-1,0
301175,515,-8171,-550,-1,0,-1,0
301180,524,-8169,-554,-1,0,-1,0
301185,532,-8169,-559,-1,0,-1,0
301190,537,-8169,-558,-1,0,-1,0
301195,538,-8168,-558,-1,0,-1,0
301200,535,-8167,-564,-1,-1,-1,0
301205,531,-8163,-566,-1,-1,-1,0
301210,524,-8163,-569,-1,-1,-1,0
301215,517,-8162,-575,-1,0,-1,0
301220,514,-8164,-578,-1,0,-1,0
301225,514,-8168,-578,-1,0,-1,0
301230,510,-8170,-583,-1,0,-1,0
301235,510,-8170,-584,-1,0,-1,0
301240,511,-8171,-579,-1,0,-1,0
301245,510,-8172,-570,-1,0,-1,0
301250,507,-8173,-560,-1,0,-1,0
301255,501,-8172,-545,-1,0,-1,0
301260,489,-8173,-530,-1,0,-1,0
301265,469,-8173,-517,-1,0,-1,0
301270,449,-8172,-500,-1,0,-1,0
301275,424,-8172,-479,-1,1,-1,0
301280,392,-8173,-455,-1,1,-1,0
301285,356,-8176,-428,-1,1,-1,0
301290,310,-8175,-399,-1,1,-2,0
301295,259,-8177,-367,-2,2,-2,0
301300,210,-8178,-332,-2,2,-2,0
301305,157,-8182,-295,-2,2,-2,0
301310,106,-8182,-255,-2,2,-2,0
301315,57,-8184,-205,-2,3,-2,0
301320,9,-8184,-151,-2,3,-3,0
301325,-22,-8186,-85,-3,3,-3,0
301330,-37,-8184,-28,-3,0,-4,9
301335,-73,-8181,31,-3,-3,-5,9
301340,-181,-8183,119,-4,-4,-5,9
301345,-317,-8184,207,-4,-2,-5,9
301350,-455,-8184,310,-5,2,-5,9
301355,-572,-8182,416,-5,4,-5,9
301360,-657,-8180,513,-5,3,-5,9
301365,-721,-8181,606,-6,2,-6,9
301370,-764,-8182,678,-6,0,-6,9
301375,-790,-8184,731,-6,-1,-7,9
301380,-806,-8182,777,-7,-2,-7,9
301385,-803,-8177,814,-7,-2,-8,9
301390,-783,-8173,842,-8,-1,-8,9
301395,-745,-8171,861,-8,0,-8,9
301400,-692,-8167,866,-9,0,-9,9
301405,-630,-8165,873,-9,1,-9,9
301410,-566,-8160,875,-10,2,-9,9
301415,-516,-8154,885,-10,3,-10,9
301420,-487,-8147,913,-11,2,-10,9
301425,-485,-8139,952,-12,0,-11,9
301430,-507,-8130,990,-12,-1,-11,9
301435,-545,-8124,1021,-12,-2,-11,9
301440,-589,-8118,1045,-13,-1,-12,9
301444,-625,-8111,1058,-13,0,-12,9
301449,-649,-8104,1070,-14,2,-12,9
301455,-664,-8097,1078,-15,4,-13,9
301460,-670,-8088,1084,-15,6,-13,9
301464,-666,-8077,1096,-16,9,-14,9
301470,-652,-8065,1115,-17,11,-14,9
301474,-628,-8054,1132,-17,13,-14,9
301479,-591,-8040,1143,-18,14,-15,9
301485,-543,-8030,1143,-18,15,-15,9
301489,-485,-8018,1128,-19,16,-15,9
301494,-423,-8005,1099,-19,17,-16,9
301499,-362,-7993,1057,-20,17,-16,9
301504,-309,-7978,1006,-20,19,-16,9
301509,-267,-7961,953,-21,21,-17,9
301514,-241,-7945,905,-21,25,-17,9
301519,-229,-7934,861,-22,30,-17,9
301524,-230,-7916,820,-22,36,-18,9
301529,-235,-7897,780,-23,43,-18,9
301534,-237,-7882,741,-23,50,-18,9
301539,-227,-7869,701,-24,57,-19,9
301544,-199,-7852,661,-24,63,-19,9
301549,-161,-7834,625,-25,66,-19,9
301554,-102,-7819,585,-25,66,-20,9
301559,-37,-7801,550,-25,65,-20,9
301564,28,-7782,524,-26,64,-21,9
301569,109,-7768,506,-26,62,-21,9
301574,200,-7755,490,-26,62,-21,9
301579,298,-7736,473,-26,62,-22,9
301584,399,-7708,447,-26,62,-22,9
301589,503,-7686,412,-27,62,-22,9
301594,605,-7663,369,-27,62,-22,9
301599,709,-7640,302,-27,61,-22,9
301604,877,-7635,193,-27,57,-22,9
301609,1055,-7626,64,-27,52,-22,9
301614,1235,-7610,-76,-27,44,-22,9
301619,1400,-7590,-225,-27,36,-22,9
301624,1544,-7578,-383,-27,29,-21,9
301629,1673,-7566,-534,-27,25,-21,9
301634,1789,-7547,-682,-27,24,-21,9
301639,1894,-7535,-831,-27,25,-21,9
301644,2004,-7524,-978,-27,28,-20,9
301649,2098,-7515,-1125,-27,31,-20,9
301654,2253,-7506,-1250,-27,35,-21,9
301659,2479,-7494,-1403,-26,40,-20,9
301664,2706,-7495,-1518,-25,45,-20,9
301669,2929,-7491,-1628,-25,45,-20,9
301674,3138,-7493,-1762,-24,43,-20,9
301679,3300,-7500,-1883,-24,39,-20,9
301684,3460,-7501,-2040,-24,35,-19,9
301689,3577,-7500,-2191,-23,33,-19,9
301694,3655,-7504,-2333,-23,31,-19,9
301699,3719,-7508,-2480,-22,30,-18,9
301704,3773,-7514,-2613,-22,29,-17,9
301709,3842,-7523,-2753,-21,28,-17,9
301714,3930,-7533,-2904,-20,25,-16,9
301719,4041,-7543,-3052,-20,20,-15,9
301724,4169,-7549,-3212,-19,14,-14,9
301729,4308,-7553,-3370,-18,6,-14,9
301734,4457,-7559,-3527,-17,-1,-13,9
301739,4608,-7566,-3700,-16,-6,-12,9
301744,4751,-7572,-3879,-15,-9,-11,9
301749,4886,-7580,-4071,-14,-11,-11,9
301754,5000,-7588,-4267,-14,-11,-10,9
301759,5083,-7600,-4466,-13,-10,-9,9
301764,5136,-7612,-4666,-12,-10,-8,9
301769,5158,-7623,-4858,-10,-10,-7,9
301774,5153,-7634,-5032,-9,-9,-6,9
301779,5136,-7644,-5179,-8,-9,-5,9
301784,5111,-7658,-5303,-7,-9,-4,9
301789,5094,-7669,-5397,-6,-9,-3,9
301794,5087,-7679,-5464,-5,-10,-2,9
301799,5095,-7687,-5511,-4,-10,-1,9
301804,5124,-7694,-5538,-3,-11,0,9
301809,5169,-7700,-5551,-2,-13,1,9
301814,5215,-7701,-5560,0,-15,1,9
301819,5259,-7702,-5570,1,-17,2,9
301824,5292,-7703,-5583,2,-20,3,9
301829,5306,-7705,-5612,3,-24,4,9
301834,5297,-7706,-5641,4,-28,5,9
301839,5263,-7707,-5667,5,-32,5,9
301844,5215,-7704,-5693,7,-36,6,9
301849,5149,-7704,-5710,8,-39,7,9
301854,5070,-7701,-5707,9,-43,7,9
301859,4977,-7699,-5682,10,-45,8,9
301864,4875,-7695,-5637,11,-46,9,9
301869,4775,-7691,-5573,12,-47,9,9
301874,4673,-7685,-5503,13,-47,10,9
301879,4586,-7675,-5437,14,-46,11,9
301884,4509,-7667,-5372,15,-46,11,9
301889,4438,-7660,-5307,16,-46,12,9
301894,4363,-7650,-5243,17,-47,12,9
301899,4288,-7641,-5179,18,-48,13,9
301904,4207,-7632,-5113,19,-49,13,9
301909,4117,-7623,-5034,20,-49,14,9
301914,4026,-7614,-4949,21,-49,14,9
301919,3938,-7603,-4863,21,-49,14,9
301924,3858,-7594,-4774,22,-48,15,9
301929,3782,-7583,-4686,23,-47,15,9
301934,3719,-7574,-4594,24,-46,16,9
301939,3660,-7566,-4500,24,-45,16,9
301944,3604,-7556,-4398,25,-43,16,9
301949,3545,-7545,-4290,26,-41,17,9
301954,3483,-7535,-4173,26,-39,17,9
301959,3416,-7524,-4052,27,-36,17,9
301964,3346,-7517,-3928,28,-33,18,9
301969,3272,-7508,-3801,28,-30,18,9
301974,3198,-7500,-3670,28,-28,19,9
301979,3130,-7492,-3541,29,-26,19,9
301984,3065,-7488,-3415,29,-25,19,9
301989,3002,-7480,-3288,30,-24,20,9
301994,2944,-7471,-3154,30,-24,20,9
301999,2887,-7463,-3022,30,-24,20,9
302004,2819,-7457,-2879,30,-25,20,9
302009,2748,-7450,-2733,31,-25,20,9
302014,2672,-7445,-2588,31,-25,21,9
302019,2595,-7441,-2438,31,-25,21,9
302024,2520,-7435,-2282,31,-24,21,9
302029,2449,-7433,-2125,31,-24,21,9
302034,2377,-7432,-1967,31,-24,21,9
302039,2303,-7432,-1816,31,-23,22,9
302044,2231,-7433,-1665,31,-24,22,9
302049,2155,-7436,-1519,31,-24,22,9
302054,2077,-7443,-1373,31,-25,22,9
302059,1994,-7446,-1223,31,-27,22,9
302063,1904,-7452,-1076,31,-29,22,9
302068,1792,-7462,-921,30,-30,22,9
302074,1663,-7471,-755,30,-31,21,9
302078,1518,-7485,-580,30,-31,21,9
302083,1363,-7499,-392,29,-30,21,9
302089,1207,-7513,-201,29,-29,21,9
302093,1055,-7531,-6,28,-27,21,9
302098,915,-7554,181,28,-25,20,9
302103,783,-7572,353,27,-22,20,9
302108,658,-7596,504,26,-20,20,9
302113,545,-7621,641,25,-17,19,9
302118,440,-7642,760,24,-16,18,9
302123,343,-7665,868,23,-15,17,9
302128,276,-7684,936,21,-17,16,9
302133,224,-7690,1065,21,-20,15,9
302138,295,-7687,1095,21,-25,16,9
302143,408,-7687,987,23,-29,18,9
302148,77,-7760,1356,24,-38,19,9
302153,-675,-7820,2113,18,-61,12,9
302158,-1039,-7823,2216,16,-78,9,9
302163,-1388,-7831,2454,16,-75,8,9
302168,-1899,-7898,2839,16,-66,8,9
302173,-2282,-7930,3000,16,-53,9,9
302178,-2608,-7953,3141,15,-35,9,9
302183,-2904,-8006,3286,14,-18,9,9
302188,-3030,-8045,3369,12,-4,8,9
302193,-3110,-8075,3448,11,6,7,9
302198,-3160,-8105,3513,8,8,5,9
302203,-3163,-8128,3636,7,8,4,9
302208,-3177,-8145,3784,5,8,2,9
302213,-3220,-8160,3895,4,6,1,9
302218,-3257,-8172,4008,3,4,0,9
302223,-3274,-8186,4079,2,6,-1,9
302228,-3288,-8197,4078,1,8,-2,9
302233,-3302,-8211,4085,-1,9,-3,9
302238,-3312,-8225,4075,-2,9,-4,9
302243,-3311,-8231,4028,-4,9,-5,9
302248,-3296,-8237,3998,-5,8,-6,9
302253,-3265,-8242,3957,-6,8,-7,9
302258,-3215,-8239,3905,-8,7,-8,9
302263,-3138,-8232,3872,-9,7,-9,9
302268,-3036,-8226,3838,-10,8,-10,9
302273,-2920,-8216,3777,-11,9,-11,9
302278,-2783,-8207,3716,-12,10,-11,9
302283,-2629,-8200,3654,-13,13,-12,9
302288,-2489,-8188,3571,-14,15,-13,9
302293,-2360,-8170,3495,-16,16,-14,9
302298,-2229,-8155,3425,-17,19,-14,9
302303,-2109,-8133,3319,-18,22,-15,9
302308,-1988,-8113,3212,-19,25,-16,9
302313,-1864,-8093,3111,-19,29,-16,9
302318,-1738,-8072,2988,-20,33,-17,9
302323,-1614,-8050,2863,-21,36,-17,9
302328,-1479,-8031,2742,-22,38,-18,9
302333,-1344,-8009,2606,-23,40,-18,9
302338,-1206,-7987,2475,-24,42,-18,9
302343,-1071,-7963,2362,-24,43,-19,9
302348,-951,-7936,2238,-25,44,-19,9
302353,-831,-7908,2118,-25,45,-20,9
302358,-709,-7886,1998,-26,46,-20,9
302363,-600,-7863,1876,-27,48,-21,9
302368,-495,-7838,1764,-27,49,-21,9
302373,-391,-7813,1665,-28,50,-21,9
302378,-304,-7790,1566,-28,51,-22,9
302383,-222,-7766,1464,-29,52,-22,9
302388,-141,-7745,1367,-29,54,-23,9
302393,-68,-7723,1278,-29,56,-23,9
302398,5,-7698,1186,-30,59,-23,9
302403,81,-7671,1107,-30,61,-23,9
302408,160,-7647,1036,-31,63,-24,9
302413,246,-7625,961,-31,63,-24,9
302418,338,-7599,890,-31,63,-25,9
302423,436,-7573,821,-31,62,-25,9
302428,547,-7547,737,-32,61,-25,9
302433,679,-7525,638,-32,59,-25,9
302438,819,-7499,534,-32,57,-25,9
302443,939,-7477,435,-31,54,-25,9
302448,1048,-7459,332,-31,49,-25,9
302453,1156,-7438,211,-31,43,-25,9
302458,1250,-7416,88,-31,38,-24,9
302463,1336,-7404,13,-31,33,-24,9
302468,1439,-7390,-72,-30,29,-25,9
302473,1574,-7368,-154,-30,26,-25,9
302478,1711,-7353,-222,-30,24,-25,9
302483,1877,-7344,-364,-30,21,-25,9
302488,2080,-7335,-551,-31,17,-26,9
302493,2278,-7325,-756,-31,13,-25,9
302498,2443,-7319,-945,-32,10,-25,9
302503,2580,-7309,-1096,-32,8,-25,9
302508,2686,-7299,-1216,-32,9,-25,9
302513,2763,-7287,-1312,-32,11,-24,9
302518,2822,-7280,-1405,-32,14,-24,9
302523,2865,-7277,-1502,-31,17,-24,9
302528,3032,-7260,-1715,-31,21,-23,9
302533,3379,-7248,-2098,-29,29,-20,9
302538,3641,-7278,-2351,-28,36,-19,9
302543,3917,-7290,-2601,-28,30,-18,9
302548,4400,-7284,-3064,-28,22,-19,9
302553,4696,-7314,-3318,-28,18,-19,9
302558,4963,-7318,-3566,-28,11,-19,9
302563,5094,-7320,-3767,-27,11,-18,9
302568,5076,-7333,-3883,-25,14,-16,9
302573,5092,-7338,-4090,-24,19,-15,9
302578,5096,-7362,-4283,-22,26,-13,9
302583,5170,-7390,-4520,-21,27,-12,9
302588,5311,-7410,-4813,-20,23,-11,9
302593,5472,-7428,-5071,-19,15,-10,9
302598,5667,-7443,-5344,-18,3,-9,9
302603,5841,-7460,-5578,-16,-9,-8,9
302608,6008,-7474,-5786,-15,-20,-7,9
302612,6156,-7489,-6011,-13,-28,-6,9
302618,6271,-7502,-6250,-11,-34,-5,9
302623,6364,-7513,-6517,-9,-38,-4,9
302628,6423,-7530,-6800,-7,-40,-2,9
302632,6431,-7552,-7075,-6,-42,-1,9
302638,6388,-7565,-7312,-4,-43,0,9
302642,6288,-7568,-7508,-3,-41,1,9
302648,6153,-7573,-7654,-1,-38,2,9
302652,5999,-7581,-7734,0,-33,3,9
302657,5845,-7587,-7761,2,-26,4,9
302662,5710,-7591,-7752,4,-21,6,9
302667,5607,-7597,-7705,5,-17,7,9
302672,5533,-7603,-7628,7,-16,8,9
302677,5469,-7603,-7525,8,-18,8,9
302682,5407,-7600,-7388,10,-21,9,9
302687,5336,-7596,-7234,11,-26,10,9
302692,5240,-7593,-7072,13,-31,10,9
302697,5118,-7590,-6917,14,-36,11,9
302702,4973,-7586,-6769,15,-40,11,9
302707,4808,-7583,-6622,17,-43,12,9
302712,4624,-7582,-6485,18,-43,12,9
302717,4441,-7581,-6342,19,-42,13,9
302722,4266,-7576,-6197,20,-40,13,9
302727,4101,-7567,-6041,20,-38,13,9
302732,3939,-7560,-5866,21,-35,14,9
302737,3790,-7552,-5671,22,-33,14,9
302742,3652,-7543,-5472,23,-30,15,9
302747,3522,-7533,-5274,24,-26,15,9
302752,3399,-7524,-5079,24,-23,15,9
302757,3280,-7514,-4896,25,-20,15,9
302762,3167,-7507,-4723,26,-18,16,9
302767,3056,-7501,-4549,26,-16,16,9
302772,2947,-7497,-4379,27,-15,16,9
302777,2837,-7492,-4215,27,-13,16,9
302782,2731,-7487,-4049,27,-11,16,9
302787,2635,-7483,-3892,28,-8,17,9
302792,2557,-7480,-3736,28,-5,17,9
302797,2494,-7474,-3585,28,-2,17,9
302802,2447,-7469,-3443,29,-1,17,9
302807,2412,-7468,-3297,29,0,18,9
302812,2385,-7469,-3154,29,0,18,9
302817,2357,-7466,-3013,29,1,18,9
302822,2327,-7463,-2879,29,1,18,9
302827,2300,-7462,-2740,30,1,18,9
302832,2266,-7460,-2608,30,2,19,9
302837,2227,-7459,-2486,30,2,19,9
302842,2189,-7460,-2366,30,2,19,9
302847,2147,-7462,-2257,30,1,19,9
302852,2104,-7466,-2151,30,0,19,9
302857,2064,-7470,-2044,30,-2,20,9
302862,2029,-7472,-1935,30,-4,20,9
302867,2000,-7472,-1829,30,-7,20,9
302872,1970,-7472,-1719,30,-9,20,9
302877,1937,-7478,-1604,30,-10,20,9
302882,1895,-7482,-1488,30,-10,20,9
302887,1845,-7488,-1368,30,-10,20,9
302892,1780,-7493,-1234,29,-8,20,9
302897,1695,-7502,-1089,29,-4,20,9
302902,1608,-7509,-937,29,0,20,9
302907,1522,-7517,-783,28,4,20,9
302912,1438,-7531,-636,28,7,20,9
302917,1356,-7548,-485,28,9,20,9
302922,1277,-7560,-340,27,9,20,9
302927,1204,-7574,-205,27,9,20,9
302932,1133,-7588,-73,26,7,20,9
302937,1064,-7601,45,26,5,20,9
302942,986,-7613,149,25,2,20,9
302947,900,-7623,247,25,-1,20,9
302952,804,-7640,333,25,-3,19,9
302957,697,-7660,408,24,-5,19,9
302962,584,-7679,475,24,-7,19,9
302967,475,-7696,538,23,-9,19,9
302972,370,-7710,597,23,-10,18,9
302977,270,-7729,653,22,-11,18,9
302982,185,-7747,717,21,-11,17,9
302987,109,-7766,775,21,-11,16,9
302992,45,-7787,821,20,-12,15,9
302997,-16,-7809,870,19,-11,15,9
303002,-66,-7830,907,18,-11,14,9
303007,-82,-7843,912,17,-11,13,9
303012,-188,-7857,1016,17,-10,13,9
303017,-285,-7868,1105,17,-11,13,9
303022,-334,-7871,1155,17,-10,14,9
303027,-347,-7883,1187,18,-8,15,9
303032,-351,-7903,1218,17,-6,16,9
303037,-358,-7922,1211,17,-7,15,9
303042,-345,-7942,1181,16,-9,14,9
303047,-295,-7959,1134,15,-9,13,9
303052,-411,-7990,1243,14,-8,13,9
303057,-753,-8013,1490,12,-11,10,9
303062,-887,-8008,1501,11,-14,9,9
303067,-1034,-8010,1610,11,-5,10,9
303072,-1206,-8034,1743,11,4,10,9
303077,-1249,-8045,1756,11,9,11,9
303082,-1296,-8055,1804,11,14,10,9
303087,-1303,-8083,1825,10,14,9,9
303092,-1276,-8103,1822,9,12,8,9
303097,-1318,-8117,1832,8,8,7,9
303102,-1368,-8132,1847,7,2,6,9
303107,-1431,-8138,1879,6,-1,6,9
303112,-1504,-8144,1893,6,-2,5,9
303117,-1546,-8151,1884,5,-3,5,9
303122,-1550,-8159,1865,5,-2,5,9
303127,-1505,-8166,1812,5,-2,4,9
303132,-1447,-8173,1744,4,-2,4,9
303137,-1378,-8177,1684,3,-3,3,9
303142,-1314,-8183,1611,3,-3,2,9
303147,-1263,-8185,1542,2,-3,2,9
303152,-1224,-8186,1481,2,-3,1,9
303157,-1196,-8186,1419,1,-2,1,9
303162,-1173,-8188,1366,1,-1,1,9
303167,-1138,-8191,1317,1,-1,0,9
303172,-1099,-8193,1258,0,0,0,9
303177,-1046,-8193,1196,0,-1,0,9
303181,-985,-8196,1147,0,-1,-1,9
303187,-929,-8197,1090,-1,-1,-1,9
303191,-874,-8197,1034,-1,-1,-1,9
303196,-815,-8197,989,-1,-1,-1,9
303201,-749,-8199,934,-2,0,-2,9
303207,-687,-8197,876,-2,0,-2,9
303212,-620,-8195,818,-2,0,-2,9
303216,-547,-8193,755,-2,0,-2,9
303222,-471,-8190,686,-3,1,-2,9
303226,-397,-8187,615,-3,0,-3,9
303232,-331,-8184,543,-3,0,-3,9
303236,-270,-8183,469,-3,0,-3,9
303241,-221,-8185,396,-3,0,-3,9
303246,-175,-8184,329,-3,0,-3,9
303251,-126,-8179,250,-3,0,-3,9
303256,-80,-8178,172,-3,0,-3,9
303261,-30,-8179,94,-3,-1,-3,9
303266,18,-8177,9,-3,-1,-4,9
303271,69,-8176,-70,-3,-1,-4,9
303276,121,-8176,-149,-3,-1,-4,9
303281,169,-8174,-229,-3,-1,-4,9
303286,216,-8175,-302,-3,-1,-4,9
303291,266,-8174,-371,-3,-1,-4,9
303296,308,-8177,-432,-3,-1,-4,9
303301,352,-8178,-486,-3,-1,-4,9
303306,397,-8179,-534,-3,-1,-4,9
303311,439,-8180,-572,-3,-1,-3,9
303316,477,-8177,-601,-3,-1,-3,9
303321,514,-8175,-619,-3,0,-3,9
303326,551,-8175,-633,-2,0,-3,0
303331,588,-8172,-641,-2,0,-3,0
303336,624,-8169,-646,-2,0,-3,0
303341,660,-8167,-646,-2,0,-3,0
303346,695,-8166,-646,-2,0,-3,0
303351,730,-8166,-642,-2,0,-3,0
303356,766,-8164,-641,-2,0,-3,0
303361,800,-8162,-645,-2,0,-2,0
303366,833,-8162,-647,-2,0,-2,0
303371,863,-8160,-650,-2,1,-2,0
303376,889,-8157,-654,-2,1,-2,0
303381,914,-8156,-652,-1,0,-2,0
303386,936,-8158,-652,-1,0,-2,0
303391,953,-8159,-655,-1,0,-2,0
303396,966,-8161,-654,-1,0,-2,0
303401,969,-8162,-648,-1,0,-2,0
303406,968,-8164,-636,-1,1,-1,0
303411,960,-8164,-617,-1,1,-1,0
303416,946,-8167,-594,-1,1,-1,0
303421,934,-8167,-572,-1,1,-1,0
303426,919,-8169,-552,-1,0,-1,0
303431,900,-8168,-546,-1,0,-1,0
303436,881,-8170,-544,-1,0,-1,0
303441,860,-8169,-538,-1,0,-1,0
303446,837,-8167,-538,-1,0,-1,0
303451,811,-8169,-531,-1,0,-1,0
303456,786,-8172,-524,-1,0,-1,0
303461,764,-8174,-518,-1,0,-1,0
303466,748,-8173,-513,-1,-1,-1,0
303471,736,-8172,-505,-1,-1,0,0
303476,726,-8171,-498,-1,-1,0,0
303481,719,-8171,-491,-1,-1,0,0
303486,711,-8172,-487,-1,-1,0,0
303491,705,-8174,-487,-1,-1,0,0
303496,699,-8173,-486,-1,-1,0,0
303501,694,-8172,-485,-1,-1,0,0
303506,688,-8170,-487,-1,-1,0,0
303511,681,-8169,-493,-1,-2,0,0
303516,673,-8171,-499,-1,-2,0,0
303521,665,-8173,-507,-1,-2,0,0
303526,655,-8173,-516,-1,-2,0,0
303531,647,-8175,-523,-1,-2,0,0
303536,638,-8175,-532,0,-3,0,0
303541,620,-8179,-549,0,-2,0,0
303546,600,-8180,-568,0,-1,0,0
303551,580,-8180,-584,0,0,0,0
303556,561,-8181,-601,0,0,0,0
303561,537,-8178,-606,0,0,0,0
303566,512,-8180,-601,0,0,0,0
303571,495,-8177,-586,0,1,0,0
303576,486,-8179,-561,0,1,0,0
303581,481,-8177,-543,0,1,0,0
303586,480,-8175,-523,0,0,0,0
303591,480,-8177,-504,0,0,0,0
303596,487,-8177,-494,0,0,0,0
303601,499,-8177,-487,0,0,0,0
303606,514,-8178,-483,0,0,0,0
303611,532,-8180,-479,0,-1,0,0
303616,551,-8179,-473,0,0,0,0
303621,570,-8179,-467,0,0,0,0
303626,586,-8177,-467,0,0,0,0
303631,603,-8174,-460,0,0,0,0
303636,618,-8173,-455,0,0,0,0
303641,616,-8175,-441,0,0,0,0
303646,612,-8181,-396,0,3,0,0
303651,624,-8178,-361,-1,5,0,0
303656,632,-8177,-302,-1,4,0,0
303661,639,-8175,-258,0,1,0,0
303666,640,-8175,-233,0,-2,0,0
303671,623,-8175,-218,0,-4,0,0
303676,603,-8177,-227,0,-4,0,0
303681,581,-8179,-243,0,-3,0,0
303686,553,-8179,-260,0,-2,0,0
303691,525,-8179,-285,-1,-1,0,0
303696,491,-8178,-303,-1,-1,0,0
303701,451,-8179,-322,-1,-2,0,0
303706,414,-8178,-346,0,-3,0,0
303711,376,-8182,-367,0,-3,0,0
303716,345,-8182,-394,0,-2,0,0
303721,319,-8186,-416,0,-2,0,0
303726,295,-8187,-425,-1,-1,-1,0
303731,281,-8185,-426,-1,-1,-1,0
303736,273,-8184,-405,-1,0,-1,0
303741,272,-8183,-373,-1,0,-1,0
303746,279,-8183,-341,-1,0,-1,0
303751,293,-8183,-316,-1,0,-1,0
303756,318,-8183,-301,-1,0,-1,0
303761,347,-8182,-293,0,0,-1,0
303766,375,-8180,-285,-1,0,-1,0
303770,404,-8178,-283,-1,0,-1,0
303776,427,-8175,-280,-1,0,-1,0
303781,460,-8179,-272,-1,1,-1,0
303785,510,-8181,-274,-1,1,-1,0
303791,546,-8182,-287,-1,2,-1,0
303795,577,-8182,-297,-1,4,0,0
303800,609,-8179,-303,-1,7,-1,0
303805,629,-8177,-304,-1,9,-1,0
303810,635,-8176,-305,-1,10,-1,0
303815,626,-8175,-308,-1,11,-1,0
303820,602,-8174,-317,-1,13,-1,0
303825,573,-8174,-331,-1,15,0,0
303830,546,-8174,-351,-1,17,0,0
303835,523,-8170,-373,-1,19,0,0
303840,510,-8172,-405,-1,20,0,0
303845,504,-8171,-433,-1,21,-1,0
303850,506,-8174,-454,-1,20,0,0
303855,511,-8179,-468,-1,18,0,0
303860,524,-8179,-469,-1,15,0,0
303865,541,-8178,-457,-1,12,0,0
303870,558,-8178,-433,-1,9,-1,0
303875,573,-8177,-408,-1,8,-1,0
303880,589,-8178,-380,-1,7,-1,0
303885,601,-8179,-356,-1,7,-1,0
303890,610,-8178,-337,-1,8,-1,0
303895,612,-8176,-328,-1,9,0,0
303900,608,-8177,-337,-1,11,0,0
303905,600,-8179,-356,-1,14,0,0
303910,587,-8179,-380,-1,16,0,0
303915,568,-8178,-408,-1,19,0,0
303920,547,-8178,-433,-1,21,0,0
303925,529,-8176,-454,-1,24,0,0
303930,519,-8174,-471,-1,26,0,0
303935,521,-8177,-484,-1,28,0,0
303940,528,-8180,-481,-1,28,0,0
303945,542,-8182,-476,-1,28,0,0
303950,559,-8182,-468,-1,27,0,0
303955,574,-8179,-458,-1,26,0,0
303960,580,-8179,-441,-1,24,0,0
303965,582,-8180,-428,-1,23,0,0
303970,581,-8181,-419,-1,21,0,0
303975,573,-8182,-411,-1,20,0,0
303980,558,-8182,-410,-1,19,0,0
303985,538,-8181,-405,-1,20,0,0
303990,516,-8184,-401,-1,21,0,0
303995,494,-8182,-392,-1,23,0,0
304000,474,-8183,-385,-1,25,0,0
304005,458,-8180,-382,-1,27,0,0
304010,448,-8179,-375,-1,28,0,0
304015,445,-8180,-373,-1,29,0,0
304020,447,-8180,-374,-1,29,0,0
304025,454,-8180,-378,-1,30,0,0
304030,465,-8181,-375,-1,30,0,0
304035,480,-8182,-376,-1,30,0,0
304040,494,-8179,-379,-1,29,0,0
304045,506,-8180,-383,-1,29,0,0
304050,512,-8181,-389,-1,28,0,0
304055,515,-8181,-397,-1,27,0,0
304060,514,-8186,-400,-1,27,0,0
304065,516,-8188,-409,-1,27,0,0
304070,516,-8186,-414,-1,27,0,0
304075,517,-8186,-416,-1,27,0,0
304080,519,-8183,-414,-1,27,0,0
304085,513,-8180,-408,-1,29,0,0
304090,506,-8181,-403,-1,31,0,0
304095,494,-8180,-384,-1,35,0,0
304100,480,-8180,-364,-1,41,0,0
304105,459,-8179,-342,-1,47,0,0
304110,440,-8180,-316,-1,55,0,0
304115,423,-8179,-294,-2,63,0,0
304120,415,-8177,-279,-2,70,0,0
304125,412,-8179,-276,-2,76,0,0
304130,419,-8179,-277,-2,81,0,0
304135,435,-8180,-285,-2,85,0,0
304140,458,-8181,-290,-2,86,0,0
304145,482,-8181,-302,-2,86,0,0
304150,514,-8182,-318,-2,84,0,0
304155,547,-8183,-333,-2,80,0,0
304160,584,-8182,-347,-2,75,0,0
304165,626,-8181,-361,-2,68,0,0
304170,665,-8176,-370,-1,60,0,0
304175,703,-8177,-392,-1,51,0,0
304180,737,-8174,-417,-1,41,0,0
304185,760,-8175,-434,-1,30,0,0
304190,762,-8175,-445,-1,21,0,0
304195,754,-8177,-456,-1,12,-1,0
304200,733,-8179,-455,-1,4,-1,0
304205,694,-8175,-449,-1,-1,-1,0
304210,646,-8174,-439,-1,-3,-1,0
304215,607,-8174,-423,-1,-1,0,0
304220,594,-8174,-407,-1,1,0,0
304225,596,-8174,-391,-1,1,0,0
304230,607,-8173,-378,-1,0,0,0
304235,614,-8174,-373,-1,-2,-1,0
304240,615,-8174,-380,-1,-2,-1,0
304245,614,-8174,-394,0,-2,-1,0
304250,609,-8174,-408,-1,-1,-1,0
304255,604,-8175,-426,-1,-1,-1,0
304260,600,-8174,-446,-1,-1,-1,0
304265,596,-8173,-465,-1,-1,-1,0
304270,593,-8172,-473,-1,-2,-1,0
304275,590,-8172,-473,-1,-2,-1,0
304280,588,-8174,-466,-1,-2,-1,0
304285,582,-8177,-451,-1,-3,-1,0
304290,571,-8177,-437,0,-3,-1,0
304295,564,-8180,-421,0,-4,-1,0
304300,561,-8180,-409,0,-4,-1,0
304305,560,-8181,-398,0,-4,-1,0
304310,568,-8181,-383,0,-3,0,0
304315,577,-8181,-366,0,-3,0,0
304320,587,-8181,-359,0,-3,0,0
304325,597,-8177,-357,0,-3,-1,0
304330,609,-8177,-358,0,-3,-1,0
304335,613,-8176,-363,0,-2,0,0
304340,616,-8177,-369,0,-3,-1,0
304345,618,-8174,-381,0,-3,0,0
304350,621,-8173,-393,0,-4,0,0
304355,624,-8174,-414,0,-5,0,0
304360,628,-8174,-431,0,-7,0,0
304365,632,-8176,-443,0,-8,0,0
304370,634,-8176,-451,0,-8,0,0
304374,634,-8174,-454,0,-8,0,0
304379,633,-8171,-454,0,-9,0,0
304384,631,-8168,-451,0,-9,0,0
304389,626,-8170,-449,0,-9,0,0
304394,614,-8171,-465,0,-9,0,0
304399,594,-8170,-489,0,-8,0,0
304404,569,-8172,-509,0,-6,0,0
304409,548,-8174,-537,0,-3,0,0
304414,534,-8173,-565,0,-1,0,0
304419,525,-8172,-590,0,-1,0,0
304424,521,-8173,-625,0,-2,0,0
304429,517,-8173,-663,1,-3,0,0
304434,507,-8174,-698,1,-3,0,0
304439,495,-8174,-732,1,-2,0,0
304444,485,-8174,-754,1,0,0,0
304449,482,-8175,-762,1,2,-1,0
304454,479,-8178,-755,1,4,-1,0
304459,466,-8180,-726,1,4,0,0
304464,455,-8182,-678,1,4,0,0
304469,453,-8182,-598,1,5,0,0
304474,461,-8180,-506,1,6,0,0
304479,482,-8181,-411,1,8,0,0
304484,508,-8181,-305,1,9,0,0
304489,532,-8181,-202,0,9,0,0
304494,552,-8181,-100,0,8,0,0
304499,567,-8180,-4,0,6,0,0
304504,577,-8184,86,0,4,0,0
304509,588,-8184,165,0,2,0,0
304514,597,-8184,231,-1,0,0,0
304519,602,-8180,275,-1,-1,0,0
304524,602,-8177,291,-1,-2,0,0
304529,602,-8178,280,-1,-2,0,0
304534,601,-8178,246,-1,-1,0,0
304539,597,-8177,189,-1,-1,0,0
304544,595,-8178,114,-1,-1,0,0
304549,594,-8178,29,-1,-1,0,0
304554,576,-8179,-62,-1,0,0,0
304559,550,-8179,-153,-1,3,0,0
304564,522,-8177,-244,-1,6,0,0
304569,482,-8173,-329,-1,10,0,0
304574,450,-8171,-413,-1,13,0,0
304579,430,-8169,-490,-1,15,0,0
304584,417,-8171,-555,-1,18,0,0
304589,424,-8174,-601,-1,20,0,0
304594,457,-8177,-634,-1,22,0,0
304599,502,-8176,-652,-1,22,0,0
304604,551,-8173,-639,-1,22,0,0
304609,599,-8171,-597,-1,21,0,0
304614,634,-8170,-538,-1,21,0,0
304619,652,-8173,-467,-1,21,0,0
304624,658,-8173,-398,-1,23,0,0
304629,648,-8173,-346,-1,25,0,0
304634,625,-8175,-308,-1,27,0,0
304639,605,-8175,-282,-1,30,0,0
304644,581,-8178,-283,-1,33,1,0
304649,560,-8181,-300,-1,35,1,0
304654,542,-8182,-328,-1,38,1,0
304659,528,-8184,-362,-1,40,1,0
304664,523,-8185,-391,-1,41,1,0
304669,528,-8185,-416,-1,41,1,0
304674,527,-8184,-430,-1,39,1,0
304679,530,-8183,-435,-1,37,1,0
304684,538,-8182,-434,-1,35,1,0
304689,550,-8181,-416,-1,31,1,0
304694,558,-8180,-397,-1,26,0,0
304699,567,-8179,-378,-1,21,0,0
304704,575,-8177,-353,-1,17,0,0
304709,580,-8177,-335,-1,13,0,0
304714,582,-8178,-324,0,8,0,0
304719,582,-8177,-319,0,5,0,0
304724,569,-8177,-323,0,1,0,0
304729,543,-8176,-327,0,-1,0,0
304734,508,-8178,-332,0,-1,0,0
304739,478,-8179,-339,0,0,0,0
304744,452,-8180,-338,-1,1,0,0
304749,429,-8178,-331,-1,1,0,0
304754,411,-8178,-321,-1,1,0,0
304759,395,-8178,-311,0,0,0,0
304764,395,-8175,-302,0,0,0,0
304769,419,-8178,-322,0,-3,0,0
304774,411,-8181,-320,0,-4,0,0
304779,411,-8184,-321,0,-2,0,0
304784,427,-8182,-327,-1,0,0,0
304789,440,-8182,-313,-1,1,-1,0
304794,448,-8178,-300,-1,0,-1,0
304799,433,-8179,-283,-1,-2,-1,0
304804,399,-8183,-273,0,-2,-1,0
304809,380,-8185,-269,0,-1,-1,0
304814,368,-8183,-271,0,0,0,0
304819,369,-8182,-281,-1,-1,-1,0
304824,378,-8183,-291,-1,-1,-1,0
304829,385,-8186,-303,-1,-2,-1,0
304834,390,-8187,-325,-1,-2,-1,0
304839,395,-8187,-342,-1,-2,-1,0
304844,399,-8187,-355,-1,-2,-1,0
304849,408,-8181,-365,-1,-2,-1,0
304854,415,-8182,-370,-1,-2,-1,0
304859,424,-8180,-376,-1,-2,-1,0
304864,434,-8181,-379,0,-2,-1,0
304869,443,-8174,-373,0,-2,-1,0
304874,487,-8175,-331,-1,-3,-1,0
304879,517,-8177,-317,-1,-4,-1,0
304884,512,-8168,-303,-1,-3,0,0
304889,529,-8172,-250,-1,0,-1,0
304894,564,-8165,-230,-1,3,-1,0
304899,582,-8165,-208,-1,2,-1,0
304904,583,-8164,-211,-1,0,-1,0
304909,566,-8166,-240,0,-1,-1,0
304914,550,-8169,-276,0,0,-1,0
304919,543,-8171,-337,0,1,-1,0
304924,546,-8172,-389,0,1,0,0
304929,543,-8173,-437,-1,1,0,0
304934,537,-8173,-478,-1,2,-1,0
304939,531,-8176,-489,-1,2,-1,0
304944,521,-8176,-488,-1,3,-1,0
304948,512,-8176,-473,-1,3,-1,0
304953,502,-8176,-443,-1,2,-1,0
304958,492,-8175,-408,0,2,-1,0
304963,484,-8173,-370,0,1,-1,0
304968,478,-8172,-335,0,1,-1,0
304973,482,-8170,-305,0,2,-1,0
304978,488,-8169,-287,0,2,-1,0
304983,495,-8170,-277,0,3,-1,0
304988,499,-8171,-276,0,4,-1,0
304993,499,-8171,-287,-1,5,-1,0
304998,498,-8173,-308,-1,6,-1,0
305003,507,-8173,-331,0,9,-1,0
305008,528,-8175,-357,-1,10,0,0
305013,573,-8173,-377,0,8,0,0
305018,632,-8170,-387,-1,5,0,0
305023,682,-8171,-390,-1,1,0,0
305028,712,-8170,-386,-1,-1,0,0
305033,738,-8170,-371,0,-1,0,0
305038,762,-8167,-361,0,0,0,0
305043,778,-8167,-347,0,0,0,0
305048,766,-8167,-344,0,-1,0,0
305053,723,-8170,-342,0,-1,0,0
305058,668,-8172,-339,0,-1,0,0
305063,611,-8173,-330,0,0,0,0
305068,552,-8176,-324,0,0,0,0
305073,500,-8178,-317,0,0,0,0
305078,455,-8178,-308,0,0,0,0
305083,423,-8178,-294,0,0,0,0
305088,400,-8180,-287,-1,0,0,0
305093,389,-8181,-278,-1,0,0,0
305098,389,-8179,-269,-1,0,0,0
305103,399,-8179,-261,-1,0,0,0
305108,416,-8178,-260,-1,0,0,0
305113,438,-8179,-272,0,0,0,0
305118,466,-8176,-290,0,0,0,0
305123,496,-8178,-312,0,0,0,0
305128,525,-8181,-338,0,-1,0,0
305133,555,-8181,-363,0,-1,0,0
305138,586,-8179,-384,-1,-1,0,0
305143,615,-8178,-398,-1,0,0,0
305148,637,-8177,-400,0,-1,0,0
305153,650,-8177,-392,0,-1,0,0
305158,648,-8176,-376,0,0,0,0
305163,635,-8178,-357,-1,0,0,0
305168,616,-8180,-336,-1,1,0,0
305173,592,-8184,-319,0,1,0,0
305178,565,-8181,-303,0,1,0,0
305183,536,-8181,-296,0,1,0,0
305188,509,-8180,-295,0,1,0,0
305193,487,-8180,-305,0,1,0,0
305198,465,-8180,-321,0,1,0,0
305203,449,-8181,-337,0,0,0,0
305208,437,-8183,-349,0,0,0,0
305213,429,-8182,-355,0,0,0,0
305218,421,-8183,-357,0,0,0,0
305223,416,-8184,-354,0,0,0,0
305228,417,-8184,-347,0,0,0,0
305233,416,-8183,-340,0,0,0,0
305238,417,-8184,-328,0,-1,0,0
305243,418,-8183,-318,0,-1,0,0
305248,424,-8180,-315,0,-1,0,0
305253,428,-8176,-319,0,-1,0,0
305258,436,-8176,-327,0,-1,0,0
305263,449,-8177,-339,0,-1,0,0
305268,458,-8177,-345,0,0,-1,0
305273,471,-8180,-352,0,0,-1,0
305278,481,-8180,-353,0,0,-1,0
305283,487,-8177,-349,0,0,-1,0
305288,491,-8176,-338,0,1,0,0
305293,496,-8176,-328,0,1,0,0
305298,502,-8174,-322,0,1,0,0
305303,507,-8173,-319,0,1,0,0
305308,507,-8175,-323,0,2,0,0
305313,500,-8173,-330,0,2,0,0
305318,488,-8177,-338,0,3,0,0
305323,468,-8177,-344,0,6,0,0
305328,441,-8178,-345,-1,10,0,0
305333,413,-8178,-339,-1,17,0,0
305338,396,-8179,-333,-1,24,0,0
305343,392,-8183,-332,-1,31,0,0
305348,399,-8184,-333,-1,37,0,0
305353,425,-8184,-335,-1,40,0,0
305358,457,-8185,-330,-1,42,0,0
305363,490,-8186,-335,-1,41,0,0
305368,521,-8183,-340,-1,38,0,0
305373,548,-8186,-349,-1,34,0,0
305378,569,-8187,-357,0,28,0,0
305383,584,-8187,-365,0,22,0,0
305388,589,-8186,-370,0,16,0,0
305393,585,-8187,-373,0,10,0,0
305398,568,-8186,-373,0,6,0,0
305403,545,-8184,-370,0,4,0,0
305408,520,-8182,-362,0,2,0,0
305413,494,-8179,-348,0,2,-1,0
305418,467,-8181,-333,0,1,-1,0
305423,442,-8183,-316,0,1,-1,0
305428,421,-8183,-310,0,0,-1,0
305433,410,-8182,-304,0,0,-1,0
305438,409,-8181,-299,0,0,-1,0
305443,413,-8180,-299,0,-1,-1,0
305448,419,-8178,-302,0,-1,-1,0
305453,425,-8178,-301,0,-2,-1,0
305458,432,-8177,-299,0,-2,-1,0
305463,441,-8177,-293,0,-1,-1,0
305468,454,-8179,-288,0,-1,-1,0
305473,467,-8178,-273,0,-1,-1,0
305478,482,-8177,-261,0,-1,-1,0
305483,497,-8179,-249,0,-1,-1,0
305488,505,-8181,-239,0,-1,-1,0
305492,509,-8181,-238,0,-1,-1,0
305498,510,-8182,-238,0,-1,-1,0
305502,509,-8182,-245,0,-1,-1,0
305507,503,-8178,-257,0,-1,-1,0
305513,497,-8176,-266,0,-1,-1,0
305518,490,-8174,-271,0,-1,-1,0
305522,491,-8172,-272,0,-1,-1,0
305527,491,-8175,-267,0,-1,-1,0
305533,491,-8177,-261,0,-1,-1,0
305538,491,-8177,-254,0,-1,-1,0
305542,492,-8176,-250,0,-1,-1,0
305547,493,-8173,-246,0,-1,-1,0
305552,498,-8175,-243,0,-1,-1,0
305557,507,-8177,-242,0,-1,-1,0
305562,519,-8176,-241,0,-1,-1,0
305567,525,-8178,-245,0,-1,-1,0
305572,533,-8178,-251,0,-1,-1,0
305577,539,-8180,-256,-1,-1,-1,0
305582,538,-8181,-261,-1,-1,-1,0
305587,535,-8180,-267,-1,-1,-1,0
305592,529,-8180,-274,0,-1,-1,0
305597,525,-8180,-279,0,-1,-1,0
305602,523,-8180,-277,0,-2,-1,0
305607,523,-8180,-278,-1,-2,-1,0
305612,525,-8179,-275,-1,-1,-1,0
305617,528,-8176,-269,0,-1,-1,0
305622,532,-8174,-264,-1,-1,-1,0
305627,537,-8176,-267,0,-1,-1,0
305632,541,-8178,-269,0,-1,-1,0
305637,547,-8180,-277,0,-1,-1,0
305642,553,-8179,-288,0,-1,-1,0
305647,559,-8178,-303,0,-1,-1,0
305652,558,-8175,-312,0,-1,-1,0
305657,552,-8176,-320,0,-1,-1,0
305662,545,-8178,-323,0,-1,-1,0
305667,534,-8178,-321,0,0,-1,0
305672,520,-8180,-315,0,0,-1,0
305677,505,-8179,-307,0,0,-1,0
305682,493,-8179,-300,0,0,-1,0
305687,481,-8181,-291,0,0,-1,0
305692,476,-8180,-283,0,0,-1,0
305697,472,-8181,-279,0,0,-1,0
305702,475,-8180,-277,0,-1,-1,0
305707,478,-8178,-284,0,-1,-1,0
305712,486,-8177,-296,0,-1,-1,0
305717,497,-8175,-307,0,-1,-1,0
305722,506,-8175,-315,0,-1,-1,0
305727,513,-8177,-319,0,-1,-1,0
305732,521,-8179,-323,0,-1,-1,0
305737,526,-8178,-322,0,0,-1,0
305742,531,-8181,-321,0,0,-1,0
305747,534,-8183,-313,0,-1,-1,0
305752,537,-8183,-304,0,-1,-1,0
305757,540,-8183,-298,0,-1,-1,0
305762,539,-8182,-295,0,-1,-1,0
305767,535,-8183,-290,0,-1,-1,0
305772,528,-8184,-290,0,-1,-1,0
305777,520,-8182,-293,0,-1,-1,0
305782,511,-8181,-295,0,-1,-1,0
305787,504,-8180,-302,0,-1,-1,0
305792,499,-8178,-304,0,0,-1,0
305797,500,-8177,-304,0,-1,-1,0
305802,504,-8177,-304,0,-1,-1,0
305807,507,-8176,-302,0,-1,-1,0
305812,512,-8176,-300,0,-1,-1,0
305817,521,-8174,-296,0,-1,-1,0
305822,525,-8174,-290,0,-1,-1,0
305827,525,-8173,-286,0,-1,-1,0
305832,522,-8173,-280,0,-1,-1,0
305837,522,-8174,-275,0,-1,-1,0
305842,522,-8174,-274,0,-1,-1,0
305847,519,-8175,-271,0,-1,-1,0
305852,514,-8172,-268,0,-1,-1,0
305857,509,-8174,-271,0,-1,-1,0
305862,507,-8175,-275,0,0,-1,0
305867,507,-8173,-277,0,0,-1,0
305872,510,-8174,-279,0,0,-1,0
305877,517,-8173,-274,0,0,-1,0
305882,524,-8173,-273,0,0,-1,0
305887,532,-8174,-274,0,0,-1,0
305892,541,-8174,-277,0,0,-1,0
305897,552,-8172,-280,0,0,-1,0
305902,556,-8174,-286,0,0,-1,0
305907,556,-8175,-293,0,0,-1,0
305912,555,-8173,-305,0,0,-1,0
305917,553,-8172,-316,0,0,-1,0
305922,550,-8173,-324,0,-1,-1,0
305927,545,-8171,-330,0,-1,-1,0
305932,537,-8172,-334,0,-1,-1,0
305937,532,-8176,-332,0,0,-1,0
305942,523,-8181,-320,0,0,-1,0
305947,519,-8180,-305,0,0,-1,0
305952,518,-8180,-292,-1,0,-1,0
305957,518,-8180,-275,0,1,-1,0
305962,521,-8180,-258,0,1,-1,0
305967,526,-8180,-246,0,1,-1,0
305972,537,-8181,-239,0,1,-1,0
305977,548,-8178,-240,0,1,-1,0
305982,561,-8177,-252,0,1,0,0
305987,570,-8176,-264,0,1,0,0
305992,577,-8176,-278,0,1,0,0
305997,588,-8176,-296,0,1,0,0
306002,594,-8175,-312,0,0,0,0
306007,598,-8176,-326,0,0,0,0
306012,597,-8177,-330,0,0,0,0
306017,589,-8173,-329,0,0,0,0
306022,581,-8175,-327,0,0,0,0
306027,570,-8175,-313,0,0,0,0
306032,558,-8178,-293,0,0,0,0
306037,544,-8178,-272,0,0,0,0
306042,530,-8178,-255,0,0,0,0
306047,520,-8175,-245,0,0,0,0
306052,518,-8178,-243,0,0,0,0
306057,513,-8179,-246,0,0,0,0
306062,513,-8181,-254,0,0,0,0
306066,514,-8181,-263,0,1,0,0
306071,518,-8181,-269,0,1,0,0
306077,517,-8178,-277,0,1,0,0
306081,512,-8176,-278,-1,1,0,0
306087,509,-8175,-283,-1,1,0,0
306092,507,-8175,-285,-1,1,0,0
306097,505,-8174,-285,0,0,0,0
306101,505,-8172,-286,0,0,0,0
306106,506,-8169,-282,0,0,0,0
306111,507,-8168,-278,-1,0,0,0
306116,506,-8170,-278,0,0,0,0
306121,505,-8172,-275,0,0,0,0
306126,504,-8173,-270,0,0,0,0
306131,503,-8174,-269,0,0,0,0
306136,507,-8172,-274,0,0,0,0
306141,512,-8174,-277,0,0,0,0
306146,521,-8174,-283,0,0,0,0
306151,527,-8176,-291,0,1,0,0
306156,532,-8177,-295,0,1,0,0
306161,537,-8180,-300,0,1,0,0
306166,538,-8181,-303,-1,1,0,0
306171,534,-8178,-303,-1,2,0,0
306176,525,-8179,-302,-1,3,0,0
306181,521,-8179,-295,-1,4,0,0
306186,518,-8178,-289,-1,5,0,0
306191,519,-8180,-280,-1,5,0,0
306196,525,-8179,-270,-1,5,0,0
306201,530,-8179,-262,-1,5,0,0
306206,531,-8182,-259,-1,5,0,0
306211,537,-8179,-261,-1,5,0,0
306216,542,-8176,-266,-1,5,0,0
306221,549,-8175,-268,-1,5,0,0
306226,560,-8175,-276,-1,4,0,0
306231,569,-8177,-281,-1,3,0,0
306236,573,-8178,-279,-1,1,0,0
306241,570,-8179,-280,-1,0,0,0
306246,566,-8181,-279,-1,0,0,0
306251,558,-8182,-271,-1,0,0,0
306256,556,-8182,-263,-1,0,0,0
306261,552,-8180,-252,-1,0,0,0
306266,554,-8181,-244,-1,0,0,0
306271,555,-8177,-240,-1,0,0,0
306276,554,-8175,-236,-1,0,0,0
306281,558,-8175,-238,-1,0,0,0
306286,560,-8176,-242,-1,0,0,0
306291,560,-8175,-248,-1,0,0,0
306296,559,-8176,-256,-1,0,0,0
306301,553,-8174,-263,-1,0,0,0
306306,545,-8178,-268,-1,0,0,0
306311,542,-8180,-277,-1,-1,0,0
306316,543,-8178,-281,-1,-1,0,0
306321,547,-8177,-285,-1,-1,0,0
306326,550,-8177,-281,-1,-1,0,0
306331,559,-8177,-273,-1,-1,0,0
306336,565,-8175,-258,-1,0,0,0
306341,570,-8177,-247,-1,0,0,0
306346,574,-8177,-233,-1,0,0,0
306351,572,-8175,-226,-1,1,0,0
306356,564,-8173,-222,-1,1,0,0
306361,557,-8174,-233,-1,1,0,0
306366,549,-8173,-249,-1,1,0,0
306371,541,-8174,-266,-1,1,0,0
306376,531,-8175,-284,-1,1,0,0
306381,521,-8175,-300,-1,1,0,0
306386,513,-8177,-316,-1,1,0,0
306391,509,-8177,-327,-1,2,0,0
306396,504,-8178,-327,-1,2,0,0
306401,499,-8177,-320,-1,2,0,0
306406,495,-8176,-311,-1,2,0,0
306411,491,-8175,-292,-1,1,0,0
306416,487,-8175,-274,-1,1,0,0
306421,482,-8174,-258,-1,0,0,0
306426,479,-8175,-253,-1,0,0,0
306431,479,-8177,-256,-1,0,0,0
306436,481,-8179,-265,-1,0,0,0
306441,488,-8179,-277,-1,0,0,0
306446,493,-8180,-293,-1,0,0,0
306451,498,-8183,-303,-1,0,0,0
306456,505,-8181,-311,-1,0,0,0
306461,513,-8179,-313,-1,0,0,0
306466,519,-8179,-314,-1,0,0,0
306471,525,-8176,-310,-1,0,0,0
306476,534,-8174,-305,-1,0,0,0
306481,542,-8173,-300,-1,0,0,0
306486,550,-8170,-304,-1,0,0,0
306491,551,-8171,-305,0,0,0,0
306496,549,-8170,-299,0,0,0,0
306501,540,-8169,-300,0,0,0,0
306506,530,-8167,-307,-1,0,0,0
306511,517,-8169,-312,-1,0,0,0
306516,504,-8173,-314,-1,0,0,0
306521,494,-8175,-313,0,-1,0,0
306526,487,-8172,-306,-1,-1,0,0
306531,482,-8175,-295,-1,-1,0,0
306536,482,-8176,-281,-1,0,0,0
306541,492,-8176,-267,-1,0,0,0
306546,502,-8173,-259,-1,0,0,0
306551,511,-8173,-254,-1,0,0,0
306556,518,-8174,-245,-1,0,0,0
306561,518,-8168,-239,-1,1,0,0
306566,517,-8167,-235,-1,1,0,0
306571,510,-8170,-234,-1,2,0,0
306576,492,-8170,-237,-1,3,0,0
306581,463,-8171,-240,-1,6,0,0
306586,434,-8171,-249,-1,11,0,0
306591,416,-8173,-264,-1,16,0,0
306596,414,-8172,-276,-1,19,0,0
306601,420,-8176,-287,-1,21,0,0
306606,434,-8176,-285,-1,20,0,0
306611,458,-8178,-284,-1,18,0,0
306616,488,-8180,-278,-1,14,0,0
306621,512,-8177,-269,-1,8,0,0
306626,528,-8174,-272,-1,4,0,0
306631,528,-8173,-277,-1,0,0,0
306636,522,-8173,-278,-1,-1,0,0
306641,520,-8172,-283,-1,-1,0,0
306646,518,-8171,-291,-1,0,0,0
306650,513,-8172,-296,-1,0,-1,0
306655,497,-8176,-297,-1,-1,-1,0
306660,481,-8178,-293,-1,0,-1,0
306665,466,-8180,-283,-1,0,-1,0
306670,455,-8182,-270,-1,0,-1,0
306676,441,-8177,-258,-1,0,-1,0
306680,429,-8173,-246,-1,0,-1,0
306686,427,-8170,-244,-1,0,-1,0
306690,436,-8169,-246,-1,0,-1,0
306695,445,-8172,-255,-1,-1,-1,0
306700,456,-8172,-263,-1,-1,-1,0
306705,467,-8173,-277,-1,-1,-1,0
306710,475,-8177,-292,-1,-1,-1,0
306715,481,-8178,-300,-1,-1,-1,0
306720,481,-8176,-302,-1,-1,-1,0
306725,478,-8177,-298,-1,-1,-1,0
306730,475,-8176,-291,-1,-1,-1,0
306735,473,-8178,-280,-1,-1,-1,0
306740,469,-8180,-265,-1,-1,-1,0
306745,464,-8179,-250,-1,-1,-1,0
306750,463,-8179,-240,-1,-1,-1,0
306755,465,-8179,-236,-1,-1,-1,0
306760,466,-8180,-232,-1,-1,-1,0
306765,469,-8179,-233,-1,-1,-1,0
306770,474,-8179,-231,-1,-1,-1,0
306775,484,-8180,-236,-1,-1,-1,0
306780,496,-8180,-235,-1,-1,-1,0
306785,509,-8180,-235,-1,0,-1,0
306790,523,-8179,-237,-1,0,-1,0
306795,539,-8180,-243,-1,0,-1,0
306800,552,-8181,-245,-1,0,-1,0
306805,563,-8182,-246,-1,0,-1,0
306810,569,-8182,-249,-1,0,-1,0
306815,572,-8182,-254,-1,0,-1,0
306820,570,-8183,-259,-1,0,-1,0
306825,562,-8183,-259,-1,0,-1,0
306830,555,-8183,-264,-1,0,-1,0
306835,548,-8184,-267,-1,0,-1,0
306840,540,-8183,-266,-1,0,-1,0
306845,530,-8183,-266,-1,0,-1,0
306850,522,-8186,-264,-1,0,-1,0
306855,512,-8186,-265,-1,0,-1,0
306860,504,-8186,-263,-1,0,-1,0
306865,496,-8185,-267,-1,0,-1,0
306870,494,-8186,-275,-1,0,-1,0
306875,492,-8186,-277,-1,0,-1,0
306880,494,-8183,-279,-1,0,-1,0
306885,503,-8181,-273,-1,0,-1,0
306890,515,-8182,-269,-1,0,-1,0
306895,525,-8182,-264,-1,0,-1,0
306900,534,-8179,-261,-1,0,-1,0
306905,539,-8179,-263,-1,0,-1,0
306910,544,-8180,-268,-1,0,-1,0
306915,546,-8177,-274,-1,0,-1,0
306920,544,-8175,-282,-1,0,-1,0
306925,540,-8173,-297,-1,0,-1,0
306930,537,-8172,-308,-1,0,-1,0
306935,532,-8174,-318,-1,0,-1,0
306940,524,-8173,-323,-1,-1,-1,0
306945,516,-8175,-322,-1,-1,-1,0
306950,516,-8176,-324,-1,-1,-1,0
306955,513,-8174,-323,-1,-1,-1,0
306960,510,-8176,-318,-1,-1,-1,0
306965,512,-8175,-313,-1,-1,-1,0
306970,512,-8176,-308,-1,-1,-1,0
306975,512,-8178,-302,-1,-1,-1,0
306980,513,-8180,-296,-1,-1,-1,0
306985,513,-8180,-297,-1,-1,-1,0
306990,503,-8182,-293,-1,-1,-1,0
306995,494,-8179,-296,-1,-1,-1,0
307000,489,-8176,-298,-1,-1,-1,0
307005,481,-8174,-304,-1,-1,-1,0
307010,479,-8176,-302,-1,-1,-1,0
307015,480,-8176,-300,-1,0,-1,0
307020,486,-8176,-293,-1,0,-1,0
307025,497,-8176,-288,-1,0,-1,0
307030,509,-8177,-285,-1,0,-1,0
307035,523,-8180,-284,-1,0,-1,0
307040,539,-8181,-280,-1,-1,-1,0
307045,551,-8179,-281,-1,-1,-1,0
307050,559,-8181,-286,-1,-1,-1,0
307055,568,-8181,-295,-1,-1,-1,0
307060,576,-8179,-305,-1,-1,-1,0
307065,581,-8178,-314,-1,-1,-1,0
307070,580,-8177,-320,-1,-1,-1,0
307075,571,-8178,-320,-1,-1,-1,0
307080,558,-8179,-319,-1,0,-1,0
307085,543,-8179,-315,-1,0,-1,0
307090,524,-8178,-306,-1,0,-1,0
307095,509,-8176,-296,-1,0,-1,0
307100,501,-8176,-286,-1,0,-1,0
307105,498,-8175,-278,-1,0,0,0
307110,499,-8178,-274,-1,0,-1,0
307115,506,-8177,-275,-1,-1,-1,0
307120,515,-8175,-281,-1,-1,-1,0
307125,527,-8173,-292,-1,-1,-1,0
307130,532,-8175,-300,-1,-1,-1,0
307135,535,-8178,-309,-1,-1,-1,0
307140,538,-8178,-314,-1,-1,-1,0
307145,542,-8179,-315,-1,0,-1,0
307150,542,-8179,-309,-1,-1,-1,0
307155,540,-8178,-297,-1,-1,-1,0
307160,535,-8177,-282,-1,0,-1,0
307165,533,-8174,-267,-1,0,0,0
307170,534,-8173,-254,-1,0,0,0
307175,539,-8174,-247,-1,0,0,0
307180,546,-8173,-247,-1,0,0,0
307185,553,-8173,-253,-1,0,0,0
307190,566,-8172,-263,-1,0,0,0
307195,581,-8171,-278,-1,0,0,0
307200,594,-8173,-297,-1,0,0,0
307205,602,-8175,-313,-1,0,0,0
307210,604,-8175,-322,-1,0,0,0
307215,598,-8176,-327,-1,0,0,0
307220,590,-8177,-326,-1,0,0,0
307225,576,-8176,-315,-1,0,0,0
307229,559,-8175,-301,-1,0,0,0
307235,543,-8175,-288,-1,0,0,0
307240,526,-8176,-277,-1,0,0,0
307245,511,-8175,-267,-1,0,0,0
307249,500,-8174,-255,-1,-1,0,0
307254,494,-8177,-252,-1,-1,0,0
307259,491,-8178,-253,-1,-1,0,0
307265,495,-8177,-259,-1,-1,0,0
307270,515,-8178,-251,-1,-3,0,0
307274,524,-8179,-204,-1,-7,-1,0
307279,510,-8176,-161,-1,-11,-1,0
307284,483,-8171,-130,-1,-11,-1,0
307289,458,-8168,-118,-1,-10,-1,0
307294,445,-8170,-147,0,-7,-1,0
307299,454,-8174,-197,0,-4,0,0
307304,485,-8178,-268,0,-3,0,0
307309,521,-8180,-336,-1,-3,0,0
307314,552,-8179,-392,-1,-3,0,0
307319,565,-8178,-423,-1,-2,-1,0
307324,569,-8179,-430,-1,-1,-1,0
307329,562,-8180,-421,-1,0,-1,0
307334,546,-8180,-413,0,0,-1,0
307339,527,-8182,-409,0,-1,0,0
307344,507,-8184,-409,0,0,0,0
307349,497,-8184,-405,0,0,0,0
307354,502,-8184,-391,-1,0,0,0
307359,509,-8183,-371,-1,-1,0,0
307364,516,-8182,-348,-1,-1,0,0
307369,517,-8182,-316,-1,-1,0,0
307374,517,-8181,-290,0,0,0,0
307379,524,-8181,-269,0,-1,0,0
307384,532,-8180,-256,0,-1,0,0
307389,548,-8177,-249,0,-1,0,0
307394,574,-8172,-247,-1,-2,0,0
307399,603,-8171,-244,-1,-2,0,0
307404,633,-8171,-248,-1,-1,0,0
307409,653,-8172,-248,-1,-1,0,0
307414,658,-8172,-250,-1,-1,0,0
307419,640,-8172,-259,-1,-1,0,0
307424,609,-8174,-277,0,-1,0,0
307429,574,-8174,-295,0,-1,0,0
307434,538,-8176,-311,-1,-1,0,0
307439,504,-8177,-322,-1,0,0,0
307444,478,-8180,-322,-1,0,0,0
307449,463,-8178,-315,-1,0,0,0
307454,454,-8178,-305,-1,0,0,0
307459,443,-8180,-288,-1,-1,0,0
307464,443,-8175,-277,0,-1,0,0
307469,447,-8176,-273,0,-1,0,0
307474,460,-8176,-279,0,-1,0,0
307479,469,-8177,-285,0,-1,0,0
307484,477,-8177,-298,0,-1,0,0
307489,482,-8181,-313,0,-1,0,0
307494,486,-8181,-334,0,-1,0,0
307499,486,-8182,-357,0,-1,0,0
307504,485,-8183,-375,0,-1,0,0
307509,484,-8186,-385,0,-1,0,0
307514,487,-8184,-392,0,-1,0,0
307519,497,-8182,-392,0,0,0,0
307524,506,-8177,-387,0,0,0,0
307529,511,-8173,-379,0,0,0,0
307534,512,-8174,-370,0,0,0,0
307539,506,-8174,-357,0,0,0,0
307544,493,-8175,-341,0,0,0,0
307549,479,-8178,-320,0,0,0,0
307554,467,-8178,-292,0,0,0,0
307559,453,-8180,-267,0,0,0,0
307564,442,-8181,-245,0,0,-1,0
307569,435,-8181,-231,0,-1,-1,0
307574,429,-8180,-219,0,-1,-1,0
307579,425,-8182,-215,0,-1,-1,0
307584,425,-8182,-214,0,-1,-1,0
307589,425,-8181,-216,-1,-1,-1,0
307594,427,-8179,-219,-1,-1,-1,0
307599,432,-8179,-215,-1,-1,-1,0
307604,441,-8180,-213,-1,0,-1,0
307609,454,-8180,-206,-1,0,-1,0
307614,464,-8180,-198,-1,0,-1,0
307619,474,-8182,-185,-1,0,-1,0
307624,480,-8181,-174,-1,0,-1,0
307629,478,-8183,-157,-1,0,-1,0
307634,476,-8186,-141,-1,0,-1,0
307639,475,-8183,-126,-1,0,-1,0
307644,462,-8186,-120,-1,-1,-1,0
307649,437,-8180,-125,-1,-1,-1,0
307654,416,-8183,-133,-1,-1,-1,0
307659,396,-8184,-153,-1,0,-1,0
307664,376,-8179,-171,-1,0,-1,0
307669,372,-8182,-197,-1,0,-1,0
307674,382,-8181,-219,-1,0,-1,0
307679,396,-8182,-242,-1,0,-1,0
307684,418,-8181,-267,-1,0,-1,0
307689,437,-8182,-289,-1,1,-1,0
307694,451,-8183,-309,-1,1,-1,0
307699,454,-8184,-327,-1,1,-1,0
307704,448,-8182,-341,-1,2,-1,0
307709,442,-8181,-351,-1,2,-1,0
307714,439,-8181,-352,-1,2,-1,0
307719,438,-8180,-356,-1,1,-1,0
307724,446,-8181,-360,-1,0,-1,0
307729,448,-8182,-357,-1,0,-1,0
307734,446,-8182,-342,-1,-1,-1,0
307739,441,-8180,-321,-1,-1,-1,0
307744,432,-8177,-291,-1,0,-1,0
307749,422,-8176,-258,-1,0,-1,0
307754,418,-8174,-237,-1,0,-1,0
307759,426,-8172,-218,-1,0,-1,0
307764,452,-8172,-210,-1,-1,-1,0
307769,493,-8171,-233,-1,-3,-1,0
307774,518,-8169,-266,-1,-4,-1,0
307779,543,-8171,-297,-1,-3,-1,0
307784,573,-8175,-327,-1,-1,-1,0
307789,597,-8176,-349,-1,0,-1,0
307794,614,-8174,-358,-1,0,-2,0
307799,608,-8175,-352,-1,-1,-2,0
307804,588,-8174,-340,-1,-1,-1,0
307809,568,-8177,-329,-1,-1,-1,0
307814,557,-8179,-311,-1,0,-1,0
307819,555,-8179,-295,-1,1,-1,0
307823,559,-8181,-277,-1,0,-1,0
307829,561,-8178,-257,-1,0,-1,0
307834,559,-8178,-250,-1,0,-1,0
307839,553,-8180,-245,-1,-1,-1,0
307843,545,-8180,-247,-1,-1,-1,0
307849,542,-8179,-262,-1,-1,-1,0
307854,539,-8177,-280,-1,-1,-1,0
307858,545,-8177,-299,-1,0,-1,0
307863,555,-8174,-326,-1,0,-1,0
307868,568,-8174,-347,-1,-1,-1,0
307873,582,-8175,-366,-1,-1,-1,0
307878,594,-8176,-375,-1,-1,-1,0
307883,606,-8176,-383,-1,-1,-1,0
307888,614,-8176,-393,-1,-1,-1,0
307893,622,-8178,-392,-1,-1,-1,0
307898,634,-8177,-382,-1,-1,-1,0
307903,654,-8174,-366,-1,-1,-1,0
307908,685,-8175,-355,-1,-2,-1,0
307913,702,-8173,-348,-1,-2,-1,0
307918,719,-8176,-337,-1,0,-1,0
307923,744,-8175,-329,-1,0,-1,0
307928,757,-8175,-326,-1,0,-1,0
307933,752,-8175,-334,-1,-1,-1,0
307938,735,-8176,-347,-1,-1,-1,0
307943,717,-8178,-362,-1,-1,-1,0
307948,703,-8181,-386,-1,0,-1,0
307953,696,-8181,-406,-1,-1,0,0
307958,689,-8180,-422,-1,-1,0,0
307963,682,-8182,-434,-1,0,0,0
307968,675,-8183,-437,-1,0,-1,0
307973,665,-8184,-431,-1,-1,-1,0
307978,652,-8182,-422,-1,-1,-1,0
307983,641,-8181,-407,-1,-1,0,0
307988,629,-8179,-390,0,0,0,0
307993,620,-8179,-374,0,-1,0,0
307998,616,-8180,-364,0,-1,0,0
308003,614,-8179,-357,0,-1,0,0
308008,609,-8179,-357,0,0,0,0
308013,605,-8179,-353,0,0,0,0
308018,599,-8175,-352,0,0,0,0
308023,590,-8172,-355,0,0,0,0
308028,583,-8172,-353,0,0,0,0
308033,580,-8171,-347,0,0,0,0
308038,581,-8173,-343,0,0,0,0
308043,582,-8173,-335,0,0,0,0
308048,579,-8178,-330,0,0,0,0
308053,566,-8178,-331,0,0,-1,0
308058,550,-8180,-335,0,0,-1,0
308063,533,-8181,-334,0,-1,-1,0
308068,515,-8181,-334,0,-1,-1,0
308073,495,-8184,-329,0,-1,-1,0
308078,479,-8185,-321,0,-1,-1,0
308083,472,-8186,-313,0,-1,-1,0
308088,469,-8184,-309,0,0,-1,0
308093,470,-8183,-304,0,0,-1,0
308098,473,-8182,-304,0,-1,-1,0
308103,474,-8183,-307,0,-1,-1,0
308108,477,-8182,-312,0,-1,-1,0
308113,483,-8182,-317,0,-1,-1,0
308118,493,-8182,-318,0,-1,-1,0
308123,508,-8179,-319,0,-1,-1,0
308128,521,-8180,-321,0,-1,-1,0
308133,529,-8178,-325,0,-1,-1,0
308138,537,-8178,-328,0,-1,-1,0
308143,541,-8178,-332,0,-1,-1,0
308148,546,-8175,-332,0,-1,-1,0
308153,551,-8174,-331,0,-1,-1,0
308158,558,-8174,-328,0,-1,-1,0
308163,567,-8175,-317,0,-1,-1,0
308168,576,-8175,-307,0,-1,-1,0
308173,585,-8177,-298,0,-1,-1,0
308178,595,-8178,-294,0,-1,-1,0
308183,604,-8180,-289,0,-1,-1,0
308188,611,-8179,-288,0,0,-1,0
308193,617,-8180,-283,0,0,-1,0
308198,623,-8181,-272,0,0,-1,0
308203,624,-8177,-260,0,0,-1,0
308208,620,-8174,-245,0,0,-1,0
308213,618,-8173,-232,0,-1,-1,0
308218,613,-8173,-224,0,-1,-1,0
308223,608,-8176,-223,0,-1,0,0
308228,614,-8175,-222,0,-1,0,0
308233,621,-8175,-225,-1,-1,0,0
308238,630,-8174,-223,-1,-1,0,0
308243,638,-8173,-223,-1,-1,0,0
308248,650,-8173,-223,-1,-1,0,0
308253,657,-8175,-224,-1,-1,0,0
308258,665,-8174,-225,-1,-1,0,0
308263,667,-8178,-231,-1,-1,0,0
308268,671,-8180,-241,-1,-1,0,0
308273,674,-8180,-256,-1,-1,0,0
308278,673,-8179,-270,-1,-1,0,0
308283,668,-8178,-285,-1,-1,0,0
308288,655,-8176,-304,-1,-1,0,0
308293,645,-8176,-319,0,-1,0,0
308298,628,-8175,-331,-1,-1,0,0
308303,612,-8175,-342,-1,-1,0,0
308308,599,-8171,-351,0,-1,0,0
308313,587,-8171,-354,0,0,0,0
308318,581,-8168,-357,0,0,0,0
308323,576,-8167,-353,0,0,0,0
308328,571,-8168,-351,0,0,0,0
308333,571,-8169,-345,0,0,0,0
308338,567,-8168,-336,0,0,0,0
308343,565,-8168,-324,0,0,0,0
308348,565,-8170,-310,0,0,0,0
308353,565,-8172,-293,0,0,0,0
308358,566,-8174,-279,-1,0,0,0
308363,568,-8176,-270,-1,-1,0,0
308368,573,-8177,-267,0,-1,0,0
308373,577,-8177,-264,0,-1,0,0
308378,581,-8178,-264,0,-1,0,0
308383,587,-8177,-270,0,-1,0,0
308388,589,-8176,-280,0,-1,0,0
308393,583,-8177,-290,0,-1,0,0
308398,575,-8178,-299,-1,-1,0,0
308403,561,-8175,-300,-1,0,0,0
308408,549,-8175,-300,-1,0,0,0
308413,539,-8176,-306,-1,0,0,0
308418,527,-8177,-305,-1,-1,0,0
308423,515,-8175,-299,-1,-1,0,0
308428,511,-8175,-291,-1,-1,0,0
308432,515,-8178,-283,-1,-1,0,0
308437,526,-8178,-277,-1,-1,0,0
308443,539,-8177,-273,-1,-1,0,0
308447,552,-8179,-272,-1,-1,0,0
308452,566,-8179,-274,-1,-1,0,0
308458,574,-8178,-279,-1,-1,0,0
308462,579,-8178,-285,-1,-1,0,0
308467,586,-8174,-289,-1,-1,0,0
308472,588,-8173,-286,-1,-1,0,0
308477,590,-8175,-281,-1,-1,0,0
308482,596,-8176,-276,-1,-1,0,0
308487,612,-8174,-285,-1,-2,0,0
308492,615,-8177,-288,0,-2,0,0
308497,613,-8178,-291,-1,-2,0,0
308502,621,-8181,-307,-1,-1,0,0
308507,618,-8178,-309,-1,0,0,0
308512,611,-8179,-311,-1,-1,0,0
308517,593,-8178,-317,-1,-1,0,0
308522,570,-8178,-309,-1,0,0,0
308527,552,-8178,-301,-1,0,0,0
308532,539,-8176,-297,-1,0,0,0
308537,528,-8175,-297,-1,0,0,0
308542,514,-8174,-301,-1,-1,0,0
308547,503,-8177,-300,-1,0,0,0
308552,499,-8179,-299,-1,0,0,0
308557,495,-8180,-297,-1,0,0,0
308562,492,-8180,-296,-1,-1,0,0
308567,491,-8183,-299,-1,0,0,0
308572,494,-8181,-300,-1,0,0,0
308577,501,-8178,-294,-1,0,0,0
308582,511,-8182,-292,-1,0,0,0
308587,520,-8183,-289,-1,0,0,0
308592,532,-8183,-292,-1,0,0,0
308597,545,-8183,-288,-1,0,0,0
308602,557,-8182,-288,-1,0,0,0
308607,566,-8178,-288,-1,-1,0,0
308612,572,-8178,-289,-1,0,0,0
308617,578,-8177,-293,-1,0,0,0
308622,579,-8178,-296,-1,0,0,0
308627,574,-8180,-305,-1,0,0,0
308632,568,-8182,-312,-1,0,0,0
308637,559,-8183,-323,-1,0,0,0
308642,543,-8181,-325,-1,0,0,0
308647,534,-8181,-328,-1,0,0,0
308652,530,-8182,-331,-1,0,0,0
308657,527,-8180,-334,-1,0,0,0
308662,524,-8180,-332,-1,0,0,0
308667,526,-8180,-333,-1,0,0,0
308672,529,-8181,-333,0,0,0,0
308677,536,-8179,-332,0,-1,0,0
308682,543,-8178,-332,0,0,0,0
308687,554,-8178,-332,0,0,0,0
308692,564,-8176,-330,0,0,0,0
308697,577,-8175,-331,0,-1,0,0
308702,587,-8173,-333,0,-1,0,0
308707,593,-8174,-333,0,-1,0,0
308712,601,-8173,-337,0,0,0,0
308717,610,-8175,-338,0,0,0,0
308722,616,-8176,-339,0,0,0,0
308727,615,-8174,-338,0,-1,0,0
308732,609,-8169,-337,0,0,0,0
308737,602,-8169,-335,0,0,0,0
308742,596,-8169,-327,0,0,0,0
308747,588,-8167,-314,0,0,0,0
308752,585,-8166,-301,0,0,0,0
308757,584,-8166,-288,0,0,0,0
308762,583,-8167,-280,0,0,0,0
308767,578,-8167,-274,0,-1,0,0
308772,582,-8168,-276,0,-1,0,0
308777,584,-8172,-282,0,-1,0,0
308782,588,-8172,-291,0,-1,0,0
308787,596,-8172,-298,0,-1,0,0
308792,598,-8173,-304,0,0,0,0
308797,597,-8176,-309,0,0,0,0
308802,595,-8173,-304,0,0,0,0
308807,594,-8175,-299,0,0,0,0
308812,590,-8174,-293,0,0,0,0
308817,585,-8172,-283,0,0,0,0
308822,578,-8172,-275,0,0,0,0
308827,573,-8172,-264,0,0,0,0
308832,569,-8175,-259,0,0,0,0
308837,561,-8173,-261,0,0,0,0
308842,557,-8174,-261,0,0,0,0
308847,557,-8174,-263,0,-1,0,0
308852,559,-8176,-269,0,-1,0,0
308857,561,-8177,-277,0,-1,0,0
308862,561,-8178,-283,0,-1,0,0
308867,561,-8178,-287,0,-1,0,0
308872,562,-8178,-290,0,-1,0,0
308877,561,-8175,-291,0,-1,0,0
308882,559,-8177,-290,0,-1,0,0
308887,556,-8176,-283,-1,-1,0,0
308892,546,-8177,-273,-1,-1,0,0
308897,531,-8176,-265,-1,-1,0,0
308902,516,-8178,-258,-1,-1,0,0
308907,509,-8183,-251,0,0,0,0
308912,499,-8185,-245,-1,0,0,0
308917,484,-8182,-247,-1,-1,0,9
308922,461,-8182,-253,-1,0,0,9
308927,439,-8182,-255,-1,0,0,9
308932,409,-8183,-258,-1,0,0,9
308937,368,-8185,-264,-1,0,0,9
308942,318,-8182,-267,-1,0,0,9
308947,263,-8183,-270,-1,-1,-1,9
308952,216,-8185,-259,-1,-1,-1,9
308957,149,-8186,-253,-1,-1,-1,9
308962,73,-8186,-242,-1,-2,-2,9
308967,-7,-8185,-220,-1,-2,-2,9
308972,-102,-8186,-194,-1,-1,-2,9
