millis,ax,ay,az,gx,gy,gz,label
17292,450,-8269,762,-2,6,-2,0
17297,452,-8270,769,-2,7,-2,0
17302,454,-8269,767,-2,7,-2,0
17307,458,-8272,764,-2,8,-2,0
17312,467,-8272,761,-2,8,-2,0
17317,480,-8271,759,-2,9,-2,0
17322,490,-8273,750,-2,9,-2,0
17327,497,-8274,745,-2,10,-2,0
17332,507,-8273,739,-2,10,-2,0
17337,516,-8274,732,-2,10,-1,0
17342,524,-8274,727,-2,10,-1,0
17347,535,-8273,722,-2,11,-1,0
17352,550,-8272,715,-2,11,-1,0
17357,562,-8274,713,-2,11,-1,0
17362,576,-8275,710,-2,11,-1,0
17367,595,-8276,706,-2,12,-1,0
17372,613,-8275,708,-2,12,-1,0
17377,628,-8274,712,-2,12,-1,0
17382,640,-8274,713,-2,12,-1,0
17387,651,-8273,715,-2,13,-1,0
17392,657,-8272,714,-2,14,-1,0
17397,664,-8272,712,-2,15,-1,0
17402,666,-8270,708,-2,17,-1,0
17407,666,-8268,704,-2,18,-1,0
17412,662,-8267,699,-2,19,-1,0
17417,655,-8265,693,-2,20,-1,0
17422,648,-8265,685,-2,21,0,0
17427,647,-8270,673,-2,22,0,0
17432,648,-8270,668,-2,23,0,0
17437,649,-8270,657,-2,23,0,0
17442,648,-8271,643,-2,24,0,0
17447,651,-8272,632,-2,24,0,0
17452,653,-8272,616,-2,24,0,0
17457,656,-8271,602,-2,25,0,0
17462,661,-8272,593,-2,25,0,0
17467,666,-8273,579,-2,25,0,0
17472,670,-8274,568,-2,25,0,0
17477,670,-8279,560,-2,25,0,0
17482,668,-8280,548,-2,24,0,0
17487,666,-8280,535,-2,24,1,0
17492,666,-8280,526,-2,24,1,0
17497,665,-8278,519,-2,24,1,0
17502,668,-8280,510,-2,24,1,0
17507,671,-8281,502,-2,24,1,0
17512,673,-8279,500,-2,24,1,0
17517,670,-8279,499,-2,24,1,0
17522,663,-8280,500,-2,24,1,0
17527,660,-8280,496,-2,24,1,0
17532,658,-8280,502,-2,24,1,0
17537,656,-8276,510,-2,24,1,0
17542,650,-8275,514,-2,23,1,0
17547,642,-8273,515,-2,22,2,0
17552,630,-8272,515,-1,21,2,0
17557,615,-8271,512,-1,22,2,0
17562,602,-8269,503,-1,24,2,0
17567,604,-8271,495,-1,27,2,0
17572,617,-8274,504,-1,28,2,0
17577,621,-8275,503,-1,26,2,0
17582,606,-8275,498,-1,24,2,0
17587,581,-8273,488,-1,22,2,0
17592,549,-8272,474,-1,23,2,0
17597,520,-8271,456,-1,24,2,0
17602,496,-8272,443,-1,25,2,0
17607,475,-8273,436,-1,25,2,0
17612,459,-8273,433,-1,25,2,0
17617,440,-8274,429,-1,26,2,0
17622,424,-8273,430,-1,26,2,0
17627,418,-8273,425,-1,27,2,0
17632,419,-8272,412,-1,27,2,0
17637,431,-8270,394,-1,27,2,0
17642,454,-8272,369,-1,27,3,0
17647,482,-8273,334,0,26,3,0
17652,505,-8277,299,0,24,3,0
17657,522,-8281,267,0,23,3,0
17662,525,-8282,239,0,21,3,0
17667,512,-8281,222,0,20,3,0
17672,496,-8281,214,0,20,3,0
17677,474,-8281,215,0,20,3,0
17682,453,-8279,223,0,20,3,0
17687,426,-8277,232,0,19,3,0
17692,406,-8275,235,0,19,3,0
17697,387,-8274,240,1,19,3,0
17702,368,-8276,238,1,18,3,0
17707,340,-8277,239,1,18,3,0
17712,307,-8276,239,1,18,3,0
17717,268,-8275,246,1,19,3,0
17722,231,-8276,273,1,20,3,0
17727,193,-8274,300,1,20,3,0
17732,151,-8269,339,1,22,3,0
17737,110,-8264,377,1,23,3,0
17742,83,-8262,417,1,24,3,0
17747,59,-8260,452,1,23,3,0
17752,34,-8259,477,1,22,3,0
17757,12,-8257,482,1,21,3,0
17762,-13,-8259,487,1,20,3,0
17767,-42,-8263,490,1,21,3,0
17772,-57,-8263,490,1,22,3,0
17777,-59,-8260,507,1,22,3,0
17782,-63,-8261,531,1,21,3,0
17787,-68,-8264,552,1,19,3,0
17792,-84,-8264,569,1,17,3,0
17797,-113,-8264,579,1,17,2,0
17802,-145,-8264,600,1,17,2,0
17807,-176,-8265,625,1,18,2,0
17812,-202,-8265,652,1,20,2,0
17817,-214,-8265,683,1,21,2,0
17822,-221,-8265,715,1,20,2,0
17827,-235,-8264,745,1,18,2,0
17832,-259,-8264,761,1,16,2,0
17837,-296,-8264,772,0,15,2,0
17842,-336,-8264,780,0,15,1,0
17847,-378,-8263,790,0,16,1,0
17852,-417,-8259,798,0,18,1,0
17857,-441,-8256,806,0,20,1,0
17862,-445,-8258,813,0,22,1,0
17867,-436,-8261,813,0,21,1,0
17872,-430,-8265,807,0,19,0,0
17877,-439,-8270,801,0,17,0,0
17882,-460,-8271,803,0,15,0,0
17887,-488,-8270,813,-1,15,0,0
17892,-515,-8267,836,-1,17,0,0
17897,-529,-8263,865,-1,18,0,0
17902,-526,-8260,887,0,18,0,0
17907,-512,-8261,899,0,18,0,0
17912,-488,-8260,899,0,16,-1,0
17917,-466,-8261,886,-1,14,-1,0
17922,-444,-8262,865,-1,13,-1,0
17927,-423,-8262,850,-1,11,-1,0
17932,-406,-8263,844,-1,10,-1,0
17937,-393,-8264,865,-1,9,-1,0
17942,-374,-8261,891,-1,9,-1,0
17947,-350,-8258,919,-1,9,-1,0
17952,-318,-8255,942,-1,9,-1,0
17957,-285,-8254,967,-1,8,-1,0
17962,-247,-8256,975,-1,6,-2,0
17967,-223,-8255,973,-2,5,-2,0
17972,-208,-8256,961,-2,5,-2,0
17977,-193,-8257,947,-2,7,-2,0
17982,-166,-8258,932,-2,8,-2,0
17987,-126,-8255,919,-2,8,-2,0
17992,-78,-8253,898,-2,7,-1,0
17997,-27,-8256,873,-2,5,-1,0
18002,20,-8262,842,-2,3,-1,0
18007,58,-8262,809,-2,2,-1,0
18012,83,-8265,776,-2,1,-1,0
18017,100,-8269,755,-2,0,-1,0
18022,103,-8271,758,-2,1,-1,0
18027,96,-8272,781,-3,1,-1,0
18032,85,-8266,821,-3,2,-1,0
18037,69,-8265,857,-3,2,-1,0
18042,49,-8265,894,-3,3,-1,0
18047,29,-8260,923,-3,5,-1,0
18052,15,-8259,941,-3,7,-1,0
18057,4,-8258,949,-3,8,-1,0
18062,-1,-8260,953,-3,9,-1,0
18067,0,-8258,943,-3,9,-1,0
18072,-8,-8260,929,-3,9,-1,0
18077,-31,-8260,902,-3,10,-1,0
18082,-35,-8260,882,-3,12,-1,0
18087,-30,-8260,866,-3,13,-1,0
18092,-27,-8261,870,-3,12,-1,0
18097,-5,-8259,872,-4,10,-1,0
18102,15,-8257,852,-4,5,-1,0
18107,13,-8258,848,-4,0,-1,0
18112,-7,-8260,833,-4,-2,-1,0
18117,-26,-8259,817,-4,-3,-1,0
18122,-52,-8261,828,-4,-3,-1,0
18127,-78,-8261,847,-4,-3,-1,0
18132,-98,-8258,866,-4,-2,-1,0
18137,-111,-8255,889,-4,-1,-1,0
18142,-116,-8254,892,-4,0,-1,0
18147,-115,-8253,883,-4,1,-2,0
18152,-116,-8255,857,-4,0,-2,0
18157,-120,-8256,805,-4,-1,-2,0
18162,-130,-8259,750,-4,-3,-2,0
18167,-146,-8262,700,-4,-5,-2,0
18172,-157,-8265,659,-5,-6,-2,0
18177,-158,-8265,626,-5,-8,-2,0
18182,-152,-8264,603,-4,-11,-2,0
18187,-134,-8268,576,-4,-15,-2,0
18192,-110,-8266,540,-4,-20,-1,0
18197,-84,-8265,491,-4,-25,-1,0
18202,-58,-8269,418,-4,-31,-1,0
18207,-33,-8275,327,-3,-37,-1,0
18212,0,-8277,216,-3,-44,-1,0
18217,-27,-8284,104,-3,-50,-1,0
18222,-77,-8287,14,-3,-51,-1,0
18227,-94,-8288,-41,-3,-49,-1,0
18232,-126,-8289,-59,-3,-47,-1,0
18237,-147,-8289,-32,-3,-46,-1,0
18242,-135,-8282,-3,-3,-45,-1,0
18247,-115,-8281,33,-2,-45,-1,0
18252,-95,-8279,63,-2,-46,-1,0
18257,-76,-8279,74,-2,-45,-1,0
18262,-62,-8282,75,-2,-43,-2,0
18267,-51,-8285,79,-2,-40,-2,0
18272,-51,-8285,90,-2,-37,-2,0
18277,-54,-8282,114,-2,-34,-2,0
18282,-67,-8277,152,-2,-31,-2,0
18287,-70,-8273,201,-2,-29,-2,0
18292,-54,-8269,242,-2,-28,-2,0
18297,-42,-8275,285,-2,-28,-2,0
18302,-18,-8278,316,-1,-29,-2,0
18307,3,-8277,330,-1,-29,-2,0
18312,10,-8276,345,-2,-28,-2,0
18317,32,-8278,364,-2,-27,-2,0
18322,48,-8277,393,-2,-26,-2,0
18327,46,-8282,435,-2,-28,-2,0
18332,39,-8281,481,-2,-30,-2,0
18337,10,-8283,529,-2,-33,-2,0
18342,-43,-8279,578,-2,-34,-2,0
18347,-103,-8275,628,-2,-30,-2,0
18352,-138,-8271,693,-2,-23,-2,0
18357,-140,-8267,766,-2,-14,-2,0
18362,-121,-8264,857,-2,-6,-2,0
18367,-71,-8258,943,-3,-1,-2,0
18372,-7,-8251,987,-3,3,-2,0
18377,31,-8252,1012,-2,6,-2,0
18382,64,-8261,995,-2,8,-2,0
18387,81,-8262,971,-3,13,-3,0
18392,78,-8269,916,-3,19,-3,0
18397,57,-8276,876,-3,23,-3,0
18402,65,-8275,803,-3,28,-3,0
18407,45,-8272,718,-3,31,-3,0
18412,47,-8266,635,-3,31,-3,0
18417,40,-8270,560,-3,32,-3,0
18422,48,-8281,503,-3,33,-3,0
18427,53,-8288,459,-3,32,-3,0
18432,55,-8286,444,-3,30,-3,0
18437,47,-8276,454,-3,28,-3,0
18442,78,-8266,444,-3,26,-3,0
18447,108,-8262,475,-3,21,-2,0
18452,113,-8262,473,-3,16,-2,0
18457,153,-8258,459,-3,12,-2,0
18462,136,-8257,515,-3,10,-2,0
18467,124,-8257,533,-3,9,-2,0
18472,90,-8255,619,-4,11,-2,0
18477,66,-8250,707,-4,18,-3,0
18482,57,-8244,793,-4,23,-3,0
18487,52,-8244,871,-3,27,-3,0
18492,43,-8253,887,-3,27,-3,0
18497,-3,-8258,925,-3,26,-3,0
18502,-64,-8267,932,-4,27,-3,0
18507,-119,-8267,958,-4,28,-3,0
18512,-159,-8265,992,-4,30,-3,0
18517,-160,-8260,983,-4,30,-3,0
18522,-127,-8259,963,-4,26,-3,0
18527,-102,-8263,895,-4,22,-3,0
18532,-126,-8274,823,-4,22,-3,0
18537,-193,-8273,774,-5,29,-4,0
18542,-236,-8266,704,-5,41,-4,0
18547,-252,-8266,621,-4,49,-5,0
18552,-246,-8275,573,-4,49,-4,0
18557,-255,-8274,554,-4,47,-4,0
18562,-269,-8273,539,-5,45,-4,0
18567,-255,-8272,546,-5,44,-4,0
18572,-236,-8271,579,-5,42,-4,0
18577,-209,-8270,620,-5,37,-4,0
18582,-179,-8270,648,-5,33,-5,0
18587,-171,-8263,666,-5,29,-5,0
18592,-186,-8257,656,-5,28,-5,0
18597,-202,-8257,616,-4,30,-5,0
18602,-184,-8258,548,-4,32,-5,0
18607,-117,-8262,476,-4,32,-5,0
18612,-22,-8268,410,-4,27,-4,0
18617,125,-8273,324,-4,19,-4,0
18622,285,-8274,237,-4,8,-4,0
18627,422,-8279,179,-4,-4,-3,0
18632,530,-8284,91,-4,-14,-3,0
18637,607,-8288,24,-4,-20,-3,0
18642,641,-8292,-4,-4,-26,-3,0
18647,649,-8292,-10,-4,-32,-3,0
18652,634,-8287,-9,-4,-39,-3,0
18657,611,-8281,-11,-4,-47,-2,0
18662,602,-8282,-29,-3,-54,-2,0
18667,613,-8284,-62,-3,-62,-1,0
18672,627,-8290,-94,-3,-69,-1,0
18677,654,-8295,-128,-3,-73,0,0
18682,680,-8296,-125,-3,-73,0,0
18687,721,-8294,-119,-3,-72,0,0
18692,778,-8291,-114,-3,-72,0,0
18697,810,-8289,-95,-2,-73,0,0
18702,839,-8291,-111,-2,-76,0,0
18707,862,-8294,-137,-2,-78,1,0
18712,867,-8293,-166,-2,-79,1,0
18717,875,-8292,-207,-2,-75,1,0
18722,899,-8290,-244,-2,-69,2,0
18727,955,-8290,-285,-1,-60,2,0
18732,1016,-8289,-311,-1,-51,2,0
18737,1092,-8292,-337,-1,-43,2,0
18742,1172,-8294,-324,0,-37,2,0
18747,1227,-8296,-280,-1,-37,2,0
18752,1253,-8291,-211,-1,-42,3,0
18757,1205,-8289,-104,-1,-49,3,0
18762,1096,-8285,9,-1,-57,3,0
18767,977,-8276,85,0,-64,3,0
18772,823,-8270,120,0,-68,4,0
18777,655,-8269,128,1,-69,4,0
18782,514,-8271,112,1,-66,4,0
18787,389,-8275,81,1,-59,4,0
18792,293,-8278,64,1,-51,4,0
18797,241,-8276,74,0,-41,4,0
18802,220,-8275,115,0,-33,3,0
18807,216,-8276,172,0,-27,3,0
18812,214,-8276,250,0,-24,3,0
18817,200,-8273,336,0,-24,3,0
18822,161,-8273,412,1,-26,3,0
18827,100,-8273,478,0,-28,3,0
18832,17,-8269,532,0,-30,3,0
18837,-80,-8268,576,0,-31,3,0
18842,-176,-8267,615,0,-31,3,0
18847,-254,-8264,649,0,-31,3,0
18852,-309,-8263,677,0,-31,3,0
18857,-344,-8262,698,0,-30,3,0
18862,-366,-8264,709,0,-30,2,0
18867,-372,-8263,707,0,-31,2,0
18872,-357,-8263,702,0,-32,2,0
18877,-341,-8263,682,0,-35,2,0
18882,-346,-8266,651,0,-40,2,0
18887,-373,-8265,622,0,-44,1,0
18892,-425,-8266,595,-1,-46,1,0
18897,-507,-8269,587,-1,-47,1,0
18902,-599,-8268,573,-1,-45,1,0
18907,-696,-8268,568,-1,-42,0,0
18912,-794,-8268,555,0,-37,0,0
18917,-870,-8266,527,0,-31,0,0
18922,-920,-8266,497,0,-25,-1,0
18927,-955,-8268,457,0,-19,-1,0
18932,-971,-8272,420,0,-14,-2,0
18937,-970,-8272,390,0,-11,-2,0
18942,-970,-8273,380,0,-10,-2,0
18947,-965,-8273,383,0,-9,-3,0
18952,-950,-8273,412,0,-9,-3,0
18957,-924,-8271,461,-1,-9,-3,0
18962,-884,-8269,517,0,-11,-3,0
18967,-838,-8265,570,0,-13,-3,0
18972,-794,-8262,610,0,-15,-3,0
18977,-752,-8264,634,0,-16,-4,0
18982,-715,-8266,640,0,-17,-4,0
18987,-689,-8267,636,-1,-17,-4,0
18992,-670,-8267,629,-1,-17,-4,0
18997,-653,-8267,629,-1,-17,-5,0
19002,-640,-8267,630,-1,-16,-5,0
19007,-629,-8267,640,-1,-16,-5,0
19012,-614,-8264,647,-1,-14,-5,0
19017,-590,-8262,647,-1,-12,-5,0
19022,-567,-8262,636,-1,-10,-5,0
19027,-538,-8263,614,-1,-7,-5,0
19032,-503,-8267,585,-1,-3,-6,0
19037,-470,-8268,555,-1,0,-6,0
19042,-465,-8276,517,-1,5,-6,0
19047,-420,-8277,503,-1,9,-6,0
19052,-403,-8277,493,-1,12,-6,0
19057,-373,-8274,494,-1,12,-6,0
19062,-336,-8272,513,-1,13,-7,0
19067,-310,-8265,543,-1,16,-7,0
19072,-268,-8250,567,-1,18,-7,0
19077,-232,-8242,593,-1,21,-7,0
19082,-200,-8240,613,-1,23,-7,0
19087,-164,-8244,613,-1,26,-7,0
19092,-141,-8250,609,-1,28,-7,0
19097,-129,-8252,600,-1,30,-7,0
19102,-115,-8255,571,-1,32,-7,0
19107,-100,-8256,544,-1,34,-7,0
19112,-74,-8256,519,-1,34,-7,0
19117,-34,-8258,499,-1,35,-7,0
19122,11,-8259,490,-1,36,-7,0
19127,70,-8259,479,-1,36,-7,0
19132,126,-8257,475,-1,36,-7,0
19137,173,-8257,467,-1,37,-7,0
19142,206,-8258,446,0,38,-7,0
19147,211,-8260,421,0,41,-7,0
19152,197,-8264,387,0,45,-7,0
19157,182,-8267,359,0,49,-7,0
19162,172,-8267,346,0,52,-7,0
19167,178,-8265,337,0,52,-7,0
19172,202,-8263,346,0,50,-7,0
19177,245,-8262,369,0,49,-7,0
19182,309,-8264,397,0,47,-6,0
19187,380,-8267,431,0,46,-6,0
19192,455,-8269,469,0,44,-6,0
19197,530,-8270,500,0,41,-6,0
19202,594,-8269,539,0,37,-6,0
19207,653,-8266,581,0,31,-6,0
19212,705,-8265,620,0,24,-6,0
19217,750,-8266,659,0,16,-5,0
19222,787,-8269,692,0,9,-5,0
19227,817,-8269,713,0,3,-4,0
19232,836,-8271,717,0,-1,-4,0
19237,846,-8275,705,0,-4,-4,0
19242,849,-8280,684,0,-5,-4,0
19247,852,-8279,660,0,-6,-4,0
19252,851,-8280,640,-1,-8,-3,0
19257,838,-8280,630,-1,-11,-3,0
19262,819,-8278,631,-1,-14,-3,0
19267,795,-8274,650,-1,-17,-3,0
19272,769,-8271,678,-1,-19,-3,0
19277,742,-8271,703,-1,-21,-3,0
19282,722,-8272,725,-1,-22,-2,0
19287,721,-8272,747,-1,-24,-2,0
19292,733,-8273,756,-1,-27,-2,0
19297,756,-8276,756,-1,-31,-2,0
19302,776,-8276,752,-1,-37,-1,0
19307,786,-8278,752,-1,-42,-1,0
19312,761,-8276,750,-2,-45,-1,0
19317,690,-8273,734,-2,-46,-1,0
19322,576,-8270,708,-2,-43,-2,0
19327,424,-8273,667,-1,-36,-2,0
19332,256,-8274,605,-1,-26,-2,0
19337,98,-8276,532,-1,-14,-2,0
19342,-29,-8277,452,-1,-2,-3,0
19347,-115,-8277,379,-1,7,-3,0
19352,-183,-8280,303,-1,14,-3,0
19357,-222,-8283,242,-1,22,-3,0
19362,-228,-8287,208,-1,32,-3,0
19367,-211,-8290,198,-1,42,-4,0
19372,-169,-8290,219,-1,51,-4,0
19377,-104,-8287,265,-1,56,-4,0
19382,-28,-8281,324,-1,57,-4,0
19387,55,-8280,380,-1,53,-4,0
19392,151,-8277,434,-1,47,-4,0
19397,250,-8276,470,0,40,-4,0
19402,336,-8277,484,0,32,-3,0
19407,410,-8281,480,0,25,-3,0
19412,461,-8281,462,0,20,-3,0
19417,482,-8284,435,0,17,-3,0
19422,458,-8285,401,0,16,-3,0
19427,395,-8287,372,0,17,-4,0
19432,306,-8287,356,0,19,-4,0
19437,205,-8286,353,0,23,-4,0
19442,117,-8284,361,0,28,-4,0
19447,58,-8282,371,0,33,-4,0
19452,31,-8279,387,0,37,-4,0
19457,44,-8276,396,0,40,-4,0
19462,90,-8274,387,0,42,-4,0
19467,153,-8272,372,0,44,-4,0
19472,232,-8270,352,0,43,-4,0
19477,315,-8271,334,0,41,-4,0
19482,396,-8277,327,0,36,-4,0
19487,463,-8278,339,0,30,-4,0
19492,507,-8278,371,0,23,-3,0
19497,521,-8272,425,0,17,-3,0
19502,508,-8270,481,0,13,-3,0
19507,458,-8273,524,0,12,-3,0
19512,372,-8274,554,0,16,-3,0
19517,257,-8276,569,1,24,-4,0
19522,128,-8277,581,0,36,-4,0
19527,4,-8277,589,0,49,-4,0
19532,-113,-8275,611,0,61,-5,0
19537,-201,-8275,649,0,73,-5,0
19542,-236,-8271,702,0,83,-5,0
19547,-198,-8268,772,0,89,-5,0
19552,-87,-8265,840,0,91,-5,0
19557,88,-8263,891,0,88,-4,0
19562,304,-8261,922,0,81,-4,0
19567,528,-8260,922,0,72,-4,0
19572,732,-8264,893,0,62,-3,0
19577,904,-8269,842,0,52,-3,0
19582,1026,-8275,787,-1,41,-3,0
19587,1095,-8280,736,-1,32,-3,0
19592,1106,-8285,703,-1,23,-3,0
19597,1065,-8284,689,-1,16,-2,0
19602,982,-8282,694,-1,10,-2,0
19607,879,-8280,718,-1,8,-2,0
19612,775,-8276,750,-1,8,-1,0
19617,707,-8274,787,-1,10,-1,0
19622,643,-8273,810,-1,9,-1,0
19627,590,-8271,790,-1,8,-1,0
19632,514,-8273,762,-1,11,-1,0
19637,438,-8274,720,-1,16,-1,0
19642,379,-8277,674,-1,23,-2,0
19647,308,-8281,633,-2,30,-2,0
19652,258,-8282,626,-2,37,-2,0
19657,228,-8280,649,-2,42,-2,0
19662,216,-8278,674,-2,44,-2,0
19667,235,-8275,730,-2,43,-2,0
19672,268,-8271,780,-2,42,-2,0
19677,316,-8268,821,-2,39,-2,0
19682,365,-8266,846,-2,36,-2,0
19687,402,-8268,842,-2,33,-2,0
19692,424,-8268,831,-2,32,-2,0
19697,433,-8271,796,-2,30,-2,0
19702,427,-8272,743,-2,27,-2,0
19707,422,-8272,673,-2,24,-2,0
19712,429,-8273,585,-2,22,-1,0
19717,450,-8278,478,-2,19,-1,0
19722,485,-8277,361,-1,17,-1,0
19727,527,-8281,239,-1,16,-1,0
19732,565,-8283,136,-1,17,-1,0
19737,562,-8288,49,-1,17,-1,0
19742,503,-8289,-21,-1,20,-2,0
19747,372,-8291,-55,-1,26,-2,0
19752,191,-8294,-42,-1,37,-3,0
19757,-11,-8293,6,-1,50,-3,0
19762,-202,-8290,77,-1,64,-3,0
19767,-355,-8284,156,-1,79,-4,0
19772,-461,-8279,222,0,92,-4,0
19777,-506,-8274,262,0,105,-4,0
19782,-481,-8275,255,0,120,-4,0
19787,-380,-8281,235,1,134,-4,0
19792,-229,-8289,239,1,144,-4,0
19797,-50,-8295,251,0,145,-5,0
19802,131,-8296,297,0,137,-5,0
19807,275,-8293,356,0,123,-5,0
19812,367,-8288,412,0,106,-4,0
19817,402,-8281,453,0,92,-4,0
19822,398,-8279,489,0,83,-3,0
19827,372,-8279,496,0,79,-3,0
19832,315,-8278,510,0,83,-3,0
19837,253,-8279,529,0,91,-4,0
19842,163,-8281,534,0,102,-4,0
19847,43,-8279,545,0,117,-4,0
19852,-77,-8280,525,0,135,-5,0
19857,-176,-8281,495,0,154,-5,0
19862,-253,-8282,453,0,172,-5,0
19867,-290,-8283,376,1,190,-5,0
19872,-293,-8280,292,1,206,-6,0
19877,-265,-8278,194,1,221,-6,0
19882,-226,-8276,106,1,235,-6,0
19887,-172,-8279,41,1,248,-6,0
19892,-106,-8280,-3,1,261,-6,0
19897,-83,-8288,13,2,272,-7,0
19902,-107,-8291,119,1,285,-7,0
19907,-123,-8288,231,1,297,-8,0
19912,-110,-8280,396,1,302,-8,0
19917,-45,-8271,517,2,297,-7,0
19922,84,-8268,554,3,284,-6,0
19927,245,-8271,562,3,266,-5,0
19932,408,-8283,580,2,244,-4,0
19937,590,-8291,633,1,220,-5,0
19942,767,-8293,746,0,191,-5,0
19947,888,-8289,938,-1,155,-5,0
19952,952,-8292,1134,-1,113,-4,0
19957,998,-8284,1248,-1,71,-4,0
19962,1002,-8280,1335,-2,33,-4,0
19967,1037,-8282,1426,-3,-3,-3,0
19972,1054,-8280,1492,-4,-37,-3,0
19977,1029,-8264,1544,-5,-64,-2,0
19982,958,-8245,1665,-5,-84,-1,0
19987,844,-8231,1731,-4,-96,0,0
19992,683,-8226,1763,-3,-99,1,0
19997,494,-8230,1704,-2,-93,1,0
20002,303,-8245,1544,-1,-80,0,0
20007,149,-8259,1361,-2,-64,-1,0
20012,32,-8268,1185,-3,-48,-1,0
20017,-46,-8273,1040,-4,-35,-1,0
20022,-76,-8273,948,-4,-24,-1,0
20027,-93,-8271,898,-4,-16,-1,0
20032,-82,-8268,872,-4,-10,-1,0
20037,-56,-8266,838,-4,-6,-2,0
20042,-37,-8266,790,-3,-3,-2,0
20047,-19,-8267,713,-3,-3,-2,0
20052,-21,-8270,621,-3,-5,-3,0
20057,-30,-8272,533,-3,-8,-2,0
20062,-47,-8276,456,-4,-11,-2,0
20067,-57,-8274,398,-4,-12,-2,0
20072,-62,-8273,344,-4,-12,-2,0
20077,-67,-8272,307,-3,-11,-3,0
20082,-78,-8274,263,-3,-9,-3,0
20087,-95,-8275,218,-3,-5,-3,0
20092,-110,-8275,173,-3,-2,-3,0
20097,-115,-8278,128,-3,3,-3,0
20102,-102,-8277,92,-3,8,-3,0
20107,-86,-8278,65,-3,12,-3,0
20112,-78,-8277,41,-3,15,-4,0
20117,-75,-8277,18,-2,17,-4,0
20122,-71,-8279,-7,-2,19,-4,0
20127,-69,-8278,-23,-2,20,-4,0
20132,-67,-8279,-28,-2,21,-4,0
20137,-63,-8283,-24,-2,23,-4,0
20142,-62,-8283,-2,-2,24,-4,0
20147,-59,-8283,24,-2,25,-4,0
20152,-44,-8282,37,-2,26,-4,0
20157,-11,-8283,35,-1,27,-4,0
20162,38,-8283,12,-1,28,-4,0
20167,106,-8285,-8,-1,29,-4,0
20172,200,-8287,-12,-1,28,-4,0
20177,326,-8289,5,-1,26,-4,0
20182,465,-8290,57,-1,23,-3,0
20187,592,-8289,130,-2,21,-3,0
20192,693,-8287,220,-2,18,-3,0
20197,752,-8286,314,-2,15,-4,0
20202,751,-8283,419,-1,11,-4,0
20207,704,-8282,541,-2,4,-4,0
20212,631,-8282,662,-2,-3,-4,0
20217,541,-8280,781,-3,-9,-3,0
20222,453,-8278,902,-3,-12,-3,0
20227,391,-8271,1021,-3,-16,-3,0
20232,344,-8266,1111,-3,-20,-3,0
20237,317,-8263,1120,-3,-25,-2,0
20242,304,-8264,1040,-2,-29,-3,0
20247,280,-8263,882,-2,-31,-3,0
20252,254,-8264,744,-2,-31,-3,0
20257,244,-8264,597,-1,-32,-4,0
20262,254,-8268,506,-1,-33,-4,0
20267,252,-8268,338,-1,-36,-4,0
20272,251,-8275,143,-1,-41,-3,0
20277,247,-8282,-51,-2,-45,-3,0
20282,257,-8292,-231,-2,-47,-2,0
20287,283,-8298,-338,-2,-46,-2,0
20292,325,-8301,-382,-2,-43,-2,0
20297,383,-8299,-365,-2,-37,-2,0
20302,441,-8296,-302,-2,-29,-3,0
20307,485,-8293,-234,-2,-20,-3,0
20312,504,-8290,-167,-1,-10,-3,0
20317,503,-8289,-115,-1,0,-3,0
20322,494,-8287,-99,0,8,-3,0
20327,476,-8291,-118,0,12,-3,0
20332,464,-8295,-147,0,14,-3,0
20337,460,-8293,-177,0,14,-3,0
20342,461,-8291,-181,-1,14,-3,0
20347,463,-8291,-160,-1,14,-3,0
20352,467,-8289,-111,-1,14,-3,0
20357,462,-8286,-52,0,16,-3,0
20362,457,-8287,10,0,18,-3,0
20367,446,-8285,75,0,21,-3,0
20372,417,-8284,136,0,22,-3,0
20377,377,-8284,188,0,23,-3,0
20382,344,-8282,236,0,23,-3,0
20387,325,-8281,282,0,21,-3,0
20392,326,-8281,318,0,18,-3,0
20397,341,-8280,350,0,15,-3,0
20402,360,-8280,379,0,13,-3,0
20407,374,-8282,407,0,12,-3,0
20412,387,-8281,428,0,11,-3,0
20417,397,-8282,437,0,11,-3,0
20422,412,-8283,431,0,11,-3,0
20427,430,-8285,416,0,11,-3,0
20432,447,-8285,398,-1,10,-3,0
20437,467,-8285,380,-1,8,-2,0
20442,496,-8282,372,-1,7,-2,0
20447,529,-8284,369,-1,5,-2,0
20452,556,-8286,360,-1,5,-2,0
20457,561,-8288,347,0,6,-2,0
20462,540,-8289,333,0,8,-3,0
20467,495,-8289,321,0,12,-3,0
20472,435,-8286,316,-1,16,-3,0
20477,377,-8285,320,-1,20,-3,0
20482,340,-8288,331,-1,23,-3,0
20487,327,-8289,352,-1,26,-3,0
20492,336,-8290,385,-1,27,-3,0
20497,365,-8288,415,-1,26,-2,0
20502,399,-8285,447,-1,25,-2,0
20507,445,-8285,473,-1,24,-3,0
20512,495,-8285,487,-1,22,-3,0
20517,528,-8284,484,-1,19,-3,0
20522,536,-8284,471,-1,17,-3,0
20527,521,-8287,449,-1,15,-3,0
20532,498,-8286,428,-1,13,-2,0
20537,486,-8285,416,-1,13,-2,0
20542,485,-8288,409,-1,12,-2,0
20547,495,-8288,412,-1,12,-2,0
20552,511,-8285,423,-1,11,-2,0
20557,530,-8282,439,-1,10,-2,0
20562,554,-8281,457,-1,9,-2,0
20567,586,-8280,471,-1,7,-2,0
20572,616,-8280,481,-1,4,-2,0
20577,637,-8279,497,-1,1,-2,0
20582,640,-8281,508,-1,-3,-2,0
20587,631,-8284,518,-1,-6,-2,0
20592,615,-8287,521,-1,-7,-2,0
20597,598,-8287,518,-1,-7,-1,0
20602,581,-8285,513,-1,-7,-1,0
20607,557,-8285,511,-1,-6,-2,0
20612,524,-8286,504,-1,-6,-2,0
20617,479,-8290,503,-1,-5,-1,0
20622,428,-8291,503,-1,-4,-2,0
20627,381,-8291,500,-2,-3,-2,0
20632,331,-8290,507,-2,0,-2,0
20637,299,-8289,533,-2,2,-2,0
20642,278,-8289,563,-2,1,-2,0
20647,260,-8286,596,-2,-1,-2,0
20652,254,-8285,628,-2,-3,-2,0
20657,263,-8283,639,-2,-3,-2,0
20662,282,-8282,637,-2,-3,-2,0
20667,308,-8281,635,-2,-3,-2,0
20672,331,-8280,622,-2,-5,-2,0
20677,348,-8281,598,-2,-6,-2,0
20682,374,-8281,572,-2,-8,-2,0
20687,405,-8282,543,-2,-9,-2,0
20692,434,-8284,513,-2,-11,-2,0
20697,453,-8286,486,-2,-12,-2,0
20702,466,-8288,467,-2,-13,-2,0
20707,477,-8289,452,-2,-14,-2,0
20712,486,-8286,443,-2,-14,-2,0
20717,492,-8287,437,-2,-14,-2,0
20722,485,-8288,425,-2,-14,-2,0
20727,453,-8289,418,-2,-12,-2,0
20732,410,-8291,407,-2,-11,-2,0
20737,364,-8291,400,-2,-9,-2,0
20742,318,-8290,394,-3,-8,-2,0
20747,284,-8289,394,-3,-7,-2,0
20752,265,-8289,396,-3,-6,-2,0
20757,255,-8288,398,-3,-6,-2,0
20762,262,-8284,407,-3,-5,-2,0
20767,289,-8284,418,-3,-5,-2,0
20772,322,-8285,425,-3,-6,-2,0
20777,356,-8286,417,-3,-7,-2,0
20782,378,-8287,399,-3,-7,-3,0
20787,385,-8287,367,-2,-6,-3,0
20792,380,-8287,327,-2,-6,-3,0
20797,378,-8289,292,-2,-5,-3,0
20802,382,-8291,267,-3,-4,-3,0
20807,396,-8288,249,-3,-4,-2,0
20812,420,-8288,236,-3,-3,-2,0
20817,447,-8285,231,-3,-3,-2,0
20822,479,-8284,233,-2,-3,-2,0
20827,514,-8285,235,-2,-3,-2,0
20832,547,-8282,242,-2,-3,-2,0
20837,568,-8281,245,-2,-4,-2,0
20842,568,-8279,243,-2,-5,-2,0
20847,551,-8278,241,-2,-5,-2,0
20852,517,-8277,237,-2,-5,-2,0
20857,484,-8279,235,-2,-5,-2,0
20862,458,-8279,235,-2,-5,-2,0
20867,445,-8280,247,-2,-5,-2,0
20872,442,-8281,258,-2,-5,-2,0
20877,447,-8282,274,-2,-5,-2,0
20882,458,-8280,289,-2,-5,-2,0
20887,476,-8279,294,-2,-6,-2,0
20892,499,-8280,302,-2,-7,-2,0
20897,517,-8279,299,-2,-8,-2,0
20902,527,-8278,287,-2,-9,-2,0
20907,520,-8277,274,-2,-10,-2,0
20912,508,-8277,256,-2,-10,-2,0
20917,494,-8278,238,-2,-10,-2,0
20922,487,-8279,233,-2,-10,-2,0
20927,484,-8278,226,-2,-9,-2,0
20932,479,-8279,226,-2,-8,-2,0
20937,472,-8282,235,-2,-8,-2,0
20942,464,-8282,244,-2,-7,-2,0
20947,455,-8280,255,-2,-7,-2,0
20952,448,-8282,263,-2,-6,-2,0
20957,439,-8281,267,-2,-6,-2,0
20962,421,-8279,271,-2,-5,-2,0
20967,405,-8283,274,-2,-4,-2,0
20972,400,-8285,276,-2,-4,-2,0
20977,402,-8286,270,-2,-3,-2,0
20982,414,-8289,264,-2,-3,-2,0
20987,427,-8287,256,-2,-3,-2,0
20992,441,-8288,247,-2,-3,-2,0
20997,452,-8288,239,-2,-3,-2,0
21002,463,-8286,238,-2,-3,-2,0
21007,476,-8287,232,-2,-2,-2,0
21012,488,-8287,217,-2,-2,-2,0
21017,501,-8286,205,-2,-3,-2,0
21022,512,-8286,192,-2,-3,-2,0
21027,522,-8287,189,-2,-3,-2,0
21032,529,-8289,182,-2,-4,-2,0
21037,539,-8291,178,-2,-4,-2,0
21042,548,-8290,175,-2,-5,-2,0
21047,552,-8288,170,-2,-5,-2,0
21052,549,-8286,160,-2,-5,-2,0
21057,538,-8286,151,-1,-5,-2,0
21062,532,-8286,148,-1,-5,-2,0
21066,532,-8289,141,-2,-5,-2,0
21072,530,-8288,137,-1,-6,-2,0
21077,526,-8284,131,-1,-6,-2,0
21082,519,-8282,133,-1,-5,-2,0
21087,513,-8281,134,-1,-5,-2,0
21092,515,-8280,131,-1,-4,-2,0
21096,525,-8279,127,-1,-4,-2,0
21102,539,-8278,126,-1,-5,-2,0
21107,550,-8281,124,-1,-5,-2,0
21112,549,-8282,120,-1,-5,-2,0
21117,546,-8286,116,-1,-4,-2,0
21122,543,-8284,108,-1,-3,-2,0
21127,544,-8287,98,-1,-2,-2,0
21132,543,-8287,94,-1,-2,-2,0
21136,543,-8285,100,-1,-2,-2,0
21141,540,-8285,107,-1,-2,-2,0
21147,540,-8287,120,-1,-2,-2,0
21151,546,-8287,129,-1,-2,-2,0
21157,563,-8288,139,-1,-1,-2,0
21161,586,-8289,146,-1,-1,-2,0
21167,605,-8286,151,-1,-2,-2,0
21172,617,-8286,158,-1,-2,-2,0
21177,625,-8284,162,-1,-3,-2,0
21182,637,-8281,162,-1,-3,-2,0
21186,644,-8281,165,-1,-3,-2,0
21191,645,-8282,171,-1,-3,-2,0
21196,638,-8284,181,-1,-3,-2,0
21202,626,-8285,199,-1,-3,-2,0
21206,615,-8285,214,-1,-3,-2,0
21212,609,-8285,234,-1,-3,-2,0
21216,610,-8284,247,-1,-3,-2,0
21221,615,-8283,265,-1,-3,-2,0
21226,614,-8285,283,-1,-3,-2,0
21232,607,-8287,293,-1,-3,-2,0
21237,594,-8286,300,-1,-3,-2,0
21242,588,-8286,309,-1,-3,-2,0
21247,582,-8284,317,-1,-3,-2,0
21252,578,-8284,334,-1,-3,-2,0
21257,571,-8284,345,-1,-3,-2,0
21262,568,-8281,358,-1,-4,-2,0
21267,570,-8279,368,-1,-4,-2,0
21272,578,-8278,379,-1,-4,-2,0
21277,586,-8278,386,-1,-4,-2,0
21281,590,-8281,383,-1,-5,-1,0
21286,586,-8282,385,-1,-5,-2,0
21291,576,-8282,386,-1,-5,-1,0
21297,561,-8280,383,-1,-5,-2,0
21301,550,-8281,374,-1,-4,-2,0
21306,543,-8280,373,-1,-3,-2,0
21311,538,-8281,374,-1,-3,-1,0
21317,536,-8282,379,-1,-3,-1,0
21321,541,-8285,383,-1,-3,-1,0
21327,553,-8288,381,-1,-3,-1,0
21331,572,-8289,378,-1,-3,-1,0
21336,589,-8287,369,-1,-3,-1,0
21341,599,-8285,357,-1,-3,-1,0
21346,601,-8284,345,-1,-3,-1,0
21351,598,-8286,340,-1,-3,-1,0
21356,595,-8284,333,-1,-3,-1,0
21361,593,-8285,320,-1,-3,-1,0
21366,590,-8286,313,-1,-3,-1,0
21371,588,-8286,306,-1,-3,-1,0
21376,583,-8283,299,-1,-3,-1,0
21381,583,-8283,294,-1,-2,-1,0
21386,590,-8283,291,-1,-2,-1,0
21391,598,-8283,292,-1,-2,-1,0
21396,603,-8285,291,-1,-2,-1,0
21402,603,-8286,288,-1,-3,-1,0
21406,598,-8285,282,-1,-3,-1,0
21411,593,-8286,279,-1,-3,-1,0
21417,593,-8286,276,-1,-3,-1,0
21421,593,-8285,271,-1,-3,-1,0
21427,599,-8282,259,-1,-3,-1,0
21431,599,-8281,249,-1,-4,-1,0
21436,600,-8283,249,-1,-4,-1,0
21441,600,-8284,251,-1,-4,-1,0
21446,598,-8285,254,-1,-5,-1,0
21451,592,-8287,257,-1,-5,-1,0
21456,576,-8287,263,-1,-6,-1,0
21462,552,-8287,269,-1,-6,-1,0
21466,527,-8290,270,-1,-6,-1,0
21471,506,-8289,270,-1,-5,-1,0
21476,492,-8288,271,-1,-5,-1,0
21481,487,-8289,266,-1,-5,-1,0
21486,487,-8290,258,-1,-5,-1,0
21491,490,-8290,248,-1,-5,-1,0
21496,491,-8291,235,-1,-4,-1,0
21501,496,-8292,226,-1,-4,-1,0
21506,503,-8293,211,-1,-4,-1,0
21511,511,-8293,194,-1,-4,-1,0
21516,509,-8295,181,-1,-4,-1,0
21521,500,-8292,171,-1,-4,-1,0
21526,488,-8292,164,-1,-4,-1,0
21531,479,-8292,160,-1,-3,-1,0
21536,472,-8290,161,-1,-3,-1,0
21541,467,-8292,163,-1,-3,-1,0
21546,468,-8291,167,-1,-3,-1,0
21551,465,-8289,172,-1,-3,-1,0
21556,464,-8289,178,-1,-3,-1,0
21561,463,-8289,181,-1,-3,-1,0
21566,462,-8291,185,-1,-3,-1,0
21571,458,-8293,187,-1,-3,-1,0
21576,452,-8293,194,-1,-3,-1,0
21581,440,-8294,195,0,-2,-1,0
21586,430,-8293,198,0,-2,-2,0
21591,427,-8291,206,0,-2,-2,0
21596,431,-8290,210,0,-2,-1,0
21601,441,-8292,217,0,-1,-1,0
21606,453,-8294,227,0,-1,-2,0
21611,465,-8292,232,0,-1,-2,0
21616,473,-8292,236,0,-1,-2,0
21621,482,-8292,243,0,-1,-2,0
21626,495,-8289,249,0,-1,-2,0
21631,503,-8288,257,0,-1,-2,0
21636,510,-8288,262,0,-1,-2,0
21641,511,-8290,274,0,-1,-2,0
21646,512,-8292,287,0,-2,-2,0
21651,519,-8294,301,0,-2,-2,0
21656,529,-8294,316,-1,-2,-1,0
21661,541,-8295,327,-1,-2,-1,0
21666,551,-8292,338,-1,-2,-1,0
21671,557,-8293,342,-1,-2,-2,0
21676,567,-8295,346,-1,-2,-1,0
21681,572,-8296,357,-1,-2,-1,0
21686,577,-8298,361,-1,-2,-1,0
21691,577,-8297,365,-1,-2,-1,0
21696,573,-8297,369,-1,-2,-2,0
21701,565,-8297,371,-1,-2,-1,0
21706,559,-8296,376,-1,-2,-1,0
21711,556,-8296,384,-1,-2,-1,0
21716,555,-8290,396,-1,-2,-1,0
21721,557,-8290,403,-1,-2,-1,0
21726,554,-8290,413,-1,-2,-1,0
21731,553,-8289,418,-1,-2,-1,0
21736,552,-8287,427,-1,-2,-1,0
21741,554,-8282,431,-1,-3,-1,0
21746,559,-8280,426,-1,-3,-1,0
21751,556,-8281,428,-1,-3,-1,0
21756,554,-8282,426,-1,-3,-1,0
21761,549,-8282,430,-1,-3,-1,0
21766,544,-8284,430,-1,-3,-1,0
21771,542,-8284,422,-1,-3,-1,0
21776,543,-8282,411,-1,-3,-1,0
21781,541,-8280,398,-1,-3,-1,0
21786,537,-8280,388,-1,-4,-1,0
21791,537,-8279,377,-1,-4,-1,0
21796,541,-8281,366,-1,-4,-1,0
21801,545,-8283,359,-1,-3,-1,0
21806,548,-8285,353,-1,-3,-1,0
21811,547,-8284,345,-1,-3,-1,0
21816,539,-8284,339,-1,-3,-1,0
21821,529,-8285,333,-1,-3,-1,0
21826,518,-8286,328,-1,-3,-1,0
21831,513,-8287,320,-1,-3,-1,0
21836,510,-8287,319,-1,-3,-1,0
21841,507,-8288,322,-1,-3,-1,0
21846,510,-8290,326,-1,-3,-1,0
21851,514,-8291,324,-1,-4,-1,0
21856,521,-8290,325,-1,-4,-1,0
21861,519,-8291,326,-1,-4,-1,0
21866,516,-8290,325,-1,-4,-1,0
21871,511,-8286,323,-1,-4,-1,0
21876,502,-8287,318,-1,-4,-1,0
21881,496,-8288,313,-1,-4,-1,0
21886,490,-8289,305,-1,-4,-1,0
21891,485,-8290,303,-1,-3,-1,0
21896,484,-8290,296,-1,-3,-1,0
21901,484,-8287,290,-1,-2,-1,0
21906,484,-8292,284,-1,-2,-2,0
21911,485,-8292,274,-1,-2,-2,0
21916,488,-8294,267,-1,-2,-2,0
21921,493,-8294,263,-1,-2,-2,0
21926,497,-8295,259,-1,-1,-2,0
21931,498,-8292,261,-1,-1,-2,0
21936,495,-8290,266,-1,-1,-2,0
21941,494,-8290,276,-1,-1,-2,0
21946,497,-8293,283,-1,-1,-2,0
21951,503,-8291,289,-1,-1,-2,0
21956,512,-8290,294,-1,-1,-2,0
21961,523,-8290,295,-1,-2,-2,0
21966,533,-8289,297,-1,-2,-1,0
21971,539,-8289,297,-1,-2,-2,0
21976,546,-8286,297,-1,-2,-2,0
21981,549,-8286,298,-1,-2,-2,0
21986,548,-8288,300,-1,-2,-2,0
21991,541,-8290,303,-1,-2,-2,0
21996,537,-8291,305,-1,-2,-2,0
22001,534,-8294,310,-1,-2,-2,0
22006,535,-8298,311,-1,-2,-2,0
22011,539,-8298,314,-1,-2,-1,0
22016,544,-8297,321,-1,-2,-2,0
22021,549,-8291,327,-1,-2,-2,0
22026,555,-8288,327,-1,-2,-1,0
22031,563,-8288,327,-1,-2,-1,0
22036,564,-8289,324,-1,-2,-1,0
22041,565,-8288,324,-1,-2,-2,0
22046,565,-8288,317,-1,-2,-2,0
22051,562,-8288,313,-1,-2,-2,0
22056,559,-8288,310,-1,-2,-1,0
22061,560,-8288,306,-1,-2,-1,0
22066,564,-8287,306,-1,-2,-1,0
22071,567,-8288,308,-1,-2,-1,0
22076,566,-8289,308,-1,-2,-1,0
22081,563,-8290,305,-1,-2,-1,0
22086,561,-8290,310,-1,-2,-1,0
22091,559,-8291,310,-1,-2,-1,0
22096,556,-8290,309,-1,-2,-1,0
22101,553,-8292,309,-1,-2,-1,0
22106,548,-8291,303,-1,-2,-1,0
22111,545,-8287,300,-1,-2,-1,0
22116,543,-8284,300,-1,-2,-1,0
22121,540,-8285,297,-1,-2,-1,0
22126,539,-8290,299,-1,-2,-1,0
22131,536,-8291,303,-1,-2,-1,0
22136,532,-8288,307,-1,-2,-1,0
22141,526,-8285,309,-1,-2,-1,0
22146,525,-8284,313,-1,-2,-1,0
22151,533,-8282,311,-1,-2,-1,0
22156,542,-8283,310,-1,-2,-1,0
22161,552,-8281,307,-1,-2,-1,0
22166,565,-8282,305,-1,-2,-1,0
22171,569,-8281,300,-1,-2,-1,0
22176,567,-8280,303,-1,-2,-1,0
22181,564,-8279,311,-1,-2,-1,0
22186,559,-8278,325,-1,-2,-1,0
22191,547,-8277,337,-1,-2,-1,0
22196,539,-8275,348,-1,-2,-1,0
22201,535,-8278,355,-1,-2,-1,0
22206,535,-8279,358,-1,-2,-1,0
22211,541,-8280,356,-1,-2,-1,0
22216,546,-8281,354,-1,-2,-1,0
22221,552,-8279,354,-1,-2,-1,0
22226,552,-8276,355,-1,-2,-1,0
22231,551,-8277,353,-1,-2,-1,0
22236,555,-8279,358,-1,-2,-1,0
22241,557,-8279,359,-1,-2,-1,0
22246,558,-8278,357,-1,-2,-1,0
22251,559,-8280,359,-1,-2,-1,0
22256,560,-8279,354,-1,-2,-1,0
22261,566,-8280,353,-1,-2,-1,0
22266,575,-8280,352,-1,-2,-1,0
22271,586,-8278,353,-1,-2,-1,0
22276,596,-8277,345,-1,-2,-1,0
22281,600,-8280,337,-1,-2,-1,0
22286,601,-8282,335,-1,-2,-1,0
22291,599,-8284,330,-1,-2,-1,0
22296,594,-8282,329,-1,-2,-1,0
22301,588,-8283,334,-1,-2,-1,0
22306,579,-8283,339,-1,-2,-1,0
22311,568,-8279,346,-1,-2,-1,0
22316,555,-8277,354,-1,-2,-1,0
22321,547,-8279,354,-1,-2,-1,0
22326,545,-8281,350,-1,-2,-1,0
22331,548,-8280,348,-1,-2,-1,0
22336,559,-8279,342,-1,-2,-1,0
22341,566,-8280,337,-1,-2,-1,0
22346,575,-8281,327,-1,-2,-1,0
22351,582,-8280,321,-1,-2,-1,0
22356,586,-8281,321,-1,-2,-1,0
22361,584,-8282,321,-1,-2,-1,0
22366,577,-8281,320,-1,-2,-1,0
22371,564,-8281,322,-1,-2,-1,0
22376,549,-8281,329,-1,-2,-1,0
22381,537,-8283,338,-1,-2,-1,0
22386,524,-8283,343,-1,-2,-1,0
22391,518,-8284,348,-1,-2,-1,0
22396,517,-8283,353,-1,-2,-1,0
22401,513,-8283,354,-1,-2,-1,0
22406,511,-8282,359,-1,-2,-1,0
22411,513,-8284,362,-1,-2,-1,0
22416,510,-8286,359,-1,-2,-1,0
22421,504,-8285,357,-1,-2,-1,0
22426,495,-8284,350,-1,-2,-1,0
22431,486,-8283,351,-1,-2,-1,0
22436,477,-8280,355,-1,-2,-1,0
22441,472,-8278,354,-1,-2,-1,0
22446,474,-8273,354,-1,-2,-1,0
22451,479,-8277,351,-1,-2,-1,0
22456,491,-8279,353,-1,-2,-1,0
22461,502,-8279,354,-1,-2,-1,0
22466,512,-8279,352,-1,-2,-1,0
22471,520,-8284,352,-1,-2,-1,0
22476,527,-8283,352,-1,-2,-1,0
22481,528,-8282,349,-1,-2,-1,0
22486,525,-8281,346,-1,-3,-1,0
22491,517,-8280,345,-1,-3,-1,0
22496,511,-8282,347,-1,-3,-1,0
22501,507,-8278,351,-1,-2,-1,0
22506,506,-8275,350,-1,-3,-1,0
22511,506,-8275,350,-1,-3,-1,0
22516,504,-8276,351,-1,-3,-1,0
22521,504,-8275,353,-1,-2,-1,0
22526,506,-8277,353,-1,-2,-1,0
22531,508,-8279,353,-1,-2,-1,0
22536,510,-8278,347,-1,-2,-1,0
22541,507,-8277,340,-1,-2,-1,0
22546,500,-8278,335,-1,-2,-1,0
22551,492,-8278,334,-1,-2,-1,0
22556,493,-8280,338,-1,-2,-1,0
22561,497,-8279,341,-1,-2,-1,0
22566,510,-8281,340,-1,-2,-1,0
22571,524,-8282,341,-1,-2,-1,0
22576,536,-8285,335,-1,-2,-1,0
22581,548,-8286,326,-1,-2,-1,0
22586,558,-8287,318,-1,-2,-1,0
22591,561,-8287,312,-1,-2,-1,0
22596,561,-8286,306,-1,-2,-1,0
22601,557,-8285,302,-1,-2,-1,0
22606,550,-8284,306,-1,-2,-1,0
22611,543,-8284,316,-1,-2,-1,0
22616,542,-8285,324,-1,-2,-1,0
22621,543,-8287,329,-1,-2,-1,0
22626,547,-8287,327,-1,-2,-1,0
22631,546,-8284,331,-1,-2,-1,0
22636,542,-8282,332,-1,-2,-1,0
22641,538,-8281,331,-1,-2,-1,0
22646,537,-8283,329,-1,-2,-1,0
22651,534,-8287,332,-1,-2,-1,0
22656,532,-8288,333,-1,-2,-1,0
22661,529,-8289,336,-1,-2,-1,0
22666,525,-8289,339,-1,-2,-1,0
22671,522,-8289,343,-1,-2,-1,0
22676,521,-8287,348,-1,-2,-1,0
22681,517,-8285,349,-1,-2,-1,0
22686,518,-8284,348,-1,-2,-1,0
22691,518,-8282,349,-1,-2,-1,0
22696,516,-8285,346,-1,-2,-1,0
22701,515,-8287,346,-1,-2,-1,0
22706,517,-8286,342,-1,-2,-1,0
22711,515,-8285,343,-1,-2,-1,0
22716,514,-8282,347,-1,-2,-1,0
22721,512,-8280,348,-1,-2,-1,0
22726,505,-8282,347,-1,-2,-1,0
22731,504,-8284,346,-1,-2,-1,0
22736,502,-8284,342,-1,-2,-1,0
22741,504,-8282,334,-1,-2,-1,0
22746,503,-8282,330,-1,-2,-1,0
22751,502,-8279,327,-1,-2,-1,0
22756,503,-8282,324,-1,-2,-1,0
22761,503,-8281,324,-1,-2,-1,0
22766,499,-8281,324,-1,-2,-1,0
22771,498,-8279,326,-1,-2,-1,0
22776,495,-8280,331,-1,-2,-1,0
22781,489,-8281,338,-1,-2,-1,0
22786,481,-8281,346,-1,-2,-1,0
22791,474,-8279,347,-1,-2,-2,0
22796,474,-8280,345,-1,-2,-1,0
22801,475,-8280,343,-1,-2,-2,0
22806,477,-8284,337,-1,-2,-2,0
22811,480,-8286,328,-1,-2,-1,0
22816,485,-8287,325,-1,-2,-2,0
22821,491,-8286,323,-1,-1,-2,0
22826,499,-8285,323,-1,-2,-1,0
22831,506,-8284,321,-1,-2,-1,0
22836,515,-8283,317,-1,-2,-1,0
22841,519,-8284,314,-1,-2,-1,0
22846,523,-8285,312,-1,-2,-1,0
22851,530,-8285,311,-1,-2,-1,0
22856,533,-8284,312,-1,-2,-1,0
22861,536,-8285,314,-1,-2,-1,0
22866,534,-8287,317,-1,-2,-1,0
22871,534,-8287,322,-1,-2,-1,0
22876,530,-8288,324,-1,-2,-1,0
22881,529,-8288,330,-1,-2,-1,0
22886,530,-8287,336,-1,-2,-1,0
22891,529,-8285,344,-1,-2,-1,0
22896,532,-8286,348,-1,-2,-1,0
22901,532,-8284,356,-1,-2,-1,0
22906,528,-8283,357,-1,-2,-1,0
22911,529,-8285,355,-1,-2,-1,0
22916,535,-8287,352,-1,-2,-1,0
22921,540,-8285,349,-1,-2,-1,0
22926,546,-8285,350,-1,-2,-1,0
22931,552,-8283,345,-1,-2,-1,0
22936,556,-8282,339,-1,-2,-1,0
22941,558,-8282,336,-1,-2,-1,0
22946,562,-8287,339,-1,-2,-1,0
22951,562,-8287,341,-1,-2,-1,0
22956,557,-8287,347,-1,-2,-1,0
22961,552,-8286,353,-1,-2,-1,0
22966,550,-8285,359,-1,-2,-1,0
22971,548,-8284,360,-1,-2,-1,0
22976,544,-8284,365,-1,-2,-1,0
22981,540,-8283,368,-1,-2,-1,0
22986,536,-8280,370,-1,-2,-1,0
22991,532,-8281,370,-1,-2,-1,0
22996,529,-8283,368,-1,-2,-1,0
23001,524,-8285,361,-1,-2,-1,0
23006,518,-8283,358,-1,-2,-1,0
23011,512,-8286,355,-1,-2,-1,0
23016,509,-8287,353,-1,-2,-1,0
23021,508,-8289,351,-1,-2,-1,0
23026,515,-8291,347,-1,-2,-1,0
23031,522,-8291,343,-1,-2,-1,0
23036,529,-8288,336,-1,-2,-1,0
23041,534,-8287,334,-1,-2,-1,0
23046,534,-8286,328,-1,-2,-1,0
23051,529,-8286,325,-1,-2,-1,0
23056,524,-8288,324,-1,-2,-1,0
23061,518,-8288,322,-1,-2,-1,0
23066,511,-8285,322,-1,-2,-1,0
23071,507,-8283,316,-1,-2,-1,0
23076,503,-8283,313,-1,-2,-1,0
23081,502,-8283,304,-1,-2,-1,0
23086,504,-8282,295,-1,-2,-1,0
23091,505,-8282,283,-1,-2,-1,0
23096,497,-8283,272,-1,-2,-1,0
23101,485,-8287,266,-1,-2,-2,0
23106,468,-8290,263,-1,-2,-2,0
23111,449,-8290,260,-1,-2,-2,0
23116,435,-8290,262,-1,-2,-2,0
23121,424,-8291,260,-1,-2,-2,0
23126,415,-8288,263,-1,-2,-2,0
23131,408,-8287,266,-1,-2,-2,0
23136,405,-8288,272,-1,-2,-2,0
23141,406,-8290,275,-1,-2,-2,0
23146,410,-8290,276,-1,-2,-2,0
23151,417,-8290,273,-1,-2,-2,0
23156,422,-8291,271,-1,-2,-2,0
23161,434,-8292,267,-1,-2,-2,0
23166,451,-8292,262,-1,-2,-2,0
23171,474,-8295,259,-1,-2,-2,0
23176,498,-8296,251,-1,-2,-2,0
23181,521,-8296,238,-1,-2,-2,0
23186,541,-8296,226,-1,-2,-2,0
23191,556,-8297,217,-1,-2,-2,1
23196,567,-8294,211,-1,-2,-2,1
23201,576,-8295,209,0,-2,-2,1
23206,584,-8292,212,0,-2,-2,1
23211,590,-8291,216,0,-2,-2,1
23216,597,-8291,215,0,-2,-2,1
23221,600,-8289,222,0,-2,-2,1
23226,602,-8291,228,0,-2,-2,1
23231,602,-8290,237,0,-2,-2,1
23236,601,-8284,247,0,-2,-2,1
23241,597,-8281,261,0,-2,-2,1
23246,588,-8283,272,0,-2,-2,1
23251,573,-8281,280,0,-2,-2,1
23256,556,-8278,286,0,-2,-2,1
23261,545,-8279,292,0,-2,-2,1
23266,538,-8280,294,0,-2,-2,1
23271,537,-8283,295,0,-2,-2,1
23276,543,-8282,289,0,-2,-2,1
23281,547,-8282,287,0,-2,-2,1
23286,549,-8284,283,0,-2,-2,1
23291,551,-8283,277,0,-2,-2,1
23296,547,-8283,273,0,-2,-2,1
23301,539,-8284,268,0,-2,-2,1
23306,527,-8285,272,0,-2,-2,1
23311,513,-8287,268,0,-2,-2,1
23316,496,-8287,271,0,-2,-2,1
23321,480,-8289,278,0,-2,-2,1
23326,465,-8287,282,0,-2,-2,1
23331,452,-8285,283,0,-2,-2,1
23336,441,-8286,283,0,-2,-2,1
23341,432,-8286,286,0,-2,-2,1
23346,424,-8286,289,0,-2,-2,1
23351,422,-8282,290,0,-2,-2,1
23356,421,-8283,292,0,-2,-2,1
23361,420,-8285,295,0,-2,-2,1
23366,420,-8285,301,0,-2,-2,1
23371,418,-8285,317,0,-2,-2,1
23376,420,-8287,325,0,-2,-2,1
23381,425,-8287,336,0,-2,-2,1
23386,429,-8288,346,0,-2,-2,1
23391,434,-8290,350,0,-2,-2,1
23396,435,-8288,353,0,-2,-2,1
23401,439,-8287,358,0,-3,-2,1
23406,443,-8287,362,0,-3,-2,1
23411,447,-8288,364,0,-3,-2,1
23416,453,-8286,368,0,-3,-2,1
23421,454,-8284,377,0,-3,-3,1
23426,453,-8285,388,0,-3,-3,1
23431,450,-8284,401,0,-3,-3,1
23436,444,-8283,401,0,-3,-3,1
23441,439,-8284,409,0,-3,-3,1
23446,440,-8284,418,0,-2,-3,1
23451,444,-8281,423,0,-3,-3,1
23456,448,-8281,431,0,-3,-3,1
23461,456,-8281,443,0,-3,-3,1
23466,463,-8281,453,0,-4,-3,1
23471,472,-8284,464,0,-4,-3,1
23476,477,-8285,476,0,-4,-3,1
23481,477,-8286,484,0,-4,-3,1
23486,472,-8282,488,0,-4,-3,1
23491,466,-8281,488,0,-4,-3,1
23496,462,-8281,489,0,-5,-3,1
23501,460,-8281,482,0,-5,-3,1
23506,463,-8281,479,0,-5,-3,1
23511,470,-8283,480,0,-6,-3,1
23516,479,-8284,480,0,-7,-3,1
23521,487,-8284,483,0,-7,-3,1
23526,493,-8284,492,0,-7,-3,1
23531,501,-8285,497,0,-7,-3,1
23536,505,-8285,498,0,-7,-3,1
23541,506,-8282,495,0,-7,-3,1
23546,502,-8282,488,0,-6,-3,1
23551,499,-8283,480,0,-6,-3,1
23556,496,-8282,475,0,-5,-3,1
23561,496,-8284,467,0,-5,-3,1
23566,500,-8287,456,0,-3,-3,1
23571,507,-8286,449,0,-2,-3,1
23576,520,-8286,441,0,-2,-3,1
23581,533,-8287,435,0,-1,-3,1
23586,549,-8287,435,0,-1,-3,1
23591,565,-8284,433,0,-1,-3,1
23596,580,-8282,432,0,0,-3,1
23601,590,-8284,435,0,0,-3,1
23606,601,-8286,441,0,-1,-3,1
23611,613,-8286,450,0,-1,-3,1
23616,629,-8284,461,0,-1,-3,1
23621,644,-8279,460,0,-2,-3,1
23626,658,-8277,456,0,-2,-3,1
23631,670,-8277,451,0,-2,-3,1
23636,675,-8277,440,0,-2,-3,1
23641,679,-8276,432,0,-2,-3,1
23646,685,-8276,420,0,-2,-3,1
23651,687,-8276,412,0,-1,-3,1
23656,685,-8277,406,0,-1,-3,1
23661,682,-8277,412,0,-1,-3,1
23666,681,-8277,427,0,-1,-3,1
23671,687,-8278,441,0,0,-3,1
23676,696,-8278,453,0,0,-3,1
23681,708,-8278,464,0,0,-3,1
23686,719,-8275,474,0,0,-3,1
23691,730,-8276,479,0,0,-3,1
23696,745,-8278,473,0,0,-3,1
23701,755,-8281,473,0,0,-3,1
23706,769,-8280,471,0,0,-3,1
23711,779,-8281,470,0,0,-3,1
23716,783,-8280,471,0,0,-3,1
23721,788,-8281,483,0,0,-3,1
23726,790,-8282,494,0,0,-3,1
23731,791,-8284,512,0,0,-3,1
23736,788,-8287,527,0,0,-3,1
23741,784,-8286,547,0,0,-2,1
23746,784,-8286,558,0,0,-2,1
23751,781,-8283,566,0,0,-2,1
23756,784,-8281,568,0,-1,-2,1
23761,791,-8280,565,0,0,-2,1
23766,799,-8280,564,0,0,-2,1
23771,811,-8277,565,0,0,-2,1
23776,816,-8276,570,0,0,-2,1
23781,819,-8271,582,0,0,-2,1
23786,830,-8271,578,0,0,-2,1
23791,830,-8268,587,0,1,-2,1
23796,829,-8266,593,0,0,-2,1
23801,837,-8265,591,0,0,-2,1
23806,833,-8268,594,0,0,-2,1
23811,831,-8270,587,-1,0,-2,1
23816,831,-8269,586,-1,0,-2,1
23821,817,-8269,590,-1,0,-2,1
23826,798,-8273,588,-1,0,-2,1
23831,776,-8273,591,-1,1,-2,1
23836,756,-8275,588,-1,1,-2,1
23841,731,-8276,593,-1,1,-2,1
23846,719,-8276,592,-1,1,-2,1
23851,712,-8278,585,-1,1,-2,1
23856,701,-8277,583,-1,1,-2,1
23861,692,-8275,572,-1,1,-2,1
23866,684,-8277,563,-1,2,-2,1
23871,679,-8276,556,-1,2,-2,1
23876,671,-8279,542,-1,1,-2,1
23881,661,-8281,532,-1,0,-2,1
23886,649,-8283,528,-1,-1,-2,1
23891,633,-8284,524,-1,-1,-2,1
23896,624,-8281,509,-1,-1,-2,1
23901,621,-8282,494,-1,-2,-2,1
23906,614,-8281,473,-1,-3,-2,1
23911,610,-8280,437,0,-3,-2,1
23916,602,-8278,410,0,-3,-2,1
23921,585,-8279,383,0,-3,-2,1
23926,565,-8280,347,0,-3,-2,1
23931,542,-8283,321,0,-3,-2,1
23936,514,-8284,296,0,-2,-2,1
23941,488,-8286,275,0,-2,-2,1
23946,474,-8284,263,0,-1,-2,1
23951,465,-8283,259,0,-1,-2,1
23956,466,-8286,247,0,-1,-2,1
23961,477,-8282,231,0,-1,-2,1
23966,489,-8280,221,1,-1,-2,1
23971,515,-8278,207,1,1,-2,1
23976,559,-8278,188,1,4,-2,1
23981,628,-8276,177,1,7,-2,1
23986,735,-8275,171,2,12,-1,1
23991,896,-8272,156,2,21,0,1
23996,1136,-8270,136,2,32,2,1
24001,1514,-8280,114,2,44,4,1
24006,2091,-8290,141,2,57,5,1
24011,2553,-8284,331,1,68,5,1
24016,2956,-8259,566,0,72,2,1
24021,4538,-8257,846,-1,82,6,1
24026,6207,-8237,1314,-2,107,15,1
24031,7078,-8188,1844,-4,97,21,1
24036,8407,-8150,2415,-5,72,22,1
24041,9546,-8097,3068,-6,80,22,1
24046,10522,-8036,3640,-7,66,24,1
24051,11359,-7980,4235,-8,37,26,1
24056,11738,-7938,4669,-9,15,31,1
24061,11823,-7871,4896,-10,-11,37,1
24066,11887,-7773,5010,-12,-23,43,1
24071,11836,-7679,5108,-14,-37,49,1
24076,12001,-7570,5233,-17,-55,54,1
24081,12203,-7444,5447,-19,-68,58,1
24086,12441,-7297,5778,-21,-84,61,1
24091,12779,-7121,6136,-22,-99,63,1
24096,12954,-6925,6471,-22,-117,67,1
24101,12677,-6701,6890,-23,-140,71,1
24106,11591,-6515,6939,-23,-174,65,1
24111,10537,-6322,6972,-22,-202,60,1
24116,9108,-6155,6868,-21,-214,60,1
24121,7683,-5930,6529,-20,-231,61,1
24126,4968,-5782,6570,-18,-243,66,1
24131,1919,-5741,6451,-16,-261,73,1
24136,-438,-5723,5840,-15,-254,77,1
24141,-2491,-5776,5227,-13,-230,82,1
24146,-3484,-5850,4458,-11,-208,81,1
24151,-3767,-5928,3407,-11,-173,77,1
24156,-3859,-6014,2419,-10,-150,70,1
24161,-3916,-6098,1591,-9,-134,62,1
24166,-4445,-6175,832,-9,-130,57,1
24171,-5521,-6255,396,-8,-140,53,1
24176,-7007,-6350,241,-7,-137,51,1
24181,-8346,-6454,195,-5,-125,50,1
24186,-9494,-6570,198,-2,-106,49,1
24191,-10478,-6698,196,0,-83,48,1
24196,-10938,-6833,33,2,-66,45,1
24201,-10981,-6971,-287,3,-53,42,1
24206,-10748,-7103,-611,3,-44,37,1
24211,-10385,-7223,-885,2,-35,32,1
24216,-10153,-7329,-990,1,-30,27,1
24221,-10158,-7414,-807,0,-27,23,1
24226,-10370,-7485,-407,-1,-24,20,1
24231,-10685,-7548,145,-1,-19,19,1
24236,-10894,-7601,737,0,-13,18,1
24241,-10809,-7650,1223,1,-8,18,1
24246,-10390,-7697,1548,1,-4,17,1
24251,-9662,-7746,1644,2,-6,16,1
24256,-8757,-7791,1518,2,-11,13,1
24261,-7930,-7841,1302,1,-17,10,1
24266,-7240,-7880,1074,0,-22,7,1
24271,-6835,-7912,905,-1,-25,5,1
24276,-6754,-7937,891,-2,-28,3,1
24281,-6818,-7949,953,-2,-28,2,1
24286,-6956,-7960,1065,-2,-25,3,1
24291,-6964,-7966,1222,-1,-22,4,1
24296,-6695,-7970,1251,-1,-17,4,1
24301,-6207,-7982,1195,0,-14,4,1
24306,-5502,-7994,1072,0,-12,2,1
24311,-4767,-8006,836,0,-12,1,1
24316,-4177,-8022,631,0,-16,-1,1
24321,-3777,-8029,458,-1,-19,-3,1
24326,-3661,-8032,335,-1,-21,-4,1
24331,-3782,-8038,356,-1,-20,-4,1
24336,-3999,-8036,413,-1,-15,-5,1
24341,-4230,-8033,480,0,-9,-4,1
24346,-4361,-8033,538,1,-2,-4,1
24351,-4289,-8033,480,1,5,-4,1
24356,-4028,-8036,371,2,10,-4,1
24361,-3642,-8046,238,2,14,-5,1
24366,-3198,-8050,78,2,16,-6,1
24371,-2829,-8052,-8,1,16,-7,1
24376,-2570,-8050,-10,1,15,-8,1
24381,-2409,-8042,47,1,13,-8,1
24386,-2386,-8040,200,1,13,-8,1
24391,-2378,-8033,373,1,12,-7,1
24396,-2347,-8025,523,2,13,-7,1
24401,-2299,-8021,675,2,14,-6,1
24406,-2148,-8019,740,2,16,-6,1
24411,-1983,-8023,742,2,18,-6,1
24416,-1813,-8030,754,2,20,-7,1
24421,-1636,-8032,736,2,21,-7,1
24426,-1563,-8034,769,1,20,-8,1
24431,-1541,-8033,881,1,18,-8,1
24436,-1540,-8028,997,0,16,-7,1
24441,-1569,-8022,1155,0,14,-7,1
24446,-1540,-8019,1292,0,13,-6,1
24451,-1469,-8018,1355,0,11,-6,1
24456,-1393,-8021,1405,0,9,-6,1
24461,-1304,-8023,1380,0,8,-6,1
24466,-1236,-8027,1302,0,7,-6,1
24471,-1216,-8036,1244,0,6,-7,1
24476,-1217,-8040,1165,-1,5,-7,1
24481,-1256,-8043,1100,-1,3,-7,1
24486,-1330,-8048,1086,-1,2,-6,1
24491,-1371,-8049,1067,-1,1,-6,1
24496,-1399,-8046,1073,-1,-1,-6,1
24501,-1411,-8043,1076,-1,-2,-6,1
24506,-1384,-8044,1021,-1,-1,-6,1
24511,-1389,-8047,945,0,0,-6,1
24516,-1408,-8053,845,0,2,-7,1
24521,-1434,-8060,713,0,3,-7,1
24526,-1498,-8066,611,0,4,-7,1
24531,-1548,-8067,522,0,5,-7,1
24536,-1590,-8068,437,0,7,-7,1
24541,-1639,-8068,386,0,8,-7,1
24546,-1649,-8067,343,0,11,-7,1
24551,-1654,-8065,299,0,13,-7,1
24556,-1631,-8064,275,1,13,-7,1
24561,-1571,-8066,227,1,14,-7,1
24566,-1521,-8070,178,1,14,-7,1
24571,-1461,-8072,146,1,14,-7,1
24576,-1403,-8076,123,1,14,-7,1
24581,-1358,-8076,128,2,13,-7,1
24586,-1304,-8075,169,2,13,-7,1
24591,-1244,-8075,241,2,13,-7,1
24596,-1192,-8075,344,2,12,-7,1
24601,-1151,-8073,447,2,12,-7,1
24606,-1127,-8072,530,2,12,-7,1
24611,-1110,-8070,606,2,12,-7,1
24616,-1083,-8070,652,2,11,-7,1
24621,-1056,-8072,680,2,11,-6,1
24626,-1017,-8073,713,2,10,-6,1
24631,-963,-8073,733,2,8,-6,1
24636,-910,-8073,759,1,7,-6,1
24641,-832,-8074,792,1,6,-5,1
24646,-741,-8076,833,1,5,-5,1
24651,-665,-8075,884,1,3,-5,1
24656,-606,-8072,926,1,1,-5,1
24661,-597,-8069,956,1,0,-5,1
24666,-630,-8070,973,1,0,-5,1
24671,-664,-8073,971,1,1,-5,1
24676,-719,-8078,950,1,1,-5,1
24681,-773,-8081,932,1,1,-4,1
24686,-817,-8083,908,1,2,-4,1
24691,-865,-8088,894,1,4,-4,1
24696,-895,-8090,883,1,5,-4,1
24701,-913,-8097,861,1,7,-4,1
24706,-923,-8099,840,1,8,-4,1
24711,-909,-8098,816,1,9,-4,1
24716,-892,-8099,791,1,8,-4,1
24721,-873,-8102,772,1,7,-4,1
24726,-843,-8104,760,1,6,-4,1
24731,-814,-8104,747,1,5,-4,1
24736,-801,-8103,749,1,5,-4,1
24741,-809,-8105,748,1,5,-4,1
24746,-864,-8104,762,1,7,-4,1
24751,-948,-8103,783,1,8,-4,1
24756,-1038,-8103,796,1,8,-4,1
24761,-1131,-8102,809,1,8,-4,1
24766,-1190,-8102,824,1,8,-4,1
24771,-1203,-8104,825,1,8,-3,1
24776,-1192,-8107,830,1,8,-3,1
24781,-1148,-8107,830,0,8,-3,1
24786,-1091,-8103,824,1,7,-4,1
24790,-1049,-8103,817,1,7,-4,1
24796,-1014,-8102,797,1,5,-4,1
24801,-1023,-8103,771,1,5,-4,1
24806,-1071,-8108,756,1,4,-4,1
24811,-1127,-8107,730,1,4,-4,1
24816,-1186,-8108,705,1,3,-4,1
24821,-1218,-8108,690,1,3,-3,1
24826,-1216,-8107,677,1,4,-3,1
24831,-1210,-8109,682,1,4,-3,1
24836,-1202,-8110,699,1,5,-4,1
24841,-1205,-8110,712,1,5,-4,1
24846,-1226,-8109,738,1,6,-4,1
24851,-1257,-8108,754,1,7,-4,1
24856,-1295,-8107,756,1,7,-4,1
24860,-1341,-8108,750,1,8,-4,1
24866,-1371,-8108,736,1,9,-4,1
24871,-1377,-8110,723,1,10,-4,1
24876,-1353,-8112,730,1,11,-4,1
24880,-1290,-8114,749,0,10,-4,1
24886,-1221,-8115,771,0,9,-4,1
24891,-1168,-8115,806,0,8,-4,1
24896,-1132,-8114,838,1,7,-5,1
24901,-1122,-8115,855,1,7,-5,1
24906,-1126,-8114,857,1,6,-5,1
24911,-1130,-8113,838,1,6,-4,1
24916,-1132,-8113,811,1,6,-4,1
24921,-1125,-8115,793,0,6,-4,1
24926,-1103,-8112,770,0,7,-4,1
24931,-1056,-8114,760,0,7,-4,1
24936,-989,-8116,769,0,7,-4,1
24940,-920,-8117,778,0,6,-4,1
24946,-858,-8118,791,0,6,-4,1
24950,-812,-8118,803,0,5,-4,1
24956,-792,-8120,801,0,4,-4,1
24961,-795,-8119,789,0,3,-4,1
24966,-805,-8123,777,0,4,-4,1
24971,-818,-8125,759,0,4,-3,1
24976,-832,-8123,756,0,5,-3,1
24981,-848,-8123,761,0,6,-3,1
24986,-863,-8124,773,0,7,-3,1
24991,-865,-8119,784,0,7,-3,1
24995,-852,-8118,796,0,8,-3,1
25001,-826,-8117,798,0,8,-3,1
25006,-801,-8115,794,0,8,-3,1
25011,-784,-8117,782,0,7,-3,1
25016,-769,-8119,767,0,7,-3,1
25020,-763,-8121,752,0,6,-3,1
25026,-765,-8123,742,0,6,-3,1
25031,-776,-8123,751,0,5,-3,1
25036,-796,-8123,775,0,5,-2,1
25041,-831,-8120,810,0,5,-2,1
25046,-865,-8118,843,0,5,-2,1
25051,-899,-8115,872,0,5,-2,1
25056,-927,-8119,885,0,5,-2,1
25061,-945,-8124,883,0,5,-2,1
25066,-967,-8127,875,0,5,-2,1
25071,-989,-8127,858,0,5,-2,1
25076,-1007,-8128,845,0,5,-2,1
25081,-1018,-8128,836,0,5,-2,1
25086,-1022,-8127,828,0,5,-2,1
25090,-1020,-8126,832,0,6,-2,1
25096,-1019,-8126,837,0,6,-2,1
25101,-1013,-8127,853,0,5,-2,1
25106,-1007,-8128,869,0,5,-2,1
25111,-996,-8129,884,0,4,-2,1
25116,-985,-8129,888,0,4,-2,1
25121,-981,-8129,894,-1,4,-2,1
25126,-983,-8131,899,-1,3,-2,1
25131,-997,-8129,907,-1,2,-2,1
25135,-1015,-8128,925,-1,1,-2,1
25141,-1029,-8130,927,-1,1,-2,1
25145,-1027,-8127,914,-1,1,-2,1
25151,-1019,-8128,893,-1,1,-2,1
25156,-1009,-8131,867,-1,0,-2,1
25161,-996,-8134,837,-1,0,-2,1
25165,-972,-8133,808,-1,0,-2,1
25170,-939,-8134,787,-1,0,-2,1
25176,-911,-8135,777,-1,0,-2,1
25181,-889,-8136,785,-1,0,-2,1
25185,-888,-8134,809,-1,-1,-2,1
25191,-899,-8132,848,-1,-1,-2,0
25196,-913,-8130,888,-1,-2,-2,0
25201,-935,-8129,917,-1,-2,-2,0
25206,-967,-8127,933,-1,-2,-2,0
25211,-999,-8126,936,-1,-1,-2,0
25216,-1034,-8127,922,-1,-1,-2,0
25220,-1065,-8129,897,-1,-1,-2,0
25225,-1083,-8129,871,-1,-1,-2,0
25230,-1085,-8131,846,-1,-1,-2,0
25236,-1079,-8132,826,-1,-1,-2,0
25241,-1065,-8131,818,-1,-1,-2,0
25245,-1056,-8131,815,-1,-1,-2,0
25251,-1047,-8130,817,-1,-1,-2,0
25255,-1039,-8130,818,-1,-2,-2,0
25261,-1038,-8131,821,-1,-2,-2,0
25266,-1041,-8132,823,-1,-2,-2,0
25271,-1064,-8134,819,-1,-2,-2,0
25276,-1098,-8137,812,-1,-2,-2,0
25281,-1128,-8138,803,-1,-1,-2,0
25286,-1154,-8139,797,-2,0,-2,0
25290,-1182,-8140,792,-2,1,-2,0
25296,-1199,-8140,792,-2,1,-2,0
25301,-1225,-8139,793,-2,2,-3,0
25305,-1244,-8138,786,-1,3,-3,0
25311,-1253,-8138,776,-1,3,-3,0
25316,-1256,-8139,759,-1,2,-3,0
25320,-1252,-8138,738,-1,3,-3,0
25326,-1244,-8136,724,-1,3,-3,0
25331,-1240,-8134,716,-1,3,-3,0
25335,-1226,-8134,711,-1,3,-3,0
25341,-1200,-8135,714,-1,3,-3,0
25345,-1170,-8135,726,-1,2,-3,0
25351,-1138,-8132,734,-1,2,-3,0
25355,-1110,-8131,737,-1,2,-3,0
25361,-1093,-8129,738,-1,2,-3,0
25365,-1083,-8129,730,-1,2,-3,0
25371,-1079,-8129,719,-1,2,-3,0
25376,-1076,-8131,702,-1,2,-3,0
25381,-1071,-8134,684,-1,1,-3,0
25386,-1071,-8137,671,-1,1,-3,0
25391,-1069,-8136,661,-1,1,-3,0
25395,-1065,-8135,648,-1,1,-3,0
25401,-1061,-8136,631,-1,1,-3,0
25405,-1054,-8135,612,-1,1,-3,0
25411,-1051,-8134,599,-1,1,-3,0
25415,-1054,-8136,597,-1,1,-3,0
25421,-1057,-8138,596,-1,0,-3,0
25425,-1059,-8140,596,-1,0,-3,0
25430,-1061,-8142,612,-1,0,-3,0
25435,-1061,-8139,640,-1,0,-3,0
25440,-1067,-8135,669,-1,0,-3,0
25445,-1086,-8134,697,-1,-1,-3,0
25451,-1112,-8134,720,-1,-1,-3,0
25456,-1140,-8134,733,-1,-2,-3,0
25460,-1169,-8135,735,-1,-2,-4,0
25466,-1202,-8137,730,-1,-1,-4,0
25470,-1237,-8135,725,-1,-1,-4,0
25475,-1270,-8136,720,-1,-1,-4,0
25480,-1292,-8135,728,-1,0,-4,0
25485,-1298,-8135,743,-1,0,-4,0
25490,-1290,-8138,755,-1,0,-4,0
25496,-1272,-8138,763,-1,0,-4,0
25500,-1251,-8143,753,-1,1,-4,0
25506,-1225,-8144,730,-1,2,-4,0
25511,-1185,-8142,698,-1,2,-4,0
25516,-1135,-8142,665,-1,2,-4,0
25520,-1079,-8144,626,-1,1,-4,0
25525,-1025,-8144,602,-1,0,-4,0
25531,-979,-8145,594,-1,0,-4,0
25535,-942,-8143,596,-1,0,-4,0
25541,-914,-8144,599,-1,0,-4,0
25545,-896,-8146,594,-1,0,-4,0
25550,-885,-8148,586,-1,0,-4,0
25556,-879,-8152,580,-1,0,-4,0
25560,-878,-8155,579,-1,-1,-4,0
25565,-877,-8155,581,-1,-1,-4,0
25570,-876,-8155,590,-1,-1,-4,0
25576,-872,-8155,607,-1,0,-4,0
25581,-864,-8156,635,-1,0,-4,0
25586,-864,-8157,667,-1,0,-4,0
25591,-873,-8157,701,-1,-1,-4,0
25596,-894,-8157,733,-1,-2,-4,0
25601,-918,-8158,757,-1,-2,-4,0
25606,-940,-8157,778,-1,-2,-4,0
25611,-957,-8158,792,-1,-2,-4,0
25615,-967,-8157,800,-1,-2,-4,0
25620,-974,-8154,801,-1,-2,-4,0
25625,-981,-8154,800,-1,-3,-4,0
25631,-984,-8154,793,-1,-3,-4,0
25635,-990,-8153,792,-1,-3,-4,0
25640,-990,-8151,783,-1,-3,-4,0
25645,-988,-8153,772,-1,-4,-4,0
25650,-994,-8155,761,-1,-4,-4,0
25656,-996,-8158,751,-1,-4,-4,0
25660,-994,-8159,742,-1,-4,-4,0
25666,-991,-8159,728,-1,-4,-4,0
25670,-982,-8158,722,-1,-2,-4,0
25676,-974,-8158,726,-1,-1,-4,0
25681,-962,-8156,729,-1,0,-4,0
25685,-941,-8157,735,-1,0,-4,0
25691,-909,-8158,727,-1,-1,-4,0
25696,-866,-8157,719,-1,-2,-4,0
25701,-821,-8158,710,-1,-2,-4,0
25705,-778,-8156,708,-1,-3,-4,0
25711,-748,-8155,712,-1,-3,-4,0
25716,-730,-8156,725,-1,-4,-4,0
25720,-723,-8156,743,-1,-4,-4,0
25725,-728,-8157,756,-1,-5,-4,0
25731,-737,-8158,774,-1,-5,-4,0
25735,-750,-8160,791,-1,-5,-4,0
25741,-761,-8164,800,-1,-5,-4,0
25745,-763,-8165,807,-1,-4,-4,0
25750,-755,-8162,812,-1,-4,-4,0
25755,-734,-8161,812,-1,-4,-4,0
25760,-712,-8161,814,-2,-4,-4,0
25766,-690,-8160,811,-2,-4,-4,0
25771,-667,-8159,814,-2,-5,-4,0
25775,-645,-8158,816,-2,-6,-4,0
25780,-625,-8157,803,-2,-6,-4,0
25785,-612,-8159,789,-2,-7,-3,0
25790,-610,-8163,775,-2,-7,-4,0
25795,-614,-8163,762,-2,-7,-3,0
25800,-625,-8167,748,-2,-7,-3,0
25805,-636,-8170,737,-2,-7,-3,0
25810,-642,-8174,722,-2,-6,-3,0
25815,-647,-8174,713,-2,-6,-3,0
25820,-649,-8175,711,-2,-6,-3,0
25825,-654,-8174,714,-2,-6,-3,0
25830,-657,-8175,720,-2,-6,-3,0
25835,-655,-8172,726,-2,-5,-3,0
25840,-651,-8173,732,-2,-5,-3,0
25845,-642,-8174,729,-2,-5,-3,0
25850,-639,-8176,725,-2,-4,-3,0
25855,-640,-8181,718,-2,-4,-3,0
25860,-643,-8182,712,-2,-5,-3,0
25865,-650,-8181,705,-2,-5,-3,0
25871,-656,-8180,698,-2,-5,-3,0
25875,-665,-8180,690,-2,-5,-3,0
25880,-676,-8177,686,-2,-5,-3,0
25885,-689,-8175,680,-2,-5,-3,0
25891,-696,-8176,672,-2,-5,-3,0
25895,-695,-8175,661,-2,-5,-3,0
25900,-689,-8173,656,-2,-5,-3,0
25905,-683,-8170,648,-2,-5,-3,0
25910,-685,-8173,641,-2,-5,-3,0
25915,-690,-8174,643,-2,-4,-3,0
25920,-694,-8175,643,-2,-4,-3,0
25926,-703,-8175,649,-2,-3,-3,0
25930,-719,-8176,663,-2,-2,-3,0
25935,-733,-8178,682,-2,0,-3,0
25940,-747,-8178,695,-1,0,-3,0
25946,-747,-8181,704,-1,1,-3,0
25950,-730,-8181,706,-1,1,-3,0
25955,-697,-8179,695,-1,1,-2,0
25961,-652,-8179,682,-1,1,-3,0
25965,-611,-8178,664,-1,1,-2,0
25970,-575,-8177,650,-1,0,-2,0
25976,-551,-8181,643,-1,0,-2,0
25980,-538,-8183,644,-1,0,-2,0
25985,-534,-8183,649,-1,-1,-2,0
25991,-532,-8181,657,-1,-1,-2,0
25995,-535,-8178,664,-1,-2,-2,0
26000,-536,-8179,675,-1,-3,-2,0
26005,-531,-8178,681,-1,-3,-2,0
26010,-520,-8178,678,-1,-2,-2,0
26015,-502,-8175,678,-1,-2,-2,0
26020,-491,-8175,678,-1,-2,-2,0
26025,-491,-8175,678,-1,-3,-2,0
26030,-496,-8173,683,-1,-4,-2,0
26035,-506,-8175,686,-1,-4,-1,0
26040,-511,-8174,690,-1,-5,-1,0
26045,-511,-8174,694,-1,-5,-1,0
26050,-513,-8175,699,-1,-6,-1,0
26055,-517,-8177,699,-1,-6,-1,0
26060,-528,-8177,699,-1,-6,-1,0
26065,-539,-8178,702,-1,-6,-1,0
26070,-552,-8179,699,-1,-6,-1,0
26075,-565,-8180,694,-1,-6,-1,0
26080,-581,-8179,685,-1,-7,-1,0
26085,-601,-8177,682,-1,-6,-1,0
26090,-620,-8176,685,-1,-6,-1,0
26095,-639,-8180,695,-1,-5,-1,0
26100,-662,-8182,710,-1,-5,-1,0
26105,-695,-8182,729,-1,-4,-1,0
26110,-735,-8180,756,-1,-4,-1,0
26115,-779,-8180,787,-1,-3,-1,0
26120,-825,-8183,813,-1,-3,-1,0
26125,-867,-8180,838,-1,-2,-1,0
26130,-892,-8180,847,-2,-2,-1,0
26135,-909,-8183,851,-2,-1,-1,0
26140,-916,-8185,855,-2,-1,-1,0
26145,-918,-8184,860,-2,-1,-2,0
26150,-919,-8184,866,-2,-1,-2,0
26155,-920,-8184,873,-2,-2,-2,0
26160,-925,-8183,892,-2,-2,-2,0
26165,-939,-8184,914,-2,-2,-2,0
26170,-967,-8183,933,-2,-2,-2,0
26175,-1001,-8182,951,-2,-1,-2,0
26180,-1034,-8180,967,-2,0,-2,0
26185,-1050,-8178,973,-2,0,-2,0
26190,-1052,-8181,978,-2,-1,-2,0
26195,-1049,-8183,980,-2,-1,-2,0
26200,-1040,-8183,977,-3,-1,-3,0
26205,-1030,-8183,971,-3,0,-3,0
26210,-1020,-8184,964,-3,0,-3,0
26215,-1018,-8184,961,-3,0,-3,0
26220,-1021,-8183,960,-3,0,-3,0
26225,-1029,-8186,954,-3,0,-3,0
26230,-1036,-8185,941,-3,0,-3,0
26235,-1036,-8186,925,-3,-1,-3,0
26240,-1023,-8188,906,-3,0,-3,0
26245,-995,-8187,884,-3,1,-3,0
26250,-955,-8185,862,-3,1,-3,0
26255,-912,-8187,843,-3,1,-3,0
26260,-869,-8189,831,-3,1,-3,0
26265,-828,-8187,822,-3,0,-3,0
26270,-784,-8185,817,-3,0,-3,0
26275,-746,-8187,812,-3,-1,-3,0
26280,-714,-8190,802,-3,-1,-3,0
26285,-685,-8188,790,-3,-2,-3,0
26290,-663,-8185,770,-3,-2,-3,0
26295,-644,-8187,749,-3,-2,-3,0
26300,-621,-8185,726,-3,-2,-3,0
26305,-598,-8188,706,-3,-2,-3,0
26310,-577,-8192,689,-3,-3,-3,0
26315,-566,-8194,672,-3,-3,-3,0
26320,-566,-8195,653,-3,-2,-3,0
26325,-577,-8194,637,-3,-1,-3,0
26330,-589,-8192,618,-3,0,-3,0
26335,-612,-8193,598,-3,0,-3,0
26340,-640,-8193,578,-3,0,-3,0
26345,-659,-8191,558,-3,0,-3,0
26350,-667,-8194,539,-3,0,-3,0
26355,-662,-8198,523,-3,0,-3,0
26360,-644,-8199,505,-3,0,-3,0
26365,-628,-8200,490,-3,0,-3,0
26370,-618,-8201,476,-3,0,-3,0
26375,-624,-8200,462,-3,0,-3,0
26380,-644,-8199,439,-3,-1,-3,0
26385,-673,-8200,419,-2,-2,-3,0
26390,-705,-8202,398,-2,-2,-3,0
26395,-742,-8203,376,-2,-3,-3,0
26400,-785,-8204,354,-2,-3,-3,0
26405,-831,-8204,329,-2,-2,-3,0
26410,-880,-8204,304,-2,-1,-3,0
26415,-930,-8205,282,-2,1,-4,0
26420,-976,-8206,264,-2,3,-4,0
26425,-1012,-8205,246,-2,5,-4,0
26430,-1045,-8205,230,-1,6,-4,0
26435,-1064,-8208,224,-1,7,-4,0
26440,-1070,-8210,212,-1,8,-4,0
26445,-1060,-8208,206,-1,10,-4,0
26450,-1035,-8206,208,-1,11,-4,0
26455,-1012,-8206,211,-1,12,-5,0
26460,-991,-8205,224,-1,13,-5,0
26465,-978,-8205,237,-1,13,-5,0
26470,-970,-8206,260,-1,13,-5,0
26475,-958,-8203,281,0,12,-5,0
26480,-938,-8204,305,0,12,-5,0
26485,-913,-8203,331,0,11,-5,0
26490,-887,-8202,356,0,11,-5,0
26495,-859,-8201,378,0,10,-5,0
26500,-829,-8204,403,0,10,-5,0
26505,-805,-8203,416,0,10,-5,0
26510,-786,-8205,422,0,10,-5,0
26515,-774,-8208,433,0,10,-5,0
26520,-761,-8209,446,0,10,-5,0
26525,-748,-8205,465,0,10,-5,0
26530,-729,-8206,489,0,10,-5,0
26535,-703,-8206,516,0,10,-5,0
26540,-667,-8206,549,0,10,-5,0
26545,-629,-8203,577,0,10,-5,0
26550,-603,-8201,602,0,9,-5,0
26555,-584,-8202,623,0,10,-5,0
26560,-572,-8205,641,0,10,-5,0
26565,-566,-8204,649,0,10,-5,0
26570,-557,-8206,659,0,10,-5,0
26575,-546,-8209,672,0,9,-5,0
26580,-530,-8208,687,-1,9,-5,0
26585,-506,-8209,712,-1,8,-5,0
26590,-478,-8208,738,-1,8,-5,0
26595,-446,-8207,756,-1,7,-5,0
26600,-420,-8205,775,-1,6,-4,0
26605,-399,-8207,788,-1,5,-4,0
26610,-387,-8208,791,-1,4,-4,0
26615,-386,-8206,792,-1,2,-4,0
26620,-391,-8209,787,-1,2,-4,0
26625,-400,-8209,775,-1,3,-4,0
26630,-403,-8207,772,-1,3,-4,0
26635,-403,-8206,774,-1,3,-4,0
26640,-398,-8208,777,-1,4,-4,0
26645,-385,-8208,771,-1,4,-4,0
26650,-365,-8210,766,-1,4,-4,0
26655,-344,-8212,754,-1,4,-4,0
26660,-323,-8214,745,-1,4,-4,0
26665,-309,-8215,735,-1,4,-4,0
26670,-310,-8217,723,-1,4,-4,0
26675,-316,-8218,712,-1,4,-4,0
26680,-328,-8219,704,-1,4,-4,0
26685,-342,-8218,703,-1,4,-4,0
26690,-353,-8216,698,-1,3,-3,0
26695,-358,-8214,690,-2,2,-3,0
26700,-356,-8215,686,-2,2,-3,0
26705,-351,-8215,684,-2,1,-3,0
26710,-351,-8215,682,-2,1,-3,0
26715,-350,-8215,678,-2,1,-3,0
26720,-350,-8214,676,-2,1,-3,0
26725,-362,-8213,666,-2,0,-3,0
26730,-390,-8217,657,-2,-1,-3,0
26735,-427,-8216,650,-2,-1,-3,0
26740,-467,-8214,651,-2,1,-3,0
26745,-504,-8214,652,-2,2,-3,0
26750,-535,-8216,654,-2,3,-3,0
26755,-559,-8217,657,-2,4,-3,0
26760,-569,-8219,655,-2,4,-3,0
26765,-561,-8218,648,-2,3,-3,0
26770,-544,-8217,631,-2,3,-3,0
26775,-527,-8215,612,-2,3,-3,0
26780,-511,-8218,594,-2,3,-4,0
26785,-506,-8220,583,-2,3,-4,0
26790,-514,-8219,573,-2,2,-4,0
26795,-531,-8218,567,-2,2,-4,0
26800,-552,-8219,566,-2,2,-4,0
26805,-565,-8221,577,-2,2,-4,0
26810,-571,-8221,581,-2,2,-4,0
26815,-564,-8223,587,-2,2,-4,0
26820,-553,-8225,585,-2,3,-4,0
26825,-534,-8228,577,-2,3,-4,0
26830,-515,-8230,570,-2,3,-4,0
26835,-507,-8231,567,-2,3,-4,0
26840,-510,-8233,570,-2,3,-4,0
26845,-520,-8231,577,-2,3,-4,0
26850,-531,-8230,586,-2,3,-4,0
26855,-536,-8231,587,-2,3,-4,0
26860,-526,-8233,587,-2,4,-4,0
26865,-507,-8235,582,-2,4,-4,0
26870,-480,-8236,570,-2,5,-4,0
26875,-453,-8234,558,-2,5,-4,0
26880,-424,-8232,546,-2,5,-4,0
26885,-401,-8230,533,-2,5,-4,0
26890,-384,-8230,527,-2,5,-4,0
26895,-367,-8231,531,-2,5,-4,0
26900,-353,-8229,539,-2,4,-4,0
26905,-336,-8230,550,-2,3,-3,0
26910,-315,-8229,557,-2,2,-3,0
26915,-290,-8229,558,-2,1,-3,0
26920,-265,-8230,558,-2,1,-3,0
26925,-250,-8229,548,-2,0,-3,0
26930,-253,-8231,537,-2,-1,-3,0
26935,-266,-8231,528,-2,0,-3,0
26940,-291,-8233,519,-2,1,-3,0
26945,-329,-8234,508,-2,1,-3,0
26950,-367,-8233,495,-2,2,-3,0
26955,-397,-8233,488,-2,3,-3,0
26960,-410,-8233,479,-1,4,-3,0
26965,-409,-8232,470,-1,4,-3,0
26970,-394,-8233,463,-1,4,-3,0
26975,-373,-8233,449,-1,3,-3,0
26980,-354,-8232,436,-1,3,-3,0
26985,-348,-8236,425,-1,2,-3,0
26990,-354,-8240,416,-1,2,-3,0
26995,-370,-8240,417,-1,1,-3,0
27000,-386,-8240,420,-1,0,-3,0
27005,-402,-8241,420,-1,0,-3,0
27010,-414,-8239,426,-1,-1,-3,0
27015,-414,-8239,425,-1,0,-3,0
27020,-407,-8238,421,-1,0,-3,0
27025,-403,-8238,416,-1,1,-3,0
27030,-399,-8237,407,-1,2,-3,0
27035,-394,-8240,401,-1,2,-3,0
27040,-394,-8241,397,-1,3,-3,0
27045,-394,-8241,404,-1,2,-3,0
27050,-394,-8243,415,-1,2,-3,0
27055,-386,-8241,424,-1,2,-3,0
27060,-372,-8240,438,-1,3,-3,0
27065,-349,-8237,453,-1,2,-3,0
27070,-324,-8235,464,-1,2,-3,0
27075,-303,-8233,473,-1,2,-3,0
27080,-287,-8233,479,-1,1,-3,0
27085,-284,-8233,490,-1,0,-3,0
27090,-287,-8231,498,-1,0,-3,0
27095,-289,-8230,504,-1,0,-3,0
27100,-293,-8231,513,-1,0,-3,0
27105,-294,-8234,523,-1,1,-3,0
27110,-286,-8234,533,-1,1,-3,0
27115,-275,-8233,542,-1,1,-3,0
27120,-258,-8233,547,-1,2,-3,0
27125,-239,-8234,551,-1,2,-3,0
27130,-223,-8234,556,-1,2,-3,0
27135,-205,-8234,557,-1,1,-2,0
27140,-189,-8234,560,-1,1,-2,0
27145,-180,-8234,562,-1,1,-2,0
27150,-173,-8236,564,-1,1,-2,0
27155,-158,-8238,568,-1,0,-2,0
27160,-145,-8238,571,-1,-1,-2,0
27165,-130,-8241,569,-1,-2,-2,0
27170,-117,-8243,560,-1,-2,-2,0
27175,-107,-8245,557,-1,-3,-2,0
27180,-106,-8247,554,-1,-3,-2,0
27185,-115,-8247,561,-1,-3,-2,0
27190,-135,-8246,567,-1,-3,-2,0
27195,-162,-8244,575,-1,-3,-2,0
27200,-189,-8241,578,-1,-2,-2,0
27205,-204,-8238,580,-1,-2,-1,0
27210,-209,-8240,585,-1,-2,-1,0
27215,-204,-8238,580,-1,-2,-1,0
27220,-191,-8234,576,-1,-3,-1,0
27225,-177,-8231,566,-1,-3,-1,0
27230,-173,-8232,554,-1,-4,-1,0
27235,-184,-8236,546,-1,-4,-1,0
27240,-211,-8235,543,-1,-4,-1,0
27245,-251,-8236,550,-1,-5,-1,0
27250,-292,-8236,556,-1,-6,-1,0
27255,-330,-8237,555,-1,-6,-1,0
27260,-354,-8238,560,-1,-6,-1,0
27265,-367,-8238,559,-1,-6,-1,0
27270,-371,-8236,561,-1,-6,-1,0
27275,-371,-8236,554,-1,-6,-1,0
27280,-379,-8235,547,-1,-6,-1,0
27285,-398,-8237,540,-1,-6,-2,0
27290,-425,-8237,534,-1,-6,-2,0
27295,-458,-8240,532,-1,-6,-2,0
27300,-490,-8241,531,-1,-5,-2,0
27305,-509,-8240,534,-1,-5,-2,0
27310,-523,-8238,535,-1,-5,-2,0
27315,-523,-8238,540,-2,-5,-2,0
27320,-511,-8238,543,-2,-4,-2,0
27325,-496,-8240,540,-1,-4,-2,0
27330,-487,-8241,537,-1,-5,-2,0
27335,-487,-8238,529,-1,-5,-2,0
27340,-491,-8236,527,-1,-4,-2,0
27345,-497,-8239,527,-1,-4,-2,0
27350,-503,-8240,525,-1,-5,-2,0
27355,-507,-8241,519,-1,-4,-2,0
27360,-503,-8242,509,-1,-4,-2,0
27365,-497,-8244,505,-1,-4,-2,0
27370,-488,-8245,491,-1,-3,-2,0
27375,-479,-8245,480,-1,-3,-2,0
27380,-468,-8245,473,-1,-2,-2,0
27385,-456,-8244,468,-1,-2,-2,0
27390,-452,-8246,462,-1,-2,-2,0
27395,-452,-8247,457,-1,-1,-2,0
27400,-447,-8247,457,-1,-1,-2,0
27405,-440,-8244,456,-1,0,-3,0
27410,-428,-8242,452,-1,0,-2,0
27415,-409,-8243,452,-1,0,-2,0
27420,-386,-8245,457,-1,-1,-2,0
27425,-361,-8245,461,-1,-2,-2,0
27430,-334,-8245,470,-1,-2,-2,0
27435,-311,-8244,477,-1,-3,-2,0
27440,-296,-8243,483,-1,-3,-2,0
27445,-285,-8243,492,-1,-4,-2,0
27450,-279,-8242,496,-1,-4,-2,0
27455,-279,-8242,502,-1,-5,-2,0
27460,-278,-8242,507,-1,-5,-2,0
27465,-281,-8241,516,-1,-5,-2,0
27470,-279,-8244,525,-1,-5,-2,0
27475,-274,-8245,533,-1,-5,-2,0
27480,-268,-8242,542,-1,-5,-2,0
27485,-261,-8242,552,-1,-5,-2,0
27490,-258,-8241,562,-1,-6,-2,0
27495,-257,-8241,573,-1,-6,-2,0
27500,-262,-8240,582,-1,-6,-2,0
27505,-274,-8237,602,-1,-7,-2,0
27510,-288,-8238,613,-1,-7,-2,0
27515,-308,-8242,626,-1,-8,-2,0
27520,-329,-8242,636,-1,-8,-2,0
27525,-347,-8242,641,-1,-7,-2,0
27530,-355,-8240,639,-2,-7,-2,0
27535,-357,-8239,636,-2,-8,-2,0
27540,-356,-8239,637,-2,-8,-2,0
27545,-353,-8239,630,-2,-9,-2,0
27550,-354,-8241,623,-2,-9,-2,0
27555,-362,-8242,609,-2,-8,-2,0
27560,-373,-8241,596,-2,-8,-2,0
27565,-384,-8242,588,-2,-7,-2,0
27570,-395,-8243,587,-2,-7,-2,0
27575,-410,-8244,585,-2,-6,-2,0
27580,-423,-8245,588,-2,-6,-2,0
27585,-426,-8246,591,-2,-5,-2,0
27590,-425,-8245,596,-2,-5,-2,0
27595,-421,-8248,604,-2,-4,-2,0
27600,-413,-8248,607,-2,-4,-2,0
27605,-400,-8251,610,-2,-4,-2,0
27610,-379,-8252,606,-2,-5,-3,0
27615,-358,-8250,597,-2,-5,-3,0
27620,-342,-8251,586,-2,-6,-2,0
27625,-326,-8254,579,-2,-6,-3,0
27630,-312,-8254,582,-2,-6,-2,0
27635,-306,-8250,584,-2,-7,-2,0
27640,-307,-8249,591,-2,-7,-2,0
27645,-310,-8250,600,-2,-7,-2,0
27650,-311,-8251,599,-2,-8,-2,0
27655,-307,-8253,599,-2,-8,-2,0
27660,-301,-8255,597,-2,-8,-2,0
27665,-300,-8253,592,-2,-8,-3,0
27670,-307,-8250,588,-2,-8,-3,0
27675,-320,-8249,580,-2,-7,-3,0
27680,-336,-8248,572,-2,-7,-3,0
27685,-352,-8246,564,-2,-7,-3,0
27690,-367,-8243,556,-2,-7,-3,0
27695,-377,-8244,549,-2,-6,-3,0
27700,-383,-8243,541,-2,-6,-3,0
27705,-379,-8241,538,-2,-5,-3,0
27710,-372,-8241,536,-2,-5,-3,0
27715,-366,-8239,530,-2,-5,-3,0
27720,-358,-8239,528,-2,-5,-3,0
27725,-353,-8239,528,-2,-5,-3,0
27730,-352,-8242,537,-2,-6,-3,0
27735,-354,-8243,547,-2,-6,-3,0
27740,-355,-8245,553,-2,-6,-3,0
27745,-356,-8245,558,-2,-6,-3,0
27750,-350,-8246,555,-2,-5,-3,0
27755,-345,-8248,543,-2,-5,-3,0
27760,-339,-8250,524,-2,-4,-3,0
27765,-333,-8252,501,-2,-4,-3,0
27770,-330,-8255,483,-2,-4,-3,0
27775,-324,-8256,468,-2,-4,-3,0
27780,-320,-8254,458,-2,-4,-3,0
27785,-317,-8251,448,-2,-4,-3,0
27790,-310,-8254,444,-2,-4,-3,0
27795,-301,-8257,440,-2,-4,-3,0
27800,-295,-8258,436,-2,-4,-3,0
27805,-284,-8259,430,-2,-4,-3,0
27810,-265,-8257,424,-2,-4,-3,0
27815,-249,-8256,414,-2,-5,-3,0
27820,-240,-8258,398,-2,-5,-3,0
27825,-227,-8259,389,-2,-5,-3,0
27830,-223,-8259,384,-2,-5,-3,0
27835,-219,-8261,384,-2,-5,-3,0
27840,-214,-8260,388,-2,-5,-3,0
27845,-205,-8261,392,-2,-5,-3,0
27850,-190,-8261,398,-1,-5,-3,0
27855,-176,-8261,401,-1,-5,-3,0
27860,-164,-8262,400,-1,-5,-3,0
27865,-155,-8262,405,-1,-6,-3,0
27870,-158,-8262,413,-1,-6,-3,0
27875,-161,-8263,424,-1,-6,-3,0
27880,-162,-8265,430,-1,-7,-3,0
27885,-167,-8267,433,-1,-7,-3,0
27890,-175,-8267,434,-1,-7,-3,0
27895,-179,-8267,441,-1,-7,-3,0
27900,-182,-8265,446,-1,-7,-3,0
27905,-190,-8263,448,-1,-6,-3,0
27910,-198,-8261,450,-1,-5,-3,0
27915,-207,-8263,457,-1,-5,-3,0
27920,-219,-8264,467,-1,-5,-3,0
27925,-228,-8262,470,-1,-5,-3,0
27930,-240,-8262,476,-1,-5,-3,0
27935,-244,-8264,477,-1,-5,-3,0
27940,-242,-8265,478,-1,-5,-3,0
27945,-234,-8264,477,-1,-5,-3,0
27950,-220,-8262,487,-1,-5,-3,0
27955,-211,-8262,497,-1,-6,-3,0
27960,-207,-8264,506,-1,-6,-3,0
27965,-204,-8264,514,-1,-6,-3,0
27970,-204,-8265,521,-1,-6,-3,0
27975,-200,-8262,526,-1,-6,-3,0
27980,-197,-8258,524,-1,-7,-3,0
27985,-194,-8258,530,-1,-7,-3,0
27990,-193,-8258,536,-1,-7,-3,0
27995,-197,-8257,535,-1,-6,-3,0
28000,-196,-8257,526,-1,-5,-3,0
28005,-188,-8257,510,-1,-5,-3,0
28010,-180,-8256,492,-1,-4,-3,0
28015,-169,-8259,476,-1,-4,-3,0
28020,-154,-8262,457,-1,-4,-3,0
28025,-136,-8264,452,-1,-4,-3,0
28030,-114,-8261,452,-1,-4,-3,0
28035,-93,-8259,457,-1,-4,-3,0
28040,-70,-8258,459,-1,-4,-3,0
28045,-54,-8254,465,-1,-5,-3,0
28050,-44,-8251,465,-1,-6,-3,0
28055,-40,-8252,464,-1,-6,-3,0
28060,-44,-8253,461,-1,-7,-3,0
28065,-53,-8254,458,-1,-7,-2,0
28070,-66,-8255,456,-1,-7,-2,0
28075,-79,-8255,457,-1,-7,-2,0
28080,-88,-8252,464,-1,-6,-3,0
28085,-100,-8254,482,-1,-6,-2,0
28090,-116,-8257,501,-1,-6,-3,0
28095,-129,-8255,519,-1,-6,-3,0
28100,-135,-8254,533,-1,-6,-3,0
28105,-139,-8256,549,-1,-6,-2,0
28110,-137,-8259,567,-1,-5,-3,0
28115,-127,-8258,575,-1,-5,-3,0
28120,-114,-8259,576,-1,-5,-2,0
28125,-94,-8260,585,-1,-6,-2,0
28130,-67,-8261,593,-1,-7,-2,0
28135,-47,-8261,609,-1,-8,-2,0
28140,-32,-8259,632,-1,-8,-2,0
28145,-22,-8257,648,-1,-9,-2,0
28150,-21,-8258,661,-1,-10,-2,0
28155,-29,-8258,671,-1,-10,-2,0
28160,-42,-8259,675,-1,-10,-2,0
28165,-51,-8261,675,-1,-10,-2,0
28170,-53,-8263,666,-1,-10,-2,0
28175,-49,-8265,659,-2,-11,-2,0
28180,-37,-8267,650,-2,-11,-2,0
28185,-20,-8266,648,-2,-11,-2,0
28190,-9,-8266,641,-2,-11,-2,0
28195,-4,-8265,643,-2,-11,-2,0
28200,-8,-8266,651,-2,-12,-2,0
28205,-18,-8266,655,-2,-12,-2,0
28210,-31,-8268,661,-2,-13,-2,0
28215,-44,-8268,662,-2,-14,-2,0
28220,-56,-8266,654,-2,-14,-2,0
28225,-64,-8265,650,-2,-14,-2,0
28230,-68,-8266,643,-2,-13,-2,0
28235,-72,-8266,639,-2,-12,-2,0
28240,-78,-8265,637,-2,-12,-2,0
28245,-83,-8267,638,-2,-12,-2,0
28250,-92,-8266,639,-2,-12,-2,0
28255,-95,-8263,646,-2,-11,-2,0
28260,-94,-8261,658,-2,-11,-2,0
28265,-89,-8263,673,-2,-11,-2,0
28270,-81,-8262,680,-2,-11,-2,0
28275,-71,-8261,686,-2,-11,-2,0
28280,-58,-8261,697,-2,-12,-2,0
28285,-48,-8264,706,-2,-12,-2,0
28290,-43,-8267,715,-2,-12,-2,0
28295,-41,-8267,728,-3,-12,-2,0
28300,-37,-8264,735,-3,-12,-2,0
28305,-31,-8263,740,-3,-13,-2,0
28310,-23,-8260,737,-3,-13,-1,0
28315,-5,-8259,731,-3,-13,-1,0
28320,14,-8257,725,-3,-13,-1,0
28325,33,-8254,714,-3,-13,-1,0
28330,50,-8256,697,-3,-13,-1,0
28335,66,-8256,682,-3,-13,-1,0
28340,74,-8256,668,-3,-13,-1,0
28345,81,-8256,654,-3,-13,-1,0
28350,84,-8258,640,-3,-14,-1,0
28355,90,-8260,626,-3,-14,-1,0
28360,94,-8258,607,-3,-15,-1,0
28365,96,-8260,590,-3,-15,-1,0
28370,94,-8259,577,-3,-15,0,0
28375,91,-8261,570,-3,-15,-1,0
28380,82,-8263,563,-3,-15,-1,0
28385,68,-8260,566,-3,-16,0,0
28390,53,-8257,572,-3,-16,0,0
28395,36,-8259,575,-3,-16,0,0
28400,19,-8258,563,-3,-17,0,0
28405,3,-8258,547,-3,-17,0,0
28410,-12,-8257,533,-3,-16,0,0
28415,-23,-8257,519,-3,-16,0,0
28420,-34,-8256,508,-3,-16,0,0
28425,-45,-8254,502,-3,-16,0,0
28430,-58,-8253,497,-3,-16,0,0
28435,-75,-8255,493,-3,-16,0,0
28440,-89,-8255,491,-3,-16,0,0
28445,-99,-8257,489,-3,-16,0,0
28450,-108,-8258,482,-3,-15,0,0
28455,-115,-8260,477,-3,-16,0,0
28460,-126,-8260,471,-3,-16,0,0
28465,-131,-8260,471,-3,-16,0,0
28470,-139,-8260,472,-3,-16,0,0
28475,-147,-8260,478,-3,-16,0,0
28480,-154,-8261,480,-3,-16,0,0
28485,-161,-8260,479,-3,-16,0,0
28490,-167,-8261,475,-3,-15,0,0
28495,-171,-8259,462,-3,-15,0,0
28500,-185,-8260,449,-3,-15,0,0
28505,-201,-8260,441,-3,-14,0,0
28510,-210,-8263,428,-3,-13,-1,0
28515,-211,-8264,413,-2,-12,-1,0
28520,-209,-8264,400,-2,-12,-1,0
28525,-201,-8265,390,-2,-11,-1,0
28530,-184,-8263,380,-2,-11,-1,0
28535,-168,-8262,372,-2,-11,-1,0
28540,-151,-8261,361,-2,-11,-1,0
28545,-140,-8261,349,-2,-11,-1,0
28550,-137,-8261,341,-2,-11,-1,0
28555,-145,-8259,334,-2,-11,-1,0
28560,-158,-8259,319,-2,-11,-1,0
28565,-167,-8259,315,-2,-11,-1,0
28570,-172,-8263,309,-2,-11,-1,0
28575,-174,-8266,309,-2,-11,-1,0
28580,-177,-8265,309,-2,-11,-1,0
28585,-177,-8262,312,-2,-10,-1,0
28590,-181,-8261,317,-2,-10,-1,0
28595,-190,-8264,333,-2,-9,-1,0
28600,-203,-8262,342,-2,-9,-1,0
28605,-219,-8265,351,-2,-8,-1,0
28610,-240,-8267,357,-2,-7,-1,0
28615,-255,-8265,364,-1,-6,-1,0
28620,-264,-8264,368,-1,-6,-1,0
28625,-265,-8265,370,-1,-5,-1,0
28630,-255,-8263,374,-1,-5,-1,0
28635,-241,-8264,382,-1,-5,-1,0
28640,-226,-8267,390,-1,-4,-1,0
28645,-214,-8271,391,-1,-4,-1,0
28650,-204,-8272,397,-1,-3,-1,0
28655,-196,-8271,401,-1,-3,-1,0
28660,-193,-8268,406,-1,-3,-1,0
28665,-191,-8267,411,-1,-3,-1,0
28670,-184,-8265,412,-1,-3,-1,0
28675,-173,-8266,416,-1,-3,-1,0
28680,-159,-8265,419,-1,-3,-1,0
28685,-139,-8261,429,-1,-3,-1,0
28690,-126,-8260,440,-1,-3,-1,0
28695,-117,-8262,456,-1,-3,-1,0
28700,-112,-8262,470,-1,-3,-1,0
28705,-113,-8261,479,-1,-3,-1,0
28710,-119,-8261,483,-1,-2,-1,0
28715,-127,-8261,488,-1,-2,-1,0
28720,-130,-8262,493,-1,-2,-1,0
28725,-124,-8265,492,-1,-2,-1,0
28730,-112,-8265,491,-1,-2,-1,0
28735,-95,-8264,491,-1,-3,-1,0
28740,-75,-8266,494,-1,-3,-1,0
28745,-58,-8266,495,-1,-3,-1,0
28750,-46,-8266,490,-1,-4,-1,0
28755,-44,-8266,489,-1,-4,-1,0
28760,-47,-8265,484,-1,-4,-1,0
28765,-52,-8264,478,-1,-4,-1,0
28770,-52,-8263,462,-1,-4,-1,0
28775,-48,-8261,453,-1,-4,-1,0
28780,-37,-8262,449,-1,-4,-1,0
28785,-24,-8263,449,-1,-5,-1,0
28790,-11,-8263,455,-1,-5,-1,0
28795,0,-8264,461,-1,-5,-1,0
28800,6,-8265,467,-1,-6,-1,0
28805,4,-8264,472,-1,-6,-1,0
28810,-11,-8262,476,-1,-6,-1,0
28815,-31,-8260,469,-1,-6,-1,0
28820,-59,-8261,458,-1,-6,-1,0
28825,-84,-8259,446,-1,-6,-1,0
28830,-104,-8257,438,-1,-5,-1,0
28835,-122,-8257,439,-1,-5,0,0
28840,-132,-8256,440,-1,-5,0,0
28845,-138,-8257,436,-1,-4,0,0
28850,-138,-8258,427,-1,-4,-1,0
28855,-136,-8260,414,-1,-3,-1,0
28860,-138,-8262,403,-1,-3,-1,0
28865,-143,-8263,387,-1,-3,-1,0
28870,-148,-8261,370,-1,-2,-1,0
28875,-148,-8263,365,-1,-2,-1,0
28880,-147,-8266,357,-1,-2,-1,0
28885,-140,-8266,354,-1,-2,0,0
28890,-127,-8266,357,0,-2,-1,0
28895,-112,-8266,364,0,-2,-1,0
28900,-99,-8267,372,0,-2,-1,0
28905,-87,-8266,380,0,-1,-1,0
28910,-79,-8265,388,0,-1,-1,0
28915,-77,-8263,396,0,-1,0,0
28920,-77,-8264,399,0,-1,-1,0
28925,-75,-8266,406,0,-1,0,0
28930,-73,-8266,420,0,-1,0,0
28935,-72,-8264,430,0,-2,0,0
28940,-72,-8265,442,0,-2,0,0
28945,-74,-8266,454,0,-1,0,0
28950,-75,-8268,466,0,-1,0,0
28955,-76,-8266,476,0,-1,0,0
28960,-74,-8268,479,0,-1,0,0
28965,-74,-8270,482,0,-2,0,0
28970,-71,-8269,486,0,-2,0,0
28975,-64,-8266,489,0,-2,0,0
28980,-61,-8266,499,0,-2,0,0
28985,-60,-8264,511,0,-3,0,0
28990,-60,-8261,522,0,-3,0,0
28995,-67,-8261,537,0,-3,0,0
29000,-74,-8262,561,0,-4,0,0
29005,-83,-8260,580,0,-5,0,0
29010,-93,-8260,590,0,-5,0,0
29015,-101,-8259,598,0,-5,0,0
29020,-110,-8260,599,0,-5,0,0
29025,-118,-8259,600,0,-5,0,0
29030,-131,-8254,595,0,-6,0,0
29035,-152,-8252,592,0,-6,0,0
29040,-180,-8252,589,0,-5,0,0
29045,-209,-8253,585,0,-5,0,0
29050,-244,-8253,585,0,-5,0,0
29055,-278,-8252,592,0,-5,0,0
29060,-306,-8252,599,0,-4,0,0
29065,-325,-8252,602,0,-4,0,0
29070,-336,-8254,601,0,-3,0,0
29075,-341,-8254,595,0,-3,0,0
29080,-347,-8258,587,0,-3,0,0
29085,-349,-8257,586,0,-3,0,0
29090,-348,-8255,587,-1,-3,0,0
29095,-349,-8260,595,-1,-4,-1,0
29100,-352,-8257,600,-1,-4,-1,0
29105,-362,-8257,615,-1,-4,-1,0
29110,-374,-8258,633,-1,-4,-1,0
29115,-388,-8260,648,-1,-4,-1,0
29120,-402,-8263,663,-1,-4,-1,0
29125,-413,-8263,668,-1,-4,-1,0
29130,-421,-8264,670,-1,-3,-1,0
29135,-427,-8262,675,-1,-2,-1,0
29140,-435,-8257,676,-1,-1,-1,0
29145,-437,-8256,674,-1,0,-1,0
29150,-435,-8254,678,-1,1,-1,0
29155,-423,-8251,684,-1,1,-1,0
29160,-401,-8255,691,-1,1,-1,0
29165,-373,-8255,689,-1,0,-1,0
29170,-339,-8255,682,-1,1,-1,0
29175,-303,-8257,674,-1,1,-1,0
29180,-269,-8261,664,-1,1,-1,0
29185,-242,-8259,658,-1,0,-1,0
29190,-225,-8256,655,-1,0,-2,0
29195,-213,-8253,659,-1,-1,-1,0
29200,-208,-8254,664,-1,-2,-1,0
29205,-201,-8253,671,-1,-2,-1,0
29210,-189,-8253,672,-1,-2,-1,0
29215,-179,-8254,667,-1,-3,-1,0
29220,-164,-8254,656,-1,-3,-1,0
29225,-151,-8256,643,-1,-3,-1,0
29230,-150,-8258,627,-1,-3,-1,0
29235,-159,-8258,621,-1,-3,-1,0
29240,-175,-8257,615,-1,-3,-1,0
29245,-195,-8257,617,-1,-3,-1,0
29250,-217,-8256,633,-1,-2,-1,0
29255,-231,-8253,648,-1,-2,-1,0
29260,-237,-8252,659,-1,-2,-1,0
29265,-229,-8252,667,-1,-3,-1,0
29270,-215,-8251,660,-1,-3,-1,0
29275,-199,-8252,639,-1,-3,-1,0
29280,-185,-8256,613,-1,-3,-1,0
29285,-185,-8256,583,-1,-3,-1,0
29290,-193,-8258,565,-1,-3,-1,0
29295,-206,-8257,552,-1,-2,-1,0
29300,-225,-8258,546,-1,-2,-1,0
29305,-243,-8257,550,-1,-2,-1,0
29310,-253,-8257,553,-1,-2,-1,0
29315,-255,-8255,557,-1,-2,-1,0
29320,-247,-8255,564,-1,-2,-1,0
29325,-235,-8256,567,-1,-2,-1,0
29330,-222,-8255,573,-1,-2,-1,0
29335,-222,-8254,575,-1,-2,-1,0
29340,-232,-8255,572,-1,-3,-2,0
29345,-245,-8252,577,-1,-3,-2,0
29350,-265,-8253,580,-1,-3,-2,0
29355,-286,-8255,578,-1,-2,-1,0
29360,-299,-8255,584,-1,-2,-2,0
29365,-306,-8252,592,-1,-2,-2,0
29370,-305,-8249,598,-1,-1,-2,0
29375,-304,-8249,603,-1,-2,-2,0
29380,-298,-8248,603,-1,-2,-2,0
29385,-289,-8250,599,-1,-1,-2,0
29390,-280,-8251,597,-1,-2,-2,0
29395,-277,-8252,597,-1,-2,-2,0
29400,-280,-8252,597,-2,-2,-2,0
29405,-291,-8252,596,-2,-2,-2,0
29410,-305,-8252,602,-2,-2,-2,0
29415,-329,-8251,604,-2,-1,-2,0
29420,-352,-8250,614,-2,-1,-2,0
29425,-370,-8250,620,-2,0,-2,0
29430,-386,-8252,622,-2,0,-2,0
29435,-398,-8253,619,-2,1,-2,0
29440,-403,-8253,610,-2,1,-2,0
29445,-405,-8253,597,-2,1,-2,0
29450,-406,-8257,583,-2,2,-3,0
29455,-403,-8256,575,-2,2,-3,0
29460,-406,-8254,575,-2,2,-3,0
29465,-413,-8253,577,-2,2,-3,0
29470,-424,-8249,585,-2,2,-3,0
29475,-433,-8248,595,-2,2,-3,0
29480,-441,-8250,600,-2,3,-3,0
29485,-449,-8251,601,-2,3,-3,0
29490,-454,-8250,600,-2,4,-3,0
29495,-455,-8255,598,-2,4,-3,0
29500,-455,-8256,598,-2,5,-3,0
29505,-452,-8258,604,-2,5,-3,0
29510,-446,-8258,614,-2,5,-4,0
29515,-439,-8258,623,-2,6,-4,0
29520,-435,-8256,632,-2,6,-4,0
29525,-430,-8253,641,-2,7,-4,0
29530,-423,-8253,647,-2,7,-4,0
29535,-416,-8253,654,-2,7,-4,0
29540,-410,-8255,660,-2,7,-4,0
29545,-399,-8256,657,-2,7,-4,0
29550,-384,-8256,654,-2,7,-4,0
29555,-358,-8259,650,-2,8,-4,0
29560,-330,-8259,648,-2,8,-4,0
29565,-299,-8257,643,-2,7,-4,0
29570,-268,-8256,644,-2,7,-4,0
29575,-237,-8256,639,-2,6,-4,0
29580,-213,-8257,637,-2,5,-4,0
29585,-190,-8256,632,-2,5,-4,0
29590,-170,-8255,622,-2,4,-4,0
29595,-156,-8257,613,-2,4,-4,0
29600,-151,-8258,614,-2,4,-4,0
29605,-139,-8261,618,-2,4,-4,0
29610,-127,-8259,616,-2,4,-4,0
29615,-114,-8258,612,-2,4,-4,0
29620,-95,-8256,606,-2,4,-4,0
29625,-77,-8255,600,-2,3,-4,0
29630,-62,-8255,588,-2,3,-4,0
29635,-52,-8255,581,-2,3,-4,0
29640,-49,-8256,574,-2,4,-4,0
29645,-50,-8257,571,-2,4,-4,0
29650,-54,-8257,572,-2,4,-4,0
29655,-61,-8256,574,-2,4,-4,0
29660,-65,-8256,572,-2,4,-4,0
29665,-64,-8258,575,-2,3,-4,0
29670,-56,-8255,584,-2,3,-3,0
29675,-44,-8254,582,-2,3,-3,0
29680,-30,-8255,579,-2,4,-3,0
29685,-15,-8258,576,-2,4,-3,0
29690,-6,-8259,567,-2,3,-3,0
29695,-3,-8262,563,-3,3,-4,0
29700,0,-8266,558,-3,2,-3,0
29705,4,-8264,558,-3,2,-3,0
29710,3,-8264,562,-3,1,-3,0
29715,8,-8264,564,-3,1,-3,0
29720,13,-8263,570,-3,1,-3,0
29725,15,-8263,572,-3,0,-3,0
29730,15,-8264,571,-3,0,-3,0
29735,9,-8260,577,-3,0,-3,0
29740,-2,-8262,579,-3,0,-3,0
29745,-15,-8266,582,-3,0,-3,0
29750,-30,-8265,579,-3,1,-3,0
29755,-39,-8265,573,-3,1,-3,0
29760,-38,-8262,564,-3,1,-3,0
29765,-27,-8261,552,-3,1,-3,0
29770,-9,-8258,544,-3,0,-3,0
29775,15,-8258,540,-3,0,-3,0
29780,31,-8258,542,-3,-1,-3,0
29785,41,-8261,543,-3,-1,-3,0
29790,38,-8262,542,-3,-1,-3,0
29795,33,-8255,543,-3,-1,-3,0
29800,23,-8253,539,-3,-2,-3,0
29805,7,-8254,530,-3,-2,-3,0
29810,1,-8255,520,-3,-2,-3,0
29815,1,-8255,519,-3,-2,-3,0
29820,4,-8255,521,-3,-3,-3,0
29825,17,-8259,523,-3,-4,-3,0
29830,32,-8260,518,-3,-5,-3,0
29835,42,-8261,514,-3,-6,-3,0
29840,48,-8261,509,-3,-7,-3,0
29845,44,-8261,494,-3,-7,-3,0
29850,28,-8262,472,-3,-8,-3,0
29855,4,-8263,452,-3,-8,-3,0
29860,-25,-8266,430,-3,-7,-3,0
29865,-56,-8267,412,-3,-6,-3,0
29870,-76,-8269,401,-3,-5,-3,0
29875,-87,-8269,389,-3,-4,-3,0
29880,-85,-8271,376,-3,-4,-3,0
29885,-74,-8269,363,-3,-3,-3,0
29890,-58,-8269,345,-3,-3,-3,0
29895,-41,-8269,320,-3,-3,-3,0
29900,-27,-8270,291,-3,-3,-3,0
29905,-20,-8270,262,-3,-2,-3,0
29910,-22,-8270,247,-3,-2,-3,0
29915,-36,-8268,236,-2,-2,-3,0
29920,-46,-8268,229,-2,-2,-3,0
29925,-52,-8271,229,-2,-2,-3,0
29930,-53,-8270,239,-2,-2,-3,0
29935,-49,-8268,243,-2,-2,-3,0
29940,-35,-8269,251,-2,-2,-3,0
29945,-14,-8269,257,-2,-3,-3,0
29950,4,-8273,259,-2,-4,-3,0
29955,17,-8274,258,-2,-5,-3,0
29960,24,-8274,257,-2,-5,-3,0
29965,25,-8272,260,-2,-5,-3,0
29970,20,-8273,265,-2,-6,-3,0
29975,20,-8275,266,-2,-7,-2,0
29980,23,-8276,274,-2,-7,-2,0
29985,36,-8274,290,-2,-8,-2,0
29990,54,-8274,297,-2,-9,-2,0
29995,79,-8273,303,-2,-10,-2,0
30000,97,-8269,303,-2,-11,-2,0
30005,108,-8261,300,-2,-11,-2,0
30010,113,-8255,290,-2,-10,-2,0
30015,113,-8257,276,-2,-10,-2,0
30020,110,-8259,261,-2,-10,-2,0
30025,112,-8261,246,-2,-10,-2,0
30030,112,-8265,237,-2,-11,-2,0
30035,119,-8267,234,-2,-11,-2,0
30040,128,-8269,232,-2,-11,-2,0
30045,140,-8267,224,-1,-11,-2,0
30050,155,-8266,228,-1,-11,-2,0
30055,174,-8267,238,-1,-11,-2,0
30060,183,-8268,228,-1,-11,-2,0
30065,194,-8269,217,-1,-10,-2,0
30070,203,-8270,207,-1,-10,-1,0
30075,210,-8272,195,-1,-9,-1,0
30080,214,-8283,190,-1,-9,-1,0
30085,218,-8282,187,-1,-9,-1,0
30090,223,-8280,186,-1,-10,-1,0
30095,238,-8279,188,-1,-10,-1,0
30100,256,-8278,190,-1,-11,-1,0
30105,281,-8275,188,-1,-11,-1,0
30110,307,-8273,179,0,-12,-1,0
30115,327,-8273,156,0,-12,-1,0
30120,345,-8273,132,0,-13,0,0
30125,360,-8273,103,0,-13,0,0
30130,365,-8274,73,0,-13,0,0
30135,358,-8272,50,0,-13,0,0
30140,339,-8271,41,0,-11,0,0
30145,311,-8271,46,0,-10,0,0
30150,279,-8268,65,0,-8,0,0
30155,244,-8269,100,0,-7,0,0
30160,211,-8269,145,0,-6,0,0
30165,181,-8266,194,0,-5,0,0
30170,152,-8264,241,1,-4,0,0
30175,124,-8263,288,1,-2,0,0
30180,102,-8265,338,0,0,0,0
30185,84,-8267,383,0,1,0,0
30190,71,-8266,433,0,1,0,0
30195,70,-8269,477,0,2,0,0
30200,81,-8268,516,0,2,0,0
30205,101,-8265,545,0,2,0,0
30210,124,-8263,576,0,2,0,0
30215,151,-8265,604,0,2,0,0
30220,177,-8264,623,0,1,0,0
30225,196,-8262,638,0,0,0,0
30230,205,-8262,648,0,0,0,0
30235,206,-8262,655,-1,-1,0,0
30240,205,-8266,658,-1,-1,1,0
30245,202,-8269,657,-1,-2,1,0
30250,200,-8268,651,-1,-2,1,0
30255,199,-8268,645,-1,-2,1,0
30260,200,-8266,635,-1,-2,1,0
30265,199,-8266,628,-1,-2,1,0
30270,190,-8266,615,-1,-2,1,0
30275,175,-8267,608,-1,-1,1,0
30280,155,-8265,605,-1,0,1,0
30285,132,-8263,602,-1,0,1,0
30290,107,-8265,603,-1,0,1,0
30295,81,-8265,605,-1,1,1,0
30300,65,-8261,605,-1,1,1,0
30305,58,-8261,610,-1,0,1,0
30310,57,-8263,614,-1,0,1,0
30315,59,-8263,616,-1,-1,1,0
30320,62,-8263,613,-1,0,1,0
30325,60,-8261,612,-1,0,1,0
30330,51,-8261,607,-1,0,1,0
30335,32,-8262,605,-1,0,1,0
30340,6,-8262,612,-1,0,1,0
30345,-21,-8262,623,-1,0,1,0
30350,-51,-8260,639,-2,1,1,0
30355,-78,-8260,656,-2,1,1,0
30360,-96,-8261,674,-2,2,1,0
30365,-106,-8258,689,-2,2,1,0
30370,-116,-8254,705,-2,2,1,0
30375,-124,-8252,716,-2,2,1,0
30380,-129,-8250,715,-2,3,1,0
30385,-135,-8250,710,-2,3,1,0
30390,-150,-8251,711,-2,4,1,0
30395,-167,-8252,714,-2,4,1,0
30400,-185,-8253,709,-2,5,1,0
30405,-199,-8253,705,-2,5,1,0
30410,-205,-8252,702,-2,5,1,0
30415,-199,-8255,695,-3,5,1,0
30420,-186,-8254,677,-3,5,1,0
30425,-168,-8253,657,-3,4,1,0
30430,-148,-8252,635,-3,3,1,0
30435,-135,-8248,615,-3,2,1,0
30440,-129,-8250,597,-3,1,1,0
30445,-127,-8251,577,-3,0,1,0
30450,-132,-8250,561,-3,-1,1,0
30455,-142,-8250,546,-3,-2,1,0
30460,-146,-8251,536,-3,-3,1,0
30465,-143,-8250,530,-3,-5,1,0
30470,-141,-8248,518,-3,-7,1,0
30475,-141,-8249,512,-3,-8,1,0
30480,-145,-8252,504,-3,-8,1,0
30485,-160,-8252,499,-3,-8,1,0
30490,-183,-8250,495,-3,-8,1,0
30495,-218,-8250,492,-3,-8,1,0
30500,-259,-8253,486,-3,-8,1,0
30505,-294,-8252,482,-3,-7,1,0
30510,-322,-8251,472,-3,-6,1,0
30515,-341,-8252,459,-3,-6,1,0
30520,-346,-8254,441,-3,-5,1,0
30525,-340,-8256,419,-3,-4,1,0
30530,-328,-8255,395,-3,-3,0,0
30535,-315,-8257,376,-3,-3,0,0
30540,-308,-8256,356,-3,-3,0,0
30545,-309,-8256,337,-3,-3,0,0
30550,-317,-8256,324,-3,-3,0,0
30555,-321,-8258,307,-3,-3,0,0
30560,-323,-8260,290,-3,-4,0,0
30565,-318,-8261,274,-3,-4,0,0
30570,-310,-8264,257,-2,-4,0,0
30575,-303,-8264,243,-2,-4,0,0
30580,-305,-8265,226,-2,-3,0,0
30585,-316,-8261,217,-2,-2,0,0
30590,-330,-8259,216,-2,-1,0,0
30595,-352,-8258,214,-2,0,0,0
30600,-380,-8258,214,-2,1,0,0
30605,-406,-8257,216,-2,2,0,0
30610,-422,-8260,219,-2,3,0,0
30615,-429,-8260,223,-2,4,0,0
30620,-430,-8260,230,-2,5,0,0
30625,-425,-8260,234,-2,5,-1,0
30630,-422,-8257,240,-2,5,-1,0
30635,-414,-8256,250,-2,6,-1,0
30640,-405,-8256,260,-2,5,-1,0
30645,-400,-8259,264,-2,5,-1,0
30650,-402,-8262,266,-2,4,-1,0
30655,-407,-8264,272,-2,4,-1,0
30660,-409,-8265,281,-2,4,-1,0
30665,-410,-8264,292,-2,4,-1,0
30670,-410,-8260,298,-2,4,-1,0
30675,-407,-8260,299,-2,4,-1,0
30680,-401,-8263,297,-2,4,-1,0
30685,-396,-8264,297,-2,4,-1,0
30690,-393,-8265,291,-2,4,-1,0
30695,-387,-8267,287,-2,4,-2,0
30700,-388,-8267,288,-2,5,-2,0
30705,-388,-8267,289,-2,5,-2,0
30710,-389,-8265,291,-2,5,-2,0
30715,-395,-8264,288,-2,5,-2,0
30720,-395,-8262,291,-2,5,-2,0
30725,-393,-8260,293,-2,5,-2,0
30730,-390,-8258,292,-1,5,-2,0
30735,-387,-8261,278,-1,5,-2,0
30740,-386,-8258,264,-1,5,-2,0
30745,-387,-8258,247,-1,5,-2,0
30750,-389,-8256,238,-1,5,-2,0
30755,-390,-8256,232,-1,5,-2,0
30760,-387,-8259,218,-1,5,-2,0
30765,-380,-8260,209,-1,5,-2,0
30770,-363,-8263,207,-1,5,-2,0
30775,-344,-8263,202,-1,5,-2,0
30780,-327,-8263,194,-1,4,-2,0
30785,-309,-8264,186,-1,4,-2,0
30790,-297,-8265,180,-1,5,-2,0
30795,-286,-8264,176,-1,5,-2,0
30800,-279,-8261,181,-1,5,-2,0
30805,-272,-8262,190,-1,4,-2,0
30810,-263,-8262,198,-1,4,-2,0
30815,-250,-8263,211,-1,4,-2,0
30820,-231,-8264,228,-1,4,-2,0
30825,-208,-8264,249,-1,4,-2,0
30830,-185,-8263,271,-1,4,-2,0
30835,-165,-8264,290,-1,4,-2,0
30840,-148,-8264,315,-1,3,-2,0
30845,-146,-8264,339,-1,2,-2,0
30850,-154,-8267,360,-1,2,-2,0
30855,-166,-8264,380,-1,2,-2,0
30860,-188,-8264,403,-1,3,-2,0
30865,-218,-8264,425,-1,3,-2,0
30870,-244,-8268,441,-1,4,-2,0
30875,-260,-8266,455,-1,5,-2,0
30880,-266,-8264,467,-1,6,-2,0
30885,-264,-8264,483,-1,6,-2,0
30890,-252,-8264,497,-1,6,-2,0
30895,-234,-8261,507,-1,6,-2,0
30900,-207,-8260,515,-1,6,-2,0
30905,-183,-8262,522,-1,5,-2,0
30910,-165,-8261,527,-1,4,-2,0
30915,-156,-8261,529,-1,3,-2,0
30920,-149,-8259,527,-2,2,-2,0
30925,-147,-8261,523,-2,2,-2,0
30930,-144,-8263,507,-2,1,-2,0
30935,-141,-8266,483,-2,1,-2,0
30940,-137,-8268,463,-2,0,-2,0
30945,-130,-8266,439,-2,0,-2,0
30950,-122,-8264,419,-2,0,-2,0
30955,-119,-8261,406,-2,0,-2,0
30960,-120,-8260,399,-2,0,-2,0
30965,-123,-8260,393,-2,0,-2,0
30970,-128,-8261,387,-2,0,-2,0
30975,-139,-8261,377,-2,1,-2,0
30980,-152,-8265,367,-2,1,-2,0
30985,-164,-8266,353,-2,2,-2,0
30990,-174,-8267,341,-2,3,-2,0
30995,-182,-8269,329,-2,4,-2,0
31000,-185,-8273,313,-2,5,-2,0
31005,-180,-8273,302,-2,6,-2,0
31010,-168,-8270,294,-2,6,-2,0
31015,-151,-8270,297,-2,6,-2,0
31020,-129,-8267,301,-2,5,-2,0
31025,-105,-8266,307,-2,5,-2,0
31030,-86,-8264,317,-2,4,-2,0
31035,-67,-8264,323,-1,4,-2,0
31040,-51,-8265,323,-1,4,-2,0
31045,-43,-8266,319,-1,4,-2,0
31050,-42,-8268,311,-1,3,-2,0
31055,-46,-8265,307,-1,3,-2,0
31060,-51,-8264,310,-2,3,-2,0
31065,-51,-8264,316,-2,4,-2,0
31070,-46,-8264,322,-2,4,-2,0
31075,-35,-8265,334,-2,4,-2,0
31080,-30,-8262,340,-2,3,-2,0
31085,-29,-8259,347,-2,4,-2,0
31090,-31,-8261,347,-2,4,-2,0
31095,-35,-8261,338,-2,4,-2,0
31100,-39,-8262,338,-2,4,-2,0
31105,-45,-8261,336,-2,4,-2,0
31110,-53,-8262,336,-2,3,-1,0
31115,-53,-8264,340,-2,3,-1,0
31120,-51,-8264,347,-2,2,-1,0
31125,-46,-8265,351,-2,2,-1,0
31130,-38,-8263,352,-2,1,-1,0
31135,-25,-8264,354,-2,0,-1,0
31140,-15,-8266,355,-2,0,-1,0
31145,-12,-8269,352,-2,-1,-1,0
31150,-17,-8269,346,-2,-2,-1,0
31155,-31,-8270,334,-2,-3,-1,0
31160,-46,-8269,319,-2,-3,-1,0
31165,-62,-8267,303,-2,-2,-1,0
31170,-76,-8266,292,-2,-2,-1,0
31175,-91,-8268,281,-2,-2,-1,0
31180,-109,-8268,273,-2,-1,-1,0
31185,-127,-8269,264,-2,0,-1,0
31190,-144,-8267,253,-2,1,-1,0
31195,-163,-8267,246,-2,3,-1,0
31200,-180,-8269,237,-1,4,-1,0
31205,-197,-8269,233,-1,5,-1,0
31210,-214,-8266,230,-1,6,-1,0
31215,-227,-8266,235,-1,6,-1,0
31220,-238,-8266,245,-1,7,-1,0
31225,-244,-8262,253,-1,7,-1,0
31230,-242,-8260,265,-1,7,-1,0
31234,-237,-8260,277,-1,7,-1,0
31239,-232,-8260,282,-1,6,-2,0
31245,-231,-8261,284,-1,7,-2,0
31250,-241,-8264,280,-1,8,-2,0
31255,-263,-8265,273,-1,9,-2,0
31260,-296,-8269,264,-1,11,-2,0
31265,-347,-8267,263,-1,14,-2,0
31270,-407,-8268,269,-1,18,-2,0
31275,-481,-8268,277,-1,22,-2,0
31280,-569,-8267,282,-1,28,-3,0
31285,-659,-8265,286,-1,36,-3,0
31290,-729,-8266,290,-1,45,-3,0
31295,-765,-8265,292,-1,51,-3,0
31299,-768,-8264,291,-1,56,-3,0
31305,-735,-8264,276,-1,58,-3,0
31310,-668,-8264,262,-1,59,-4,0
31315,-570,-8267,266,-1,58,-4,0
31320,-452,-8269,266,-1,56,-4,0
31325,-340,-8268,271,-1,53,-4,0
31329,-239,-8267,284,-1,49,-4,0
31334,-161,-8265,289,-1,45,-4,0
31340,-115,-8264,285,-1,41,-4,0
31345,-97,-8266,282,-1,38,-4,0
31350,-105,-8268,266,-1,36,-4,0
31355,-133,-8270,248,-1,34,-4,0
31360,-180,-8271,226,-1,33,-4,0
31365,-235,-8271,199,-1,34,-4,0
31370,-298,-8271,173,-1,37,-4,0
31375,-366,-8272,153,-1,41,-4,0
31380,-439,-8273,139,-1,46,-4,0
31385,-508,-8272,126,-1,52,-4,0
31390,-570,-8269,119,-1,57,-5,0
31395,-613,-8269,113,-1,61,-5,0
31400,-625,-8266,106,-1,64,-5,0
31405,-599,-8267,112,-1,66,-5,0
31410,-536,-8263,121,-1,66,-5,0
31415,-445,-8262,122,-1,64,-5,0
31420,-340,-8263,119,-1,61,-5,0
31425,-237,-8266,113,-1,58,-5,0
31430,-151,-8267,100,0,54,-5,0
31435,-100,-8268,78,0,51,-5,0
31440,-87,-8271,53,0,47,-5,0
31445,-105,-8270,32,0,44,-5,0
31450,-142,-8268,15,0,41,-5,0
31455,-184,-8264,-6,0,39,-5,0
31460,-215,-8262,-24,0,37,-5,0
31465,-219,-8262,-37,0,37,-5,0
31470,-201,-8264,-68,1,37,-5,0
31475,-181,-8264,-105,1,37,-5,0
31480,-171,-8264,-145,1,38,-5,0
31485,-169,-8266,-172,1,41,-5,0
31490,-172,-8267,-191,1,43,-5,0
31495,-182,-8267,-191,1,44,-5,0
31500,-186,-8268,-169,1,44,-5,0
31505,-177,-8267,-126,1,42,-5,0
31510,-164,-8264,-56,1,40,-5,0
31515,-141,-8263,20,1,39,-5,0
31519,-117,-8259,102,1,38,-5,0
31525,-97,-8259,171,1,37,-5,0
31530,-92,-8258,217,1,35,-5,0
31535,-115,-8259,252,1,33,-5,0
31540,-152,-8263,274,1,32,-5,0
31545,-196,-8266,285,1,30,-5,0
31550,-248,-8267,295,1,28,-5,0
31554,-299,-8267,315,1,28,-5,0
31559,-335,-8267,343,0,28,-6,0
31565,-364,-8264,387,0,28,-6,0
31570,-392,-8264,437,0,29,-6,0
31575,-416,-8264,483,0,30,-6,0
31580,-431,-8261,522,0,31,-7,0
31585,-437,-8263,547,0,30,-7,0
31590,-433,-8265,562,0,29,-7,0
31595,-417,-8267,565,0,27,-7,0
31600,-393,-8266,557,0,26,-7,0
31605,-366,-8263,538,0,25,-7,0
31610,-335,-8264,515,-1,25,-7,0
31615,-302,-8264,501,-1,25,-7,0
31620,-271,-8264,491,-1,24,-7,0
31625,-242,-8268,483,-1,23,-7,0
31630,-217,-8270,479,-1,22,-7,0
31635,-189,-8268,474,-1,21,-7,0
31640,-151,-8270,473,-1,20,-7,0
31645,-107,-8269,457,-1,18,-7,0
31650,-62,-8267,432,-1,17,-7,0
31654,-22,-8267,401,-1,16,-7,0
31660,9,-8267,368,-1,16,-7,0
31665,35,-8266,332,-1,16,-7,0
31670,52,-8266,309,-1,17,-7,0
31675,61,-8265,293,-1,17,-7,0
31680,73,-8266,281,-1,18,-8,0
31684,87,-8267,280,-1,18,-7,0
31690,105,-8267,277,-1,17,-7,0
31695,130,-8268,280,-1,16,-7,0
31700,162,-8269,271,-1,16,-7,0
31705,193,-8268,247,-1,15,-7,0
31710,219,-8271,213,-1,15,-7,0
31715,240,-8272,181,-1,15,-7,0
31720,252,-8268,147,-1,15,-7,0
31725,263,-8269,110,-1,16,-7,0
31730,271,-8267,77,-1,17,-7,0
31734,276,-8269,55,-1,18,-7,0
31739,289,-8270,35,-1,19,-7,0
31745,315,-8271,21,-1,19,-7,0
31749,342,-8274,19,-1,19,-6,0
31755,363,-8275,27,-1,18,-6,0
31759,378,-8276,39,-1,16,-6,0
31765,379,-8279,50,-1,15,-5,0
31769,371,-8277,68,-1,14,-5,0
31774,359,-8278,90,0,13,-4,0
31780,341,-8276,116,0,12,-4,0
31785,314,-8273,137,0,11,-3,0
31790,360,-8267,140,0,11,-3,0
31795,516,-8261,124,0,14,-4,0
31800,727,-8261,123,0,16,-5,0
31805,826,-8243,100,0,15,-5,0
31809,738,-8282,86,0,12,-5,0
31815,475,-8257,104,0,10,-5,0
31819,333,-8290,111,0,10,-4,0
31825,247,-8279,149,0,12,-4,0
31829,370,-8268,153,0,15,-4,0
31834,498,-8273,173,0,19,-4,0
31840,553,-8257,180,0,18,-5,0
31844,521,-8264,191,0,17,-5,0
31850,390,-8267,192,0,14,-4,0
31855,310,-8279,203,-1,12,-4,0
31860,321,-8279,216,-1,13,-3,0
31864,411,-8297,250,-1,13,-3,0
31870,546,-8281,271,-1,13,-3,0
31874,627,-8279,289,-1,13,-4,0
31880,583,-8278,296,-1,9,-4,0
31885,503,-8280,294,-1,7,-3,0
31889,370,-8279,283,-1,6,-3,0
31895,308,-8289,283,-1,6,-3,0
31900,310,-8296,286,-1,8,-3,0
31904,367,-8278,298,-1,10,-3,0
31909,414,-8279,307,-1,12,-3,0
31915,396,-8280,299,-1,12,-3,0
31919,311,-8275,279,-1,11,-3,0
31925,225,-8285,241,-1,10,-3,0
31929,176,-8273,211,-1,11,-3,0
31934,208,-8288,182,-1,12,-3,0
31940,235,-8295,185,-1,13,-3,0
31945,270,-8280,189,-1,13,-4,0
31950,233,-8286,191,-1,13,-4,0
31955,113,-8279,188,0,12,-4,0
31960,27,-8270,173,0,12,-3,0
31965,-39,-8299,172,0,13,-3,0
31970,-40,-8286,181,0,13,-3,0
31974,50,-8272,187,0,15,-3,0
31980,74,-8278,205,0,14,-3,0
31984,53,-8273,214,0,13,-3,0
31990,-11,-8286,214,0,13,-3,0
31995,-83,-8280,207,0,12,-2,0
32000,-78,-8279,183,0,13,-2,0
32004,-76,-8289,171,0,14,-2,0
32009,-77,-8302,166,0,15,-2,0
32014,-118,-8312,159,0,16,-3,0
32019,-185,-8318,150,0,17,-2,0
32024,-241,-8322,137,0,17,-2,0
32030,-257,-8326,117,1,17,-2,0
32035,-231,-8331,94,1,18,-2,0
32039,-198,-8342,69,1,18,-2,0
32044,-184,-8350,42,1,19,-2,0
32049,-199,-8354,31,1,19,-2,0
32054,-229,-8351,22,1,19,-2,0
32059,-252,-8341,23,1,20,-1,0
32064,-248,-8332,33,1,21,-1,0
32069,-219,-8322,40,1,22,-1,0
32074,-175,-8311,38,1,22,-1,0
32079,-135,-8302,38,1,23,-1,0
32084,-115,-8292,38,1,22,-1,0
32090,-108,-8279,46,1,22,0,0
32095,-105,-8267,69,1,22,0,0
32100,-93,-8259,105,1,21,0,0
32105,-66,-8252,133,1,21,0,0
32109,-31,-8246,149,1,21,1,0
32114,-1,-8239,160,1,20,1,0
32119,21,-8230,163,1,20,1,0
32125,30,-8224,166,1,19,1,0
32129,35,-8215,176,1,19,1,0
32134,47,-8207,195,1,19,2,0
32139,64,-8198,212,1,19,2,0
32144,83,-8187,226,1,19,2,0
32149,98,-8180,241,1,20,2,0
32154,104,-8177,254,1,20,2,0
32159,109,-8176,273,1,20,3,0
32164,126,-8175,286,1,20,3,0
32170,149,-8179,303,1,20,3,0
32174,170,-8183,315,1,20,3,0
32179,185,-8196,320,0,19,4,0
32184,188,-8204,325,0,19,4,0
32189,190,-8210,323,0,18,4,0
32194,201,-8212,318,0,18,4,0
32199,218,-8209,310,0,18,4,0
32204,241,-8210,308,0,18,5,0
32210,259,-8212,307,0,18,5,0
32214,270,-8214,312,0,17,5,0
32219,275,-8215,314,-1,17,5,0
32224,286,-8220,315,-1,16,5,0
32229,299,-8228,316,-1,16,6,0
32234,312,-8232,314,-1,16,6,0
32239,321,-8235,308,-1,17,6,0
32244,310,-8406,308,-1,17,6,0
32249,259,-8390,304,-1,18,6,0
32254,445,-8355,312,-1,19,5,0
32259,559,-8361,306,-2,18,5,0
32264,594,-8337,302,-2,15,5,0
32269,542,-8303,278,-2,16,5,0
32274,481,-8308,228,-2,13,5,0
32279,385,-8332,182,-2,12,5,0
32284,441,-8285,183,-2,12,5,0
32289,559,-8369,242,-2,13,5,0
32294,568,-8324,269,-2,12,5,0
32299,665,-8287,311,-2,13,4,0
32304,586,-8340,275,-2,13,4,0
32309,522,-8322,243,-2,12,4,0
32314,524,-8313,234,-2,16,4,0
32319,479,-8370,241,-2,16,4,0
32324,495,-8355,290,-2,16,4,0
32329,547,-8340,343,-2,18,3,0
32334,562,-8338,379,-2,17,3,0
32339,570,-8333,363,-2,16,3,0
32344,529,-8327,330,-2,15,3,0
32349,509,-8320,292,-2,14,3,0
32354,500,-8313,274,-2,15,3,0
32359,494,-8301,299,-2,15,3,0
32364,513,-8284,331,-2,15,3,0
32369,521,-8267,356,-2,15,2,0
32374,504,-8255,358,-2,15,2,0
32379,499,-8361,336,-2,15,2,0
32384,433,-8347,283,-2,15,2,0
32389,596,-8275,330,-2,16,2,0
32394,631,-8504,349,-3,16,1,0
32399,624,-8367,365,-3,14,1,0
32404,849,-8251,490,-2,17,0,0
32409,805,-8252,447,-2,13,0,0
32414,689,-8291,393,-2,9,0,0
32419,653,-8358,326,-2,14,0,0
32424,657,-8381,292,-2,12,0,0
32429,762,-8399,386,-2,12,-1,0
32434,811,-8377,423,-2,12,-1,0
32439,977,-8370,499,-2,12,-2,0
32444,1085,-8368,574,-1,13,-3,0
32449,1093,-8370,593,-1,10,-4,0
32454,1118,-8354,626,0,7,-5,0
32459,1078,-8338,631,0,7,-5,0
32464,934,-8328,559,0,3,-5,0
32469,837,-8320,478,0,2,-5,0
32474,753,-8316,394,0,3,-5,0
32479,645,-8316,316,0,4,-5,0
32484,553,-8313,273,0,4,-4,0
32489,469,-8308,248,-1,5,-4,0
32494,394,-8305,246,-1,6,-4,0
32499,370,-8298,276,-1,6,-3,0
32504,372,-8291,316,-1,7,-3,0
32509,379,-8289,360,-1,6,-3,0
32514,399,-8284,408,-1,5,-3,0
32519,405,-8281,419,0,4,-3,0
32524,415,-8280,401,0,3,-3,0
32529,423,-8279,368,-1,2,-3,0
32534,399,-8281,326,-1,1,-3,0
32539,363,-8281,302,-1,-1,-3,0
32544,302,-8284,298,-1,-1,-3,0
32549,242,-8283,306,-1,-1,-3,0
32554,214,-8283,325,-1,-1,-3,0
32559,202,-8281,338,-1,0,-3,0
32564,208,-8280,362,-1,1,-3,0
32569,220,-8278,383,-1,1,-3,0
32574,230,-8276,389,-1,1,-3,0
32579,251,-8277,378,-1,0,-3,0
32584,277,-8280,344,-1,0,-3,0
32589,315,-8281,303,-1,-1,-3,0
32594,340,-8283,267,-1,-2,-3,0
32599,347,-8285,236,-1,-2,-3,0
32604,355,-8286,228,-1,-3,-3,0
32609,355,-8286,239,-1,-3,-2,0
32614,368,-8285,247,-1,-4,-2,0
32619,391,-8284,257,-1,-4,-2,0
32624,394,-8286,263,-1,-4,-2,0
32629,395,-8283,267,-1,-5,-2,0
32634,385,-8282,275,-1,-5,-2,0
32639,378,-8282,267,-1,-5,-2,0
32644,391,-8284,252,-1,-5,-2,0
32649,399,-8284,237,-1,-5,-2,0
32654,410,-8285,218,-1,-6,-2,0
32659,410,-8285,213,-1,-6,-2,0
32664,404,-8286,206,-1,-6,-2,0
32669,407,-8287,203,-1,-6,-2,0
32674,419,-8288,208,-1,-5,-1,0
32679,436,-8285,214,-1,-5,-1,0
32684,444,-8284,218,-1,-5,-1,0
32689,437,-8285,223,-1,-6,-1,0
32694,417,-8282,228,-1,-6,-1,0
32699,400,-8283,222,-1,-6,-1,0
32704,395,-8282,213,-1,-7,-1,0
32709,389,-8282,197,-1,-7,-1,0
32714,374,-8280,176,-1,-7,-1,0
32719,348,-8276,167,-1,-8,-1,0
32724,313,-8274,151,-1,-8,-1,0
32729,286,-8278,130,-1,-9,-1,0
32734,268,-8280,111,-1,-9,-1,0
32739,241,-8280,89,-1,-8,-1,0
32744,216,-8280,76,-1,-8,-1,0
32749,181,-8280,70,-1,-7,-1,0
32754,151,-8279,63,-1,-6,-1,0
32759,140,-8278,62,-1,-6,-1,0
32764,137,-8282,55,-1,-5,-1,0
32769,146,-8280,53,-1,-5,-1,0
32774,148,-8282,60,-1,-5,-1,0
32779,139,-8282,68,-1,-5,-1,0
32784,132,-8284,66,-1,-5,-1,0
32789,127,-8285,64,-1,-5,-1,0
32794,131,-8284,56,0,-5,-1,0
32799,129,-8287,43,0,-5,-1,0
32804,107,-8288,41,0,-5,-1,0
32809,75,-8284,41,0,-5,-2,0
32814,39,-8283,40,0,-5,-2,0
32819,8,-8284,40,0,-4,-2,0
32824,-11,-8282,31,0,-3,-2,0
32829,-34,-8280,30,0,-2,-2,0
32834,-62,-8281,35,0,-2,-2,0
32839,-86,-8282,42,0,-1,-2,0
32844,-101,-8284,52,0,0,-2,0
32849,-95,-8284,61,0,1,-2,0
32854,-79,-8286,66,0,1,-2,0
32859,-67,-8286,70,0,2,-2,0
32864,-70,-8288,75,0,1,-2,0
32869,-83,-8290,79,0,1,-3,0
32874,-112,-8290,76,0,0,-3,0
32879,-150,-8289,60,0,0,-3,0
32884,-199,-8289,34,1,1,-3,0
32889,-270,-8289,7,1,2,-3,0
32894,-355,-8288,-18,1,3,-4,0
32899,-438,-8290,-31,1,5,-4,0
32904,-510,-8292,-41,1,8,-4,0
32909,-551,-8293,-39,1,10,-4,0
32914,-566,-8290,-30,1,13,-4,0
32919,-564,-8288,-11,1,14,-5,0
32924,-547,-8285,12,1,16,-5,0
32929,-517,-8282,30,1,17,-5,0
32934,-468,-8281,48,1,18,-5,0
32939,-397,-8281,61,1,19,-5,0
32944,-329,-8282,64,1,20,-5,0
32949,-267,-8283,70,1,19,-6,0
32954,-215,-8285,89,1,19,-6,0
32959,-164,-8284,115,1,19,-5,0
32964,-102,-8284,142,1,18,-5,0
32969,-35,-8282,182,1,18,-5,0
32974,35,-8279,221,1,18,-5,0
32979,97,-8278,266,1,18,-5,0
32984,150,-8279,316,1,17,-5,0
32989,208,-8279,360,1,17,-5,0
32994,271,-8280,401,1,16,-5,0
32999,339,-8278,440,1,15,-5,0
33004,401,-8277,465,1,14,-5,0
33009,450,-8277,494,0,12,-5,0
33014,495,-8277,526,0,11,-4,0
33019,537,-8276,554,0,9,-4,0
33024,584,-8279,583,0,8,-4,0
33029,630,-8281,608,0,7,-4,0
33034,669,-8282,625,0,6,-4,0
33039,698,-8281,653,0,5,-4,0
33044,724,-8284,675,-1,4,-3,0
33049,752,-8286,693,-1,2,-3,0
33054,786,-8287,707,-1,1,-3,0
33059,826,-8287,718,-1,-1,-3,0
33064,858,-8287,732,-1,-2,-3,0
33069,874,-8285,752,-1,-4,-2,0
33074,881,-8285,765,-1,-5,-2,0
33079,882,-8285,770,-1,-6,-2,0
33084,875,-8286,768,-1,-8,-2,0
33089,861,-8286,751,-1,-9,-2,0
33094,831,-8283,723,-2,-10,-2,0
33099,777,-8282,693,-2,-11,-2,0
33104,721,-8281,655,-2,-12,-1,0
33109,664,-8280,609,-2,-12,-1,0
33114,617,-8280,567,-2,-12,-1,0
33119,581,-8282,523,-2,-11,-1,0
33124,546,-8281,489,-2,-10,-1,0
33129,513,-8281,460,-2,-10,-1,0
33134,481,-8280,438,-2,-9,-1,0
33139,462,-8278,417,-2,-9,-1,0
33144,454,-8282,385,-2,-8,-1,0
33149,445,-8286,354,-2,-7,-1,0
33154,430,-8288,318,-2,-6,-1,0
33159,408,-8286,287,-2,-6,-1,0
33164,385,-8284,262,-2,-6,-1,0
33169,368,-8284,240,-2,-6,-1,0
33174,356,-8283,216,-2,-6,-1,0
33179,339,-8284,202,-2,-5,-1,0
33184,317,-8285,198,-2,-5,-1,0
33189,289,-8288,196,-2,-4,-1,0
33194,260,-8291,197,-2,-4,-1,0
33199,243,-8288,189,-1,-3,-1,0
33204,240,-8286,182,-1,-2,-1,0
33209,236,-8285,175,-1,-2,-1,0
33214,234,-8287,166,-1,-2,-1,0
33219,234,-8287,160,-1,-2,-1,0
33224,234,-8285,156,-1,-1,-1,0
33229,243,-8287,148,-1,-1,-1,0
33234,251,-8289,141,-1,-1,-1,0
33239,250,-8290,139,-1,0,-2,0
33244,239,-8290,147,-1,0,-2,0
33249,217,-8288,155,-1,0,-1,0
33254,208,-8289,166,-1,0,-1,0
33259,212,-8289,178,-1,0,-1,0
33264,217,-8289,186,-1,0,-1,0
33269,224,-8288,190,-1,0,-1,0
33274,227,-8287,200,-1,0,-1,0
33279,233,-8291,206,-1,0,-1,0
33284,243,-8289,217,-1,-1,-2,0
33289,259,-8288,228,-1,-1,-1,0
33294,277,-8286,237,-1,-1,-1,0
33299,286,-8285,255,-1,-2,-1,0
33304,286,-8287,270,-1,-2,-1,0
33309,286,-8288,283,-1,-3,-1,0
33314,289,-8289,294,-1,-3,-1,0
33319,299,-8289,303,-1,-3,-1,0
33324,307,-8289,307,-1,-3,-1,0
33329,308,-8290,313,-1,-4,-1,0
33334,301,-8289,317,-1,-4,-1,0
33339,290,-8289,312,-1,-4,-1,0
33344,286,-8289,312,-1,-5,-1,0
33349,287,-8286,306,-1,-4,-1,0
33354,282,-8286,297,-1,-4,-1,0
33359,271,-8291,296,-1,-5,-1,0
33364,259,-8290,298,-1,-4,-1,0
33369,253,-8288,296,-1,-4,-1,0
33374,251,-8285,300,-1,-4,-1,0
33379,260,-8283,302,-1,-4,-1,0
33384,272,-8282,301,-1,-4,-1,0
33389,281,-8282,301,-1,-4,-1,0
33394,280,-8284,296,-1,-5,-1,0
33399,274,-8282,284,-1,-5,-1,0
33404,274,-8282,274,-1,-5,-1,0
33409,276,-8282,259,-1,-5,-1,0
33414,266,-8286,244,-1,-5,-1,0
33419,254,-8284,237,-1,-4,-1,0
33424,242,-8285,233,-1,-4,-1,0
33429,233,-8285,235,-1,-3,-1,0
33434,238,-8286,234,-1,-3,-1,0
33439,248,-8289,231,-1,-2,-1,0
33444,260,-8291,231,-1,-2,-1,0
33449,274,-8291,229,-1,-2,-1,0
33454,284,-8288,230,-1,-2,-1,0
33459,295,-8286,230,-1,-2,-1,0
33464,313,-8283,224,-1,-2,-1,0
33469,325,-8286,218,-1,-2,-1,0
33474,331,-8288,219,-1,-2,-1,0
33479,330,-8287,221,-1,-2,-1,0
33484,321,-8288,230,-1,-2,-1,0
33489,313,-8286,234,-1,-2,-1,0
33494,310,-8287,237,-1,-2,-1,0
33499,306,-8286,240,-1,-2,-1,0
33504,298,-8284,244,-1,-2,-1,0
33509,282,-8284,251,-1,-2,-1,0
33514,266,-8283,255,-1,-2,-1,0
33519,258,-8282,259,-1,-2,-1,0
33524,265,-8283,265,-1,-2,-1,0
33529,275,-8281,273,-1,-2,-1,0
33534,281,-8281,283,-1,-2,-1,0
33539,283,-8283,288,-1,-2,-1,0
33544,283,-8284,297,-1,-2,-1,0
33549,289,-8285,302,-1,-2,-1,0
33554,293,-8282,307,-1,-1,-1,0
33559,299,-8284,305,-1,-1,-1,0
33564,299,-8282,304,-1,-2,-1,0
33569,291,-8280,308,-1,-2,-1,0
33574,283,-8282,311,-1,-2,-1,0
33579,283,-8282,309,-1,-2,-1,0
33584,292,-8286,303,-1,-2,-1,0
33589,297,-8286,298,-1,-2,-1,1
33594,292,-8285,293,-1,-2,-1,1
33599,283,-8283,288,-1,-2,-1,1
33604,279,-8282,281,-1,-2,-1,1
33609,280,-8283,278,-1,-2,-1,1
33614,285,-8282,277,-1,-2,-1,1
33619,293,-8283,273,-1,-2,-1,1
33624,298,-8282,276,-1,-2,-1,1
33629,298,-8282,280,-1,-2,-1,1
33634,303,-8283,274,-1,-2,-1,1
33639,310,-8282,267,-1,-2,-1,1
33644,313,-8282,258,-1,-2,-1,1
33649,308,-8281,247,-1,-2,-1,1
33654,290,-8281,243,-1,-3,-1,1
33659,264,-8286,234,-1,-3,-1,1
33664,242,-8289,228,-1,-3,-1,1
33669,222,-8287,222,-1,-4,-1,1
33674,202,-8286,218,-1,-4,-1,1
33679,182,-8286,217,-1,-4,-1,1
33684,163,-8286,214,-1,-4,-1,1
33689,146,-8287,216,-1,-4,-1,1
33694,136,-8288,217,-1,-3,-1,1
33699,133,-8291,217,-1,-3,-1,1
33704,134,-8294,220,-1,-3,-2,1
33709,132,-8292,224,-1,-2,-2,1
33714,129,-8292,223,-1,-2,-2,1
33719,126,-8292,221,-1,-1,-2,1
33724,129,-8290,219,-1,-1,-2,1
33729,138,-8288,214,-1,-1,-2,1
33734,151,-8287,208,-1,-1,-2,1
33739,161,-8287,205,-1,-1,-2,1
33744,164,-8289,194,-1,-1,-2,1
33749,169,-8291,184,-1,-2,-2,1
33754,181,-8293,171,-1,-2,-2,1
33759,193,-8295,162,-1,-2,-2,1
33764,201,-8294,149,-1,-2,-2,1
33769,203,-8294,142,-1,-2,-2,1
33774,195,-8292,142,-1,-2,-2,1
33779,192,-8290,145,-1,-1,-2,1
33784,202,-8288,149,-1,-1,-2,1
33789,216,-8288,152,0,-1,-2,1
33794,233,-8288,163,0,-1,-2,1
33799,246,-8291,176,0,-1,-2,1
33804,257,-8291,194,0,-1,-2,1
33809,269,-8291,209,0,-1,-2,1
33814,284,-8289,225,0,0,-2,1
33819,293,-8286,237,0,0,-2,1
33824,296,-8286,243,0,0,-2,1
33829,290,-8287,250,0,0,-2,1
33834,277,-8287,256,0,0,-2,1
33839,263,-8286,258,0,1,-2,1
33844,249,-8286,261,0,1,-2,1
33849,242,-8287,263,0,2,-2,1
33854,240,-8286,272,0,2,-2,1
33859,238,-8287,288,0,2,-2,1
33864,240,-8285,305,0,2,-2,1
33869,249,-8282,321,0,3,-2,1
33874,262,-8281,334,0,3,-2,1
33879,275,-8282,342,-1,3,-2,1
33884,285,-8284,356,-1,3,-2,1
33889,284,-8284,367,-1,3,-2,1
33894,280,-8284,380,-1,2,-2,1
33899,278,-8283,391,-1,2,-2,1
33904,277,-8282,400,-1,2,-2,1
33909,277,-8281,408,-1,2,-2,1
33914,275,-8279,413,-1,2,-2,1
33919,271,-8280,416,-1,2,-2,1
33924,270,-8278,408,-1,2,-2,1
33929,271,-8277,406,-1,2,-2,1
33934,278,-8280,402,-1,2,-2,1
33939,283,-8281,396,-1,2,-2,1
33944,286,-8282,394,-1,2,-2,1
33949,291,-8284,387,-1,2,-2,1
33954,299,-8285,375,-1,2,-2,1
33959,307,-8286,367,-1,2,-2,1
33964,320,-8285,357,-1,2,-2,1
33969,333,-8283,349,-1,1,-2,1
33974,340,-8282,348,-1,1,-2,1
33979,339,-8282,344,-1,1,-2,1
33984,337,-8282,344,-1,1,-2,1
33989,337,-8282,336,-1,0,-2,1
33994,336,-8280,324,-1,0,-2,1
33999,331,-8281,317,-1,1,-2,1
34004,320,-8281,309,-1,1,-2,1
34009,312,-8282,298,-1,1,-2,1
34014,310,-8285,290,-1,1,-2,1
34019,314,-8286,290,-1,1,-2,1
34024,321,-8286,290,-1,1,-2,1
34029,325,-8285,293,-1,1,-2,1
34034,319,-8286,302,-1,1,-2,1
34039,318,-8285,310,-1,1,-2,1
34044,323,-8287,315,-1,0,-2,1
34049,328,-8288,317,-1,0,-2,1
34054,333,-8287,322,-1,0,-2,1
34059,338,-8287,329,-1,0,-2,1
34064,340,-8285,333,-1,0,-2,1
34069,338,-8282,332,-1,1,-2,1
34074,344,-8280,330,-1,1,-2,1
34079,359,-8280,330,-1,1,-2,1
34084,373,-8280,333,-1,1,-2,1
34089,386,-8280,341,-1,0,-2,1
34094,392,-8278,347,-1,0,-2,1
34099,398,-8276,350,-1,0,-2,1
34104,408,-8274,351,-1,-1,-2,1
34109,414,-8274,347,-1,-1,-2,1
34114,418,-8276,350,-1,-2,-2,1
34119,414,-8279,348,-1,-2,-2,1
34124,406,-8281,352,-1,-2,-2,1
34129,398,-8282,357,-1,-2,-1,1
34134,392,-8284,364,-1,-2,-1,1
34139,391,-8282,366,-1,-3,-1,1
34144,391,-8282,369,-1,-3,-1,1
34149,390,-8282,368,-1,-3,-1,1
34154,386,-8283,370,-1,-3,-1,1
34159,382,-8285,368,-1,-3,-1,1
34164,383,-8286,365,-1,-3,-1,1
34169,381,-8286,359,-1,-3,-1,1
34174,373,-8285,358,-1,-3,-1,1
34179,362,-8286,361,-1,-3,-1,1
34184,346,-8286,374,-1,-3,-1,1
34189,332,-8284,388,-1,-3,-1,1
34194,323,-8284,393,-1,-3,-1,1
34199,318,-8284,402,-1,-4,-1,1
34204,315,-8281,414,-1,-5,-1,1
34209,309,-8280,416,-1,-6,-1,1
34214,300,-8281,419,-1,-8,-1,1
34219,293,-8282,413,-1,-9,-1,1
34224,281,-8282,396,-1,-10,-1,1
34229,270,-8281,368,-1,-11,-2,1
34234,258,-8283,340,-1,-12,-2,1
34239,238,-8281,311,-1,-14,-2,1
34244,211,-8281,280,-1,-15,-2,1
34249,182,-8282,248,-1,-16,-2,1
34254,149,-8284,210,-1,-16,-2,1
34259,114,-8285,173,-1,-16,-2,1
34264,75,-8287,138,-1,-15,-2,1
34269,33,-8287,113,-1,-14,-2,1
34274,-1,-8288,98,-1,-11,-2,1
34279,-24,-8287,99,-1,-7,-2,1
34284,-15,-8287,105,-1,-2,-2,1
34289,62,-8284,128,-1,7,-2,1
34294,201,-8281,189,0,18,-2,1
34299,406,-8276,281,0,32,0,1
34304,709,-8278,394,0,52,1,1
34309,1174,-8272,540,0,81,2,1
34314,1822,-8272,730,0,120,4,1
34319,2589,-8277,996,-1,161,5,1
34324,3322,-8288,1411,-2,198,6,1
34329,3917,-8296,2049,-5,226,6,1
34334,5275,-8281,2693,-7,241,7,1
34339,6862,-8219,3529,-10,254,19,1
34344,8221,-8183,4711,-14,251,30,1
34349,9387,-8117,6029,-17,202,34,1
34354,10386,-7990,7272,-22,154,39,1
34359,11242,-7625,8400,-25,61,44,1
34364,11976,-7339,9350,-29,-35,50,1
34369,12606,-7026,9871,-33,-141,60,1
34374,13145,-6923,10184,-37,-229,69,1
34379,13055,-6838,10331,-40,-288,81,1
34384,13061,-6634,10706,-42,-315,83,1
34389,13283,-6262,10999,-43,-299,83,1
34394,13383,-5743,11276,-41,-269,86,1
34399,11470,-5358,11877,-41,-255,81,1
34404,9358,-5036,12284,-41,-273,70,1
34409,7381,-5187,12192,-39,-275,69,1
34414,3987,-5068,11942,-33,-304,77,1
34419,1078,-4930,11769,-27,-333,83,1
34424,-1415,-4850,10452,-23,-314,87,1
34429,-3553,-4905,8425,-19,-287,89,1
34434,-5385,-5016,6114,-16,-240,86,1
34439,-6944,-5191,3417,-15,-176,80,1
34444,-8080,-5397,774,-16,-144,75,1
34449,-8866,-5603,-1475,-17,-124,69,1
34454,-9611,-5783,-3126,-18,-107,65,1
34459,-10318,-5929,-3865,-17,-94,60,1
34464,-10996,-6054,-3993,-14,-73,55,1
34469,-11617,-6178,-3741,-10,-57,51,1
34474,-12099,-6293,-3239,-5,-48,47,1
34479,-12502,-6423,-2728,0,-43,44,1
34484,-12843,-6568,-2502,3,-42,41,1
34489,-13146,-6736,-2484,5,-38,37,1
34494,-13434,-6912,-2517,4,-30,33,1
34499,-13578,-7067,-2427,1,-26,29,1
34504,-13674,-7192,-1998,-2,-24,26,1
34509,-13721,-7284,-1252,-4,-26,23,1
34514,-13627,-7347,-355,-4,-27,20,1
34519,-13508,-7406,503,-3,-27,18,1
34524,-13234,-7459,1153,-2,-28,15,1
34529,-12756,-7511,1498,0,-23,12,1
34534,-12211,-7578,1451,1,-22,10,1
34539,-11496,-7648,1036,1,-24,8,1
34544,-10743,-7720,478,0,-22,6,1
34549,-9960,-7785,21,-2,-23,5,1
34554,-9132,-7826,-240,-4,-23,3,1
34559,-8426,-7843,-132,-5,-22,2,1
34564,-7743,-7838,292,-6,-24,1,1
34569,-7163,-7824,778,-5,-24,0,1
34574,-6730,-7814,1235,-3,-28,-1,1
34579,-6285,-7811,1502,-2,-29,-1,1
34584,-5886,-7824,1454,-1,-27,-1,1
34589,-5479,-7848,1177,0,-29,-1,1
34594,-5042,-7877,748,-1,-27,-2,1
34599,-4638,-7901,345,-2,-25,-2,1
34604,-4210,-7914,57,-4,-24,-2,1
34609,-3843,-7919,-67,-5,-21,-2,1
34614,-3530,-7909,31,-5,-19,-3,1
34619,-3231,-7895,243,-4,-16,-3,1
34624,-3011,-7880,471,-3,-13,-3,1
34629,-2802,-7869,638,-2,-11,-3,1
34634,-2594,-7868,642,0,-9,-2,1
34639,-2412,-7878,475,0,-9,-2,1
34644,-2216,-7893,192,0,-9,-2,1
34649,-2045,-7911,-94,-1,-8,-1,1
34654,-1912,-7923,-265,-2,-7,-2,1
34659,-1801,-7925,-286,-3,-6,-2,1
34664,-1751,-7918,-129,-3,-6,-2,1
34669,-1761,-7906,165,-3,-5,-2,1
34674,-1784,-7892,451,-3,-6,-2,1
34679,-1839,-7887,683,-2,-7,-1,1
34684,-1900,-7885,804,-1,-7,-1,1
34689,-1894,-7886,761,-1,-8,-1,1
34694,-1888,-7894,636,-1,-8,0,1
34699,-1855,-7904,462,-1,-9,0,1
34704,-1792,-7912,282,-2,-8,-1,1
34709,-1796,-7917,214,-3,-7,-1,1
34714,-1802,-7914,243,-3,-7,-1,1
34719,-1838,-7908,343,-3,-5,-1,1
34724,-1949,-7899,516,-3,-5,-1,1
34729,-2014,-7894,622,-2,-5,-1,1
34734,-2095,-7893,648,-2,-4,-1,1
34739,-2165,-7899,606,-1,-4,-1,1
34744,-2156,-7904,454,-1,-4,-1,1
34749,-2147,-7916,312,-2,-4,-1,1
34754,-2099,-7923,226,-2,-4,-1,1
34759,-2018,-7922,178,-3,-4,-1,1
34764,-1991,-7917,242,-3,-4,-1,1
34769,-1984,-7910,351,-3,-5,-2,1
34774,-2006,-7904,437,-2,-6,-2,1
34779,-2087,-7901,520,-2,-6,-2,1
34784,-2146,-7900,516,-1,-6,-2,1
34789,-2181,-7902,431,-1,-6,-1,1
34794,-2213,-7907,325,-1,-6,-1,1
34799,-2186,-7911,170,-1,-5,-1,1
34804,-2141,-7916,47,-2,-4,-1,1
34809,-2099,-7921,14,-2,-3,-1,1
34814,-2028,-7919,30,-2,-2,-2,1
34819,-1993,-7915,133,-2,-1,-2,1
34824,-1987,-7912,293,-2,-1,-2,1
34829,-1979,-7905,408,-1,-2,-2,1
34834,-2006,-7905,497,-1,-2,-2,1
34839,-2008,-7905,527,-1,-3,-2,1
34844,-1981,-7905,478,-1,-3,-1,1
34849,-1949,-7907,431,-1,-4,-1,1
34854,-1876,-7908,382,-1,-4,-1,1
34859,-1810,-7912,345,-1,-4,-1,1
34864,-1768,-7914,369,-2,-5,-1,1
34869,-1735,-7909,406,-2,-5,-1,1
34874,-1739,-7905,482,-2,-6,-1,1
34879,-1765,-7902,576,-2,-6,-1,1
34884,-1793,-7899,644,-2,-7,-1,1
34889,-1829,-7900,688,-1,-7,-1,1
34894,-1837,-7902,694,-1,-8,-1,1
34899,-1826,-7905,664,-1,-9,0,1
34904,-1805,-7906,626,-2,-9,0,1
34909,-1775,-7910,603,-2,-9,0,1
34914,-1770,-7910,600,-2,-9,-1,1
34919,-1798,-7909,624,-2,-9,-1,1
34924,-1848,-7905,642,-2,-8,-1,1
34929,-1928,-7904,652,-2,-8,-1,1
34934,-2007,-7908,623,-2,-7,-1,1
34939,-2068,-7906,566,-2,-6,-1,1
34944,-2114,-7907,490,-2,-5,-1,1
34949,-2120,-7913,408,-2,-4,-1,1
34954,-2099,-7915,333,-2,-3,-1,1
34959,-2070,-7918,284,-2,-3,-1,1
34964,-2020,-7918,261,-2,-3,-1,1
34969,-1990,-7912,277,-2,-3,-1,1
34974,-1994,-7909,316,-2,-4,-1,1
34979,-2006,-7906,354,-1,-4,-1,1
34984,-2048,-7906,379,-1,-4,-1,1
34989,-2093,-7906,376,-1,-4,-1,1
34994,-2124,-7907,345,-1,-4,-1,1
34999,-2164,-7910,317,-1,-4,-1,1
35004,-2176,-7914,279,-1,-4,-1,1
35009,-2169,-7918,261,-1,-3,-1,1
35014,-2159,-7917,268,-1,-3,-1,1
35019,-2139,-7918,277,-1,-2,-1,1
35024,-2123,-7916,290,-1,-2,-2,1
35029,-2127,-7916,306,-1,-2,-2,1
35034,-2135,-7915,306,-1,-1,-2,1
35039,-2156,-7916,309,-1,-1,-2,1
35044,-2178,-7918,314,-1,-1,-2,1
35049,-2182,-7918,319,-1,-1,-2,1
35054,-2179,-7917,352,-1,-1,-2,1
35059,-2158,-7913,408,-1,-2,-2,1
35064,-2112,-7910,476,-1,-2,-2,1
35069,-2064,-7909,565,-1,-3,-2,1
35074,-2009,-7904,639,-1,-5,-2,1
35079,-1951,-7901,684,-1,-6,-2,1
35084,-1926,-7900,703,-1,-7,-2,1
35089,-1920,-7902,676,-1,-8,-2,1
35094,-1929,-7904,632,-1,-8,-2,1
35099,-1955,-7907,594,-1,-7,-2,1
35104,-1967,-7909,555,-1,-7,-2,1
35109,-1966,-7909,529,-2,-6,-1,1
35114,-1953,-7909,532,-2,-5,-1,1
35119,-1930,-7908,537,-2,-4,-2,1
35124,-1906,-7910,553,-1,-3,-1,1
35129,-1886,-7908,567,-1,-3,-2,1
35134,-1870,-7909,569,-1,-3,-2,1
35139,-1863,-7907,573,-1,-3,-2,1
35144,-1870,-7905,568,-1,-3,-1,1
35149,-1890,-7908,551,-1,-3,-1,1
35154,-1915,-7910,544,-1,-3,-1,1
35159,-1935,-7911,531,-1,-3,-1,1
35164,-1944,-7913,521,-1,-2,-1,1
35169,-1935,-7913,514,-1,-1,-1,1
35174,-1915,-7913,501,-1,-1,-1,1
35179,-1885,-7913,477,-1,-1,-1,1
35184,-1853,-7913,455,-1,-2,-1,1
35189,-1822,-7914,442,-1,-3,-1,1
35194,-1793,-7914,436,-1,-3,-1,1
35199,-1767,-7914,451,-1,-3,-1,1
35204,-1750,-7914,477,-1,-4,-1,1
35209,-1741,-7911,509,-1,-5,-1,1
35214,-1735,-7907,541,-1,-6,-1,1
35219,-1737,-7905,568,-1,-7,-1,1
35224,-1735,-7902,581,-1,-8,0,1
35229,-1738,-7900,579,-1,-9,0,1
35234,-1755,-7901,560,-1,-9,0,1
35239,-1776,-7903,527,-1,-9,0,1
35244,-1804,-7906,485,-1,-9,0,1
35249,-1840,-7908,448,-1,-9,0,1
35254,-1865,-7908,421,-1,-8,0,1
35259,-1890,-7906,407,-1,-8,0,1
35264,-1900,-7905,403,-1,-6,0,1
35269,-1894,-7904,388,-1,-5,0,1
35274,-1893,-7904,384,-1,-5,0,1
35279,-1888,-7902,379,-1,-5,0,1
35284,-1889,-7903,372,-1,-5,0,1
35289,-1919,-7906,382,-1,-5,0,1
35294,-1959,-7905,396,-1,-5,0,1
35299,-2005,-7904,421,-1,-4,0,1
35304,-2057,-7903,453,-1,-4,0,1
35309,-2087,-7901,473,-1,-3,0,1
35314,-2106,-7900,488,-1,-3,0,1
35319,-2121,-7901,503,-1,-2,0,1
35324,-2124,-7901,502,-1,-2,-1,1
35329,-2131,-7901,489,-1,-1,-1,1
35334,-2140,-7904,473,-1,0,-1,1
35339,-2144,-7904,447,-1,0,-1,1
35344,-2150,-7905,443,-1,0,-1,1
35349,-2153,-7902,445,-1,0,-1,1
35354,-2142,-7900,449,-1,0,-1,1
35359,-2128,-7899,472,-1,0,-1,1
35364,-2103,-7899,507,-1,0,-1,1
35369,-2073,-7897,539,-1,-1,-1,1
35374,-2062,-7898,570,-1,-3,-1,1
35379,-2076,-7897,595,-1,-4,-1,1
35384,-2114,-7896,603,-1,-4,-1,1
35389,-2176,-7895,595,-1,-4,-1,1
35394,-2244,-7894,575,-1,-3,-2,1
35399,-2304,-7895,554,-1,-2,-1,1
35404,-2347,-7897,538,-1,-2,-1,1
35409,-2366,-7899,525,-1,-1,-1,1
35414,-2361,-7901,518,-1,-1,-1,1
35419,-2340,-7903,516,-1,-1,-2,1
35424,-2295,-7905,510,-1,0,-2,1
35429,-2241,-7903,499,-1,0,-2,1
35434,-2198,-7905,493,-1,-1,-2,1
35439,-2169,-7907,479,-1,-1,-2,1
35444,-2153,-7907,466,-1,-1,-2,1
35449,-2154,-7908,452,-1,-1,-2,1
35454,-2159,-7910,443,-1,-1,-2,1
35459,-2167,-7910,440,-1,0,-2,1
35464,-2181,-7907,455,-1,1,-2,1
35469,-2191,-7906,472,-1,2,-2,1
35474,-2187,-7904,498,-1,3,-2,1
35479,-2171,-7905,515,-1,3,-2,1
35484,-2132,-7905,516,-1,3,-2,1
35489,-2081,-7905,513,-1,3,-2,1
35494,-2030,-7903,501,-1,3,-2,1
35499,-1977,-7900,485,-1,3,-2,1
35504,-1934,-7899,477,-1,2,-2,1
35509,-1896,-7899,482,-1,2,-2,1
35514,-1862,-7899,492,-1,1,-2,1
35519,-1840,-7899,523,-1,1,-2,1
35524,-1824,-7898,558,-1,0,-2,1
35529,-1813,-7898,585,-1,-1,-2,1
35534,-1811,-7898,614,-1,-1,-2,1
35539,-1808,-7898,634,-1,-1,-2,1
35544,-1805,-7896,647,-1,-1,-2,1
35549,-1807,-7895,659,-1,-1,-1,1
35554,-1818,-7895,662,-1,-2,-1,1
35559,-1830,-7894,675,-1,-2,-1,1
35564,-1836,-7893,695,-1,-1,-1,1
35569,-1828,-7893,705,-1,-1,-1,1
35574,-1804,-7894,712,-1,-2,-1,1
35579,-1784,-7895,716,-1,-3,-1,1
35583,-1772,-7896,715,-1,-3,-1,1
35589,-1771,-7895,716,-1,-4,-1,0
35594,-1792,-7895,713,-1,-4,-1,0
35598,-1822,-7898,707,-1,-5,-1,0
35603,-1859,-7902,706,-2,-4,-1,0
35609,-1901,-7901,709,-2,-5,-1,0
35614,-1940,-7897,709,-2,-5,-1,0
35619,-1970,-7894,711,-2,-5,-1,0
35624,-1993,-7897,708,-2,-4,-1,0
35629,-2002,-7895,690,-2,-3,-1,0
35634,-2010,-7897,680,-2,-2,-1,0
35639,-2021,-7896,664,-2,-2,-1,0
35643,-2030,-7899,641,-2,-3,-1,0
35648,-2039,-7899,619,-2,-3,-1,0
35654,-2047,-7899,599,-2,-3,-1,0
35659,-2045,-7900,577,-2,-3,-1,0
35664,-2036,-7900,565,-2,-3,-1,0
35669,-2027,-7898,555,-2,-3,-1,0
35674,-2012,-7895,548,-2,-3,-1,0
35679,-2006,-7897,546,-2,-3,-1,0
35684,-2006,-7898,538,-2,-4,-1,0
35688,-2006,-7898,531,-2,-4,-1,0
35694,-2016,-7899,522,-2,-4,-1,0
35699,-2027,-7898,509,-2,-4,-1,0
35704,-2040,-7897,490,-2,-4,-1,0
35709,-2052,-7897,468,-1,-4,-1,0
35713,-2054,-7896,450,-1,-3,-1,0
35718,-2050,-7897,428,-1,-3,-1,0
35723,-2047,-7898,417,-1,-3,-1,0
35729,-2044,-7901,408,-1,-3,-1,0
35733,-2039,-7901,402,-1,-2,-1,0
35739,-2041,-7901,407,-1,-2,-1,0
35743,-2037,-7901,409,-1,-2,-1,0
35749,-2026,-7906,406,-1,-2,-1,0
35753,-2021,-7909,414,-1,-2,-1,0
35758,-2016,-7913,422,-1,-2,-1,0
35763,-2011,-7914,426,-1,-2,-1,0
35768,-2012,-7914,442,-1,-3,-1,0
35774,-2014,-7914,458,-1,-3,-2,0
35778,-2018,-7911,470,-1,-3,-1,0
35783,-2027,-7908,485,-1,-3,-1,0
35788,-2037,-7904,484,-1,-3,-2,0
35793,-2045,-7905,478,-1,-2,-2,0
35798,-2055,-7906,472,-1,-2,-2,0
35804,-2055,-7903,455,-1,-1,-2,0
35809,-2056,-7903,442,-1,0,-2,0
35814,-2058,-7905,427,-1,1,-2,0
35818,-2053,-7904,417,-1,1,-2,0
35824,-2044,-7904,419,-1,1,-2,0
35828,-2034,-7901,428,-1,1,-2,0
35834,-2022,-7901,448,-1,1,-2,0
35838,-2011,-7899,474,-1,1,-2,0
35843,-2006,-7897,497,-1,1,-2,0
35849,-2003,-7900,526,-1,1,-2,0
35854,-2007,-7899,554,-1,1,-2,0
35858,-2013,-7899,577,-1,0,-2,0
35863,-2021,-7900,593,-1,0,-2,0
35868,-2028,-7900,606,-1,-1,-2,0
35873,-2031,-7901,623,-1,-1,-2,0
35879,-2040,-7900,627,-1,-1,-2,0
35884,-2052,-7900,627,-1,0,-2,0
35888,-2055,-7901,621,-1,0,-2,0
35894,-2055,-7903,609,-1,0,-2,0
35899,-2052,-7905,596,-1,0,-2,0
35903,-2040,-7904,580,-1,0,-2,0
35908,-2018,-7905,569,-1,0,-1,0
35913,-1991,-7904,561,-1,0,-1,0
35918,-1956,-7905,555,-1,0,-1,0
35923,-1922,-7905,554,-1,0,-2,0
35928,-1896,-7905,553,-1,0,-2,0
35933,-1881,-7906,551,-1,-1,-2,0
35938,-1881,-7907,551,-1,-1,-2,0
35943,-1892,-7908,551,-1,-1,-2,0
35948,-1906,-7908,545,-1,-1,-2,0
35953,-1931,-7906,544,-1,0,-2,0
35959,-1951,-7905,545,-1,-1,-1,0
35963,-1964,-7907,551,-1,-1,-1,0
35969,-1970,-7906,564,-1,-1,-1,0
35973,-1964,-7904,569,-1,-1,-1,0
35978,-1941,-7904,567,-1,-1,-1,0
35983,-1923,-7902,562,-1,-1,-1,0
35988,-1907,-7902,552,-1,-2,-1,0
35993,-1895,-7905,541,-1,-2,-1,0
35998,-1898,-7905,536,-1,-3,-1,0
36003,-1905,-7903,534,-1,-3,-1,0
36008,-1913,-7904,535,-1,-3,-1,0
36013,-1928,-7905,535,-1,-3,-1,0
36018,-1947,-7905,529,-1,-2,-1,0
36023,-1958,-7903,527,-1,-2,-1,0
36028,-1970,-7902,527,-1,-2,-1,0
36033,-1978,-7902,529,-1,-2,-1,0
36038,-1982,-7901,530,-1,-2,-1,0
36043,-1985,-7900,529,-1,-3,-1,0
36048,-1985,-7901,522,-1,-3,-1,0
36053,-1986,-7902,520,-1,-3,-1,0
36058,-1992,-7904,519,-1,-4,-1,0
36063,-1995,-7902,505,-1,-4,-1,0
36068,-2007,-7902,492,-1,-3,-1,0
36073,-2025,-7905,480,-1,-3,-1,0
36078,-2042,-7906,465,-1,-2,-1,0
36083,-2052,-7907,458,-1,-1,-1,0
36088,-2054,-7908,460,-1,-1,-1,0
36093,-2049,-7906,469,-1,-1,-1,0
36098,-2043,-7905,486,-1,-1,-1,0
36103,-2036,-7906,506,-1,-1,-1,0
36108,-2026,-7905,520,-1,-1,-1,0
36113,-2024,-7902,534,-1,-2,-1,0
36118,-2029,-7900,544,-1,-2,-2,0
36123,-2044,-7901,542,-1,-2,-2,0
36128,-2060,-7900,535,-1,-2,-2,0
36133,-2073,-7901,532,-1,-2,-1,0
36138,-2077,-7901,524,-1,-2,-1,0
36143,-2074,-7902,525,-1,-1,-1,0
36148,-2055,-7903,526,-1,-1,-1,0
36153,-2032,-7904,529,-1,0,-2,0
36158,-2013,-7906,529,-1,0,-2,0
36163,-2000,-7907,529,-1,-1,-2,0
36168,-1992,-7907,534,-1,-1,-2,0
36173,-1987,-7908,537,-1,-2,-2,0
36178,-1983,-7910,535,-1,-2,-1,0
36183,-1980,-7910,538,-1,-2,-2,0
36188,-1974,-7911,542,-1,-2,-1,0
36193,-1965,-7909,541,-1,-2,-1,0
36198,-1963,-7910,540,-1,-2,-1,0
36203,-1966,-7909,536,-1,-2,-1,0
36208,-1972,-7911,527,-1,-2,-2,0
36213,-1980,-7911,521,-1,-1,-2,0
36218,-1991,-7909,514,-1,-1,-2,0
36223,-2002,-7908,508,-1,-1,-1,0
36228,-2002,-7904,505,-1,-1,-1,0
36233,-1994,-7905,498,-1,-2,-1,0
36238,-1972,-7906,500,-1,-2,-1,0
36243,-1947,-7905,504,-1,-3,-1,0
36248,-1922,-7905,511,-1,-3,-1,0
36253,-1902,-7908,512,-1,-4,-1,0
36258,-1897,-7909,509,-1,-4,-1,0
36263,-1904,-7909,501,-1,-4,-1,0
36268,-1920,-7909,488,-1,-3,-1,0
36273,-1945,-7907,480,-1,-3,-1,0
36278,-1976,-7907,477,-1,-2,-1,0
36283,-2007,-7908,479,-1,-1,-1,0
36288,-2028,-7907,486,-1,-1,-1,0
36293,-2040,-7908,498,-1,0,-1,0
36298,-2041,-7905,504,-1,-1,-1,0
36303,-2030,-7906,513,-1,-1,-1,0
36308,-2015,-7905,507,-1,-1,-1,0
36313,-1995,-7905,498,-1,-2,-1,0
36318,-1981,-7907,491,-1,-2,-1,0
36323,-1965,-7905,477,-1,-3,-1,0
36328,-1950,-7903,469,-1,-3,-1,0
36333,-1948,-7904,466,-1,-3,-1,0
36338,-1955,-7906,460,-1,-3,-1,0
36343,-1960,-7909,455,-1,-3,-1,0
36348,-1969,-7912,457,-1,-3,-1,0
36353,-1973,-7913,454,-1,-3,-1,0
36358,-1975,-7911,455,-1,-3,-1,0
36363,-1980,-7907,469,-1,-3,-1,0
36368,-1987,-7907,484,-1,-3,-1,0
36373,-1999,-7908,505,-1,-3,-1,0
36378,-2010,-7905,528,-1,-3,-1,0
36383,-2023,-7902,542,-1,-3,-1,0
36388,-2031,-7902,553,-1,-2,-1,0
36393,-2035,-7904,560,-1,-2,-1,0
36398,-2028,-7902,556,-1,-2,-1,0
36403,-2016,-7901,551,-1,-2,-1,0
36408,-1996,-7901,551,-1,-2,-1,0
36413,-1973,-7903,557,-1,-3,-1,0
36418,-1956,-7902,569,-1,-2,-1,0
36423,-1947,-7901,579,-1,-2,-1,0
36428,-1947,-7903,586,-1,-2,-1,0
36433,-1956,-7906,584,-1,-3,-1,0
36438,-1968,-7907,587,-1,-3,-1,0
36443,-1974,-7909,589,-1,-4,-1,0
36448,-1971,-7910,596,-1,-4,-1,0
36453,-1954,-7911,595,-1,-5,-1,0
36458,-1929,-7910,602,-1,-6,-1,0
36463,-1909,-7909,611,-1,-7,-1,0
36468,-1899,-7909,613,-1,-7,-1,0
36473,-1907,-7906,612,-1,-8,-1,0
36478,-1933,-7904,605,-1,-7,-1,0
36483,-1965,-7905,591,-1,-7,-1,0
36488,-1999,-7907,584,-1,-6,-1,0
