millis,ax,ay,az,gx,gy,gz,label
455924,579,-8180,-599,-1,6,0,0
455929,546,-8182,-560,-1,6,0,0
455934,515,-8183,-520,-1,5,0,0
455939,482,-8184,-479,-1,4,0,0
455944,455,-8184,-449,-1,3,0,0
455949,437,-8185,-426,-1,1,0,0
455954,425,-8188,-414,-1,0,0,0
455959,420,-8189,-415,-1,-1,0,0
455964,420,-8190,-416,-1,-1,0,0
455969,420,-8190,-423,-1,-2,0,0
455974,416,-8189,-434,-1,-4,0,0
455979,407,-8188,-438,-1,-5,0,0
455985,387,-8189,-441,-1,-6,0,0
455990,369,-8188,-445,-1,-7,0,0
455994,358,-8189,-447,-2,-7,0,0
455999,362,-8191,-457,-2,-6,0,0
456004,379,-8187,-468,-2,-5,0,0
456009,412,-8187,-475,-2,-6,0,0
456014,455,-8185,-483,-2,-6,0,0
456019,497,-8184,-493,-2,-7,0,0
456024,538,-8185,-505,-2,-8,0,0
456029,569,-8184,-516,-2,-8,0,0
456034,593,-8183,-523,-2,-8,0,0
456039,605,-8180,-530,-2,-7,0,0
456044,609,-8179,-546,-2,-6,0,0
456049,603,-8179,-563,-2,-5,0,0
456054,591,-8180,-577,-2,-4,0,0
456059,574,-8180,-589,-2,-3,0,0
456064,552,-8180,-593,-2,-3,0,0
456069,524,-8183,-592,-2,-3,0,0
456074,494,-8183,-590,-2,-4,0,0
456079,472,-8184,-587,-2,-4,0,0
456084,459,-8184,-592,-2,-4,0,0
456090,458,-8185,-608,-2,-3,0,0
456095,471,-8185,-636,-2,-2,0,0
456100,485,-8187,-673,-2,-1,0,0
456105,509,-8184,-721,-2,1,0,0
456110,534,-8183,-770,-2,2,0,0
456115,551,-8178,-801,-2,3,0,0
456120,555,-8180,-821,-2,3,0,0
456125,542,-8180,-816,-2,3,0,0
456130,503,-8182,-788,-2,3,0,0
456135,450,-8184,-745,-2,4,-1,0
456140,387,-8183,-699,-2,4,-1,0
456145,322,-8182,-666,-2,4,-1,0
456150,255,-8182,-660,-2,4,-1,0
456155,189,-8182,-686,-2,3,-1,0
456160,125,-8182,-740,-2,1,-2,0
456165,56,-8183,-814,-1,-1,-2,0
456171,-5,-8186,-896,-1,-4,-2,0
456176,-44,-8187,-974,-1,-5,-2,0
456181,-65,-8185,-1030,-1,-5,-2,0
456187,-69,-8185,-1063,-1,-4,-2,0
456192,-54,-8183,-1077,-1,-1,-2,0
456197,-4,-8180,-1066,-1,1,-2,0
456203,92,-8180,-1052,-1,4,-2,0
456207,222,-8176,-1033,-1,8,-2,0
456212,355,-8174,-1013,-1,11,-1,0
456217,530,-8172,-1013,-1,13,-1,0
456222,679,-8171,-1022,-1,15,-1,0
456227,802,-8167,-1040,-1,15,-1,0
456232,894,-8167,-1057,-1,13,-2,0
456237,918,-8164,-1049,-1,10,-2,0
456242,892,-8166,-1032,-1,8,-2,0
456247,812,-8165,-997,-1,6,-2,0
456252,704,-8169,-951,0,6,-1,0
456257,586,-8172,-916,0,7,-2,0
456262,462,-8173,-892,0,8,-1,0
456267,366,-8174,-891,0,7,-2,0
456271,302,-8176,-912,0,6,-1,0
456275,268,-8174,-941,0,5,-1,0
456280,279,-8176,-966,0,5,-1,0
456285,326,-8175,-986,0,8,-1,0
456290,407,-8175,-1002,0,10,-1,0
456295,510,-8176,-1020,0,11,-1,0
456300,595,-8170,-1033,0,11,-1,0
456305,676,-8167,-1043,1,11,-1,0
456309,735,-8166,-1062,1,11,-1,0
456314,773,-8162,-1077,1,12,-1,0
456319,806,-8161,-1097,1,15,-1,0
456324,815,-8162,-1111,1,18,-1,0
456329,819,-8163,-1120,1,21,-1,0
456334,810,-8164,-1125,1,24,-1,0
456339,787,-8163,-1118,1,25,-1,0
456344,753,-8163,-1107,1,24,-1,0
456349,704,-8162,-1092,1,21,-1,0
456354,641,-8160,-1075,2,17,-1,0
456359,571,-8162,-1064,2,12,-1,0
456364,492,-8161,-1050,2,7,-1,0
456369,416,-8165,-1031,2,4,-1,0
456374,347,-8168,-1005,2,2,-1,0
456379,294,-8168,-965,2,2,-1,0
456384,257,-8170,-912,2,4,-2,0
456389,231,-8170,-856,2,6,-2,0
456394,213,-8170,-801,2,9,-2,0
456399,204,-8171,-748,2,10,-2,0
456404,201,-8172,-707,2,11,-2,0
456409,191,-8175,-675,2,11,-2,0
456414,183,-8177,-655,2,10,-3,0
456419,169,-8179,-648,2,9,-3,0
456424,150,-8180,-642,2,7,-3,0
456429,134,-8183,-646,2,5,-3,0
456434,115,-8182,-646,2,4,-3,0
456439,103,-8182,-639,2,3,-3,0
456444,86,-8181,-626,2,2,-4,0
456449,70,-8180,-606,2,1,-4,0
456454,57,-8179,-576,2,0,-4,0
456459,41,-8178,-541,2,-2,-4,0
456464,28,-8175,-504,2,-3,-4,0
456469,19,-8174,-480,2,-5,-5,0
456474,18,-8174,-462,2,-5,-5,0
456479,26,-8174,-469,2,-6,-5,0
456485,46,-8173,-496,2,-6,-5,0
456490,74,-8173,-546,2,-7,-5,0
456495,107,-8167,-620,2,-8,-5,0
456500,153,-8162,-703,2,-9,-5,0
456505,197,-8159,-792,2,-10,-6,0
456510,245,-8156,-876,2,-10,-6,0
456515,293,-8156,-930,2,-10,-6,0
456520,347,-8155,-950,2,-11,-6,0
456525,399,-8153,-923,2,-12,-6,0
456531,445,-8149,-866,2,-13,-6,0
456535,495,-8148,-770,2,-14,-6,0
456540,529,-8151,-665,2,-14,-6,0
456545,565,-8157,-562,2,-16,-6,0
456551,591,-8159,-462,2,-17,-6,0
456555,603,-8160,-397,2,-18,-6,0
456560,606,-8164,-359,2,-21,-6,0
456565,599,-8165,-353,2,-23,-6,0
456570,586,-8167,-377,2,-26,-7,0
456575,565,-8168,-423,2,-28,-7,0
456580,549,-8169,-479,2,-28,-7,0
456585,544,-8172,-530,2,-27,-7,0
456590,561,-8170,-582,2,-26,-6,0
456594,606,-8168,-623,2,-24,-6,0
456599,666,-8167,-651,2,-23,-6,0
456604,757,-8167,-676,2,-21,-6,0
456609,881,-8166,-699,2,-20,-6,0
456614,1005,-8163,-721,2,-20,-6,0
456619,1133,-8160,-753,2,-20,-5,0
456624,1253,-8156,-790,2,-20,-5,0
456629,1346,-8151,-821,2,-19,-5,0
456634,1415,-8149,-842,2,-20,-5,0
456639,1450,-8148,-854,2,-21,-5,0
456644,1455,-8147,-853,2,-22,-5,0
456649,1432,-8150,-854,3,-23,-5,0
456654,1395,-8151,-853,3,-23,-4,0
456659,1344,-8155,-858,3,-22,-4,0
456664,1288,-8155,-872,3,-20,-4,0
456669,1238,-8155,-890,3,-18,-4,0
456674,1194,-8157,-908,3,-15,-4,0
456679,1170,-8157,-925,3,-12,-3,0
456684,1167,-8154,-941,3,-10,-3,0
456689,1178,-8154,-951,3,-8,-3,0
456694,1208,-8152,-953,3,-6,-3,0
456699,1251,-8150,-954,3,-4,-3,0
456704,1290,-8146,-957,4,-2,-2,0
456709,1321,-8143,-967,4,0,-2,0
456714,1341,-8142,-981,4,1,-2,0
456719,1342,-8144,-991,4,2,-2,0
456724,1326,-8147,-998,4,2,-2,0
456729,1289,-8150,-1002,4,2,-2,0
456734,1234,-8151,-994,4,2,-2,0
456739,1171,-8152,-974,4,3,-2,0
456744,1104,-8151,-953,4,5,-2,0
456749,1036,-8153,-933,4,6,-2,0
456754,974,-8154,-914,5,9,-2,0
456759,932,-8153,-891,5,10,-1,0
456764,905,-8156,-863,4,12,-1,0
456769,905,-8156,-823,4,13,-1,0
456774,936,-8159,-778,4,12,-1,0
456779,987,-8161,-731,5,10,-1,0
456784,1089,-8157,-674,5,6,-1,0
456789,1252,-8154,-610,5,-2,-1,0
456794,1389,-8150,-545,5,-9,0,0
456799,1536,-8144,-485,5,-18,0,0
456804,1663,-8141,-441,5,-25,0,0
456809,1752,-8142,-407,5,-32,-1,0
456814,1810,-8141,-389,6,-40,-1,0
456819,1818,-8141,-377,6,-48,-1,0
456824,1816,-8146,-356,6,-56,-1,0
456829,1780,-8147,-332,6,-65,-1,0
456834,1742,-8147,-288,6,-76,-1,0
456839,1690,-8147,-253,6,-87,-1,0
456844,1613,-8146,-208,6,-97,-1,0
456849,1553,-8150,-162,6,-109,-1,0
456854,1481,-8152,-128,6,-121,-1,0
456859,1395,-8157,-75,6,-131,-1,0
456865,1307,-8162,-26,6,-140,-2,0
456870,1212,-8163,36,6,-144,-2,0
456875,1109,-8168,116,6,-144,-2,0
456880,1008,-8172,183,6,-142,-2,0
456885,912,-8174,239,6,-138,-2,0
456890,829,-8176,273,5,-133,-2,0
456894,765,-8177,283,5,-128,-2,0
456899,722,-8178,290,5,-123,-2,0
456904,687,-8180,268,5,-118,-2,0
456909,658,-8181,243,4,-113,-2,0
456914,616,-8180,218,4,-107,-2,0
456919,584,-8182,181,4,-100,-2,0
456924,545,-8185,152,3,-93,-2,0
456929,519,-8185,107,3,-85,-2,0
456934,515,-8186,58,3,-79,-2,0
456939,511,-8188,14,3,-73,-2,0
456944,526,-8192,-22,2,-66,-2,0
456949,533,-8191,-32,2,-58,-2,0
456954,532,-8188,-28,2,-51,-2,0
456959,528,-8188,-1,1,-44,-2,0
456964,501,-8188,31,1,-38,-2,0
456969,476,-8190,62,1,-32,-2,0
456974,453,-8190,98,1,-26,-2,0
456979,428,-8191,134,0,-20,-2,0
456984,411,-8192,163,0,-15,-2,0
456989,388,-8195,194,0,-9,-2,0
456994,377,-8194,217,-1,-3,-2,0
456999,361,-8193,236,-1,3,-2,0
457004,357,-8192,238,-1,7,-2,0
457009,355,-8191,224,-1,10,-2,0
457014,348,-8193,187,-2,11,-2,0
457019,349,-8193,143,-2,12,-2,0
457024,356,-8194,89,-2,12,-2,0
457029,377,-8193,34,-2,12,-2,0
457034,409,-8192,-25,-2,11,-2,0
457039,448,-8186,-85,-2,11,-2,0
457044,491,-8182,-144,-2,11,-3,0
457049,530,-8180,-197,-2,9,-3,0
457054,555,-8180,-235,-2,8,-3,0
457059,561,-8179,-254,-2,7,-3,0
457064,559,-8178,-257,-2,6,-3,0
457069,553,-8178,-254,-2,7,-3,0
457074,552,-8176,-252,-2,9,-3,0
457079,564,-8176,-263,-2,13,-3,0
457083,585,-8174,-294,-2,18,-3,0
457088,622,-8171,-347,-2,23,-3,0
457093,669,-8168,-406,-2,29,-3,0
457098,719,-8166,-462,-3,36,-2,0
457104,767,-8165,-514,-3,44,-2,0
457109,812,-8162,-544,-3,51,-2,0
457114,841,-8159,-551,-3,57,-2,0
457119,859,-8161,-536,-3,58,-2,0
457123,863,-8164,-516,-3,56,-3,0
457129,860,-8165,-489,-3,50,-3,0
457134,870,-8168,-451,-2,40,-3,0
457139,895,-8172,-410,-2,30,-2,0
457143,936,-8173,-349,-2,20,-2,0
457149,999,-8173,-290,-3,14,-2,0
457154,1080,-8171,-224,-3,11,-2,0
457159,1155,-8165,-155,-3,10,-3,0
457164,1213,-8164,-99,-3,9,-3,0
457169,1255,-8164,-50,-3,9,-3,0
457174,1273,-8163,-25,-3,9,-3,0
457179,1278,-8162,-24,-3,8,-2,0
457184,1274,-8159,-52,-3,7,-2,0
457189,1261,-8158,-106,-3,5,-2,0
457194,1255,-8159,-173,-3,3,-2,0
457199,1253,-8163,-241,-3,1,-2,0
457203,1252,-8164,-304,-3,0,-2,0
457208,1255,-8164,-351,-3,1,-1,0
457213,1261,-8161,-390,-3,5,-1,0
457219,1273,-8159,-423,-3,11,-1,0
457224,1303,-8159,-459,-3,18,-1,0
457228,1337,-8160,-496,-3,26,0,0
457234,1382,-8161,-545,-3,34,0,0
457239,1435,-8157,-600,-3,41,0,0
457243,1487,-8155,-656,-3,46,0,0
457248,1537,-8153,-726,-3,49,1,0
457253,1577,-8148,-792,-3,48,1,0
457258,1616,-8148,-852,-3,44,1,0
457263,1638,-8149,-905,-3,37,1,0
457268,1652,-8151,-936,-3,28,1,0
457273,1651,-8151,-949,-2,19,1,0
457278,1634,-8149,-947,-2,10,1,0
457283,1615,-8147,-926,-2,4,1,0
457288,1579,-8148,-899,-1,0,1,0
457293,1534,-8147,-864,-1,-1,1,0
457299,1481,-8150,-829,-1,-1,1,0
457304,1423,-8149,-797,-1,0,1,0
457308,1363,-8149,-771,-1,2,2,0
457314,1306,-8148,-747,-1,4,2,0
457319,1249,-8150,-732,-1,6,2,0
457323,1198,-8152,-722,-1,8,2,0
457328,1153,-8154,-718,-1,9,2,0
457333,1108,-8157,-704,-1,9,2,0
457339,1062,-8157,-691,-1,10,2,0
457343,1017,-8159,-670,-1,10,2,0
457348,965,-8159,-641,-1,9,2,0
457353,912,-8159,-603,-1,8,2,0
457358,865,-8159,-557,-1,7,1,0
457363,817,-8158,-509,-1,5,1,0
457368,772,-8159,-453,-1,4,1,0
457373,729,-8159,-398,-1,4,1,0
457378,693,-8162,-340,-1,5,1,0
457383,668,-8164,-293,-1,7,1,0
457388,659,-8166,-254,-2,10,1,0
457393,667,-8167,-238,-2,13,1,0
457398,688,-8167,-241,-2,16,1,0
457403,721,-8170,-261,-2,19,1,0
457408,765,-8170,-283,-2,19,1,0
457413,814,-8169,-309,-2,18,1,0
457418,865,-8167,-329,-2,15,1,0
457423,907,-8166,-345,-2,12,1,0
457429,943,-8166,-362,-2,8,1,0
457433,967,-8166,-380,-2,5,1,0
457438,981,-8164,-403,-2,3,1,0
457443,987,-8166,-441,-2,1,1,0
457448,988,-8166,-485,-2,1,1,0
457453,987,-8166,-528,-2,1,1,0
457458,984,-8169,-563,-2,2,1,0
457463,983,-8169,-588,-2,4,1,0
457468,983,-8168,-606,-2,8,2,0
457473,989,-8168,-613,-2,12,2,0
457478,1006,-8169,-615,-2,16,2,0
457483,1024,-8168,-621,-2,20,2,0
457488,1052,-8167,-621,-2,23,2,0
457493,1077,-8168,-616,-2,25,2,0
457498,1097,-8165,-611,-2,27,2,0
457503,1105,-8162,-604,-2,27,2,0
457508,1101,-8162,-600,-2,27,2,0
457513,1080,-8163,-595,-2,25,2,0
457518,1048,-8164,-581,-2,24,2,0
457523,998,-8163,-566,-2,22,2,0
457528,948,-8164,-554,-2,21,2,0
457533,900,-8163,-540,-2,20,2,0
457538,851,-8164,-521,-2,18,2,0
457543,813,-8165,-496,-2,16,2,0
457548,788,-8165,-478,-2,14,2,0
457553,783,-8164,-471,-2,12,2,0
457558,799,-8163,-477,-2,8,2,0
457563,835,-8164,-496,-2,4,2,0
457568,875,-8164,-520,-2,-1,2,0
457573,914,-8167,-543,-2,-5,2,0
457578,946,-8169,-562,-2,-10,1,0
457583,972,-8169,-578,-1,-15,1,0
457588,1003,-8170,-590,-1,-22,1,0
457593,1016,-8168,-584,-1,-30,1,0
457598,999,-8168,-592,-1,-38,1,0
457603,974,-8168,-593,-1,-42,1,0
457608,933,-8170,-604,0,-44,1,0
457613,878,-8171,-633,0,-43,1,0
457618,820,-8174,-655,0,-41,1,0
457623,757,-8174,-688,0,-37,1,1
457628,699,-8174,-716,0,-32,1,1
457633,645,-8174,-745,0,-28,1,1
457638,597,-8176,-769,0,-23,1,1
457643,556,-8177,-791,0,-19,1,1
457648,524,-8175,-808,0,-16,1,1
457653,503,-8174,-812,0,-13,1,1
457658,483,-8173,-811,0,-12,1,1
457663,474,-8173,-800,0,-11,1,1
457668,470,-8171,-786,0,-10,1,1
457673,474,-8168,-768,0,-11,1,1
457678,486,-8165,-755,0,-12,0,1
457683,502,-8167,-749,0,-15,0,1
457688,515,-8168,-743,0,-18,0,1
457693,523,-8170,-738,0,-21,0,1
457698,530,-8170,-725,0,-23,0,1
457703,539,-8169,-710,0,-26,0,1
457708,551,-8169,-684,0,-28,0,1
457713,572,-8171,-657,0,-30,0,1
457718,595,-8173,-630,0,-31,0,1
457723,621,-8174,-601,1,-33,-1,1
457728,645,-8173,-576,0,-34,-1,1
457733,666,-8170,-551,0,-35,-1,1
457738,680,-8169,-526,0,-36,-1,1
457743,682,-8169,-503,0,-37,-1,1
457748,673,-8171,-476,0,-37,-1,1
457753,652,-8171,-445,0,-36,-1,1
457758,630,-8171,-416,0,-34,-1,1
457763,600,-8173,-400,0,-30,-1,1
457768,567,-8173,-388,0,-25,-1,1
457773,539,-8176,-382,0,-19,-1,1
457778,510,-8176,-387,0,-12,-1,1
457783,488,-8177,-395,-1,-4,-1,1
457788,478,-8177,-404,-1,2,0,1
457793,474,-8178,-412,-1,7,0,1
457798,477,-8180,-428,-1,11,0,1
457803,484,-8181,-443,-1,13,0,1
457808,492,-8180,-463,-1,15,0,1
457813,492,-8184,-480,-1,17,0,1
457818,484,-8185,-490,-1,19,-1,1
457823,464,-8186,-487,-1,21,-1,1
457828,440,-8185,-474,-1,24,-1,1
457833,418,-8180,-455,-2,28,-1,1
457838,410,-8178,-435,-2,34,0,1
457843,425,-8177,-418,-2,39,0,1
457848,459,-8178,-395,-2,45,0,1
457853,506,-8179,-373,-2,49,0,1
457858,557,-8180,-341,-2,53,0,1
457863,600,-8180,-298,-3,56,0,1
457868,636,-8176,-262,-3,58,0,1
457873,670,-8177,-223,-3,60,0,1
457878,700,-8178,-204,-3,60,0,1
457883,728,-8176,-204,-3,58,0,1
457888,752,-8177,-222,-3,55,0,1
457893,774,-8176,-257,-3,51,0,1
457898,800,-8173,-303,-3,45,-1,1
457903,817,-8172,-357,-3,37,-1,1
457908,825,-8174,-408,-2,26,-1,1
457913,824,-8172,-460,-2,13,-1,1
457918,792,-8168,-503,-2,0,-2,1
457923,736,-8167,-534,-2,-9,-2,1
457928,685,-8169,-559,-2,-12,-2,1
457933,642,-8170,-585,-2,-12,-2,1
457938,615,-8172,-615,-1,-9,-2,1
457943,614,-8172,-651,-1,-4,-2,1
457948,644,-8170,-689,-1,1,-2,1
457953,697,-8173,-732,-1,6,-2,1
457958,759,-8173,-777,-1,8,-2,1
457963,827,-8173,-812,-1,10,-2,1
457968,893,-8171,-842,-1,11,-1,1
457973,951,-8168,-863,-1,11,-1,1
457978,1004,-8166,-872,-1,10,-1,1
457983,1041,-8162,-865,-1,9,-1,1
457988,1071,-8161,-842,-1,7,-1,1
457993,1088,-8162,-808,-1,6,-1,1
457998,1092,-8161,-763,-1,5,-1,1
458003,1096,-8162,-703,-1,6,-1,1
458008,1103,-8164,-646,-1,7,-1,1
458013,1114,-8166,-597,-1,7,-1,1
458018,1125,-8164,-561,-1,6,0,1
458023,1132,-8164,-545,-1,4,0,1
458028,1132,-8162,-553,-1,2,0,1
458033,1120,-8160,-585,-1,-1,0,1
458038,1105,-8161,-638,0,-3,0,1
458043,1084,-8160,-709,0,-5,0,1
458048,1064,-8159,-786,0,-6,0,1
458053,1045,-8159,-861,0,-7,0,1
458058,1026,-8157,-918,0,-8,0,1
458063,1015,-8157,-954,0,-9,0,1
458068,1016,-8158,-968,0,-9,0,1
458073,1022,-8156,-959,0,-9,0,1
458078,1031,-8155,-942,0,-8,0,1
458083,1042,-8157,-912,0,-7,0,1
458088,1058,-8159,-876,0,-7,0,1
458093,1070,-8163,-837,0,-6,0,1
458098,1074,-8162,-791,0,-7,0,1
458103,1069,-8160,-732,1,-7,0,1
458108,1052,-8159,-679,0,-7,0,1
458113,1026,-8161,-637,1,-8,0,1
458118,993,-8163,-601,1,-7,0,1
458123,954,-8166,-581,1,-6,0,1
458128,914,-8166,-568,1,-5,0,1
458133,873,-8166,-566,0,-3,0,1
458138,841,-8168,-571,0,-2,1,1
458143,815,-8169,-565,0,-1,1,1
458148,801,-8170,-550,0,-1,1,1
458153,793,-8170,-522,0,-1,1,1
458158,793,-8170,-491,0,-1,1,1
458163,799,-8170,-455,0,-1,1,1
458168,807,-8169,-423,0,-1,1,1
458173,810,-8169,-404,0,-2,0,1
458178,808,-8167,-397,0,-2,0,1
458183,801,-8169,-400,0,-3,0,1
458188,782,-8167,-410,0,-4,0,1
458193,762,-8168,-425,0,-5,0,1
458198,734,-8172,-441,0,-6,0,1
458203,706,-8174,-455,0,-7,0,1
458208,675,-8174,-471,0,-8,0,1
458213,642,-8178,-486,0,-9,0,1
458218,606,-8179,-496,0,-9,0,1
458223,569,-8179,-502,0,-9,0,1
458228,528,-8179,-503,0,-8,0,1
458233,486,-8179,-507,0,-6,0,1
458238,455,-8182,-510,0,-5,0,1
458243,437,-8185,-507,0,-4,-1,1
458248,431,-8185,-497,0,-3,0,1
458253,442,-8186,-482,0,-2,0,1
458258,470,-8184,-464,-1,-1,0,1
458263,517,-8183,-445,-1,-1,0,1
458268,575,-8179,-422,-1,0,-1,1
458273,633,-8179,-413,-1,0,-1,1
458278,690,-8178,-403,-1,-1,-1,1
458284,738,-8178,-395,-1,-1,-1,1
458289,769,-8175,-387,-1,-2,-1,1
458294,789,-8173,-378,-1,-3,-1,1
458299,798,-8171,-369,-1,-4,-1,1
458304,800,-8171,-359,-1,-5,-1,1
458309,797,-8173,-345,-1,-5,-1,1
458314,798,-8172,-335,-1,-5,-1,1
458319,798,-8174,-329,-1,-4,-1,1
458324,803,-8176,-327,-1,-3,0,1
458329,810,-8176,-326,-1,-2,0,1
458334,821,-8177,-329,-1,-2,0,1
458339,833,-8175,-329,-1,-2,0,1
458344,847,-8174,-329,-2,-2,0,1
458348,859,-8175,-335,-2,-2,0,1
458353,867,-8173,-345,-2,-3,0,1
458358,871,-8173,-360,-2,-3,0,1
458363,872,-8176,-384,-2,-4,0,1
458368,866,-8177,-418,-2,-5,0,1
458373,852,-8176,-449,-2,-6,0,1
458378,830,-8176,-475,-2,-7,0,1
458383,802,-8174,-493,-2,-8,0,1
458388,776,-8171,-503,-2,-9,0,1
458393,749,-8170,-512,-2,-8,0,1
458398,726,-8172,-515,-2,-7,0,1
458403,708,-8171,-522,-2,-6,0,1
458408,697,-8170,-537,-2,-4,0,1
458413,692,-8171,-551,-2,-3,0,1
458418,690,-8172,-566,-2,-1,0,1
458423,689,-8175,-581,-2,-1,0,1
458428,691,-8174,-589,-2,-1,0,1
458433,696,-8176,-593,-2,-1,-1,1
458438,701,-8175,-594,-2,-2,-1,1
458443,704,-8173,-596,-2,-3,-1,1
458448,706,-8173,-599,-2,-5,-1,1
458453,707,-8173,-598,-2,-6,-1,1
458458,704,-8173,-595,-2,-7,-1,1
458463,703,-8172,-589,-2,-7,-1,1
458468,703,-8173,-588,-2,-6,-1,1
458473,709,-8172,-595,-1,-5,-1,1
458478,722,-8170,-617,-1,-4,-1,1
458483,740,-8171,-642,-1,-3,-1,1
458488,761,-8171,-676,-1,-3,-1,1
458493,788,-8172,-711,-1,-3,-1,1
458498,812,-8171,-749,-1,-3,0,1
458503,836,-8171,-787,-1,-2,0,1
458508,854,-8170,-824,-1,-2,-1,1
458513,861,-8169,-854,-1,-2,0,1
458518,860,-8167,-870,-1,-2,0,1
458523,854,-8166,-873,-1,-2,0,1
458528,846,-8166,-875,-1,-2,0,1
458533,833,-8166,-871,-1,-2,0,1
458538,820,-8167,-868,-1,-2,0,1
458543,810,-8171,-863,0,-2,0,1
458548,801,-8173,-860,0,-1,0,1
458553,796,-8173,-858,0,-1,0,1
458558,794,-8173,-853,0,0,0,1
458563,793,-8171,-852,0,0,0,1
458568,791,-8168,-852,0,0,0,1
458573,787,-8169,-852,0,0,0,1
458578,780,-8171,-852,0,0,0,1
458583,771,-8174,-853,0,0,0,1
458588,767,-8175,-846,0,0,0,1
458593,768,-8175,-837,0,-1,0,1
458598,765,-8176,-824,0,-1,0,1
458603,764,-8175,-798,0,0,0,1
458608,767,-8176,-761,0,0,0,1
458613,770,-8172,-721,0,0,0,1
458618,770,-8170,-677,0,0,0,1
458623,764,-8169,-638,0,0,0,1
458628,752,-8173,-604,0,-1,0,1
458633,732,-8174,-582,0,-1,-1,1
458638,703,-8173,-568,0,-1,-1,1
458643,673,-8173,-559,0,-1,-1,1
458648,643,-8173,-556,0,0,-1,1
458653,619,-8175,-553,0,0,-1,1
458658,606,-8175,-552,0,0,-1,1
458663,605,-8178,-550,0,1,-1,1
458668,617,-8180,-549,0,1,-1,1
458673,639,-8179,-550,0,2,-1,1
458678,669,-8177,-551,0,2,-1,1
458683,699,-8179,-549,0,2,-1,1
458688,730,-8178,-545,0,1,-1,1
458693,759,-8181,-540,0,1,-1,1
458698,779,-8179,-533,0,0,-1,1
458703,792,-8180,-526,0,-1,-1,1
458708,794,-8179,-523,0,-1,-1,1
458713,786,-8178,-522,0,-1,-1,1
458718,776,-8179,-519,0,-1,-1,1
458723,764,-8178,-516,0,-1,-1,1
458728,754,-8176,-516,0,-1,-1,1
458733,744,-8176,-511,0,-1,-1,1
458738,744,-8177,-508,0,-1,-1,1
458743,749,-8177,-499,-1,-1,-1,1
458748,755,-8175,-484,-1,-1,-1,1
458754,766,-8172,-471,-1,-2,-1,1
458759,784,-8173,-456,-1,-2,-1,1
458763,796,-8176,-446,-1,-1,-1,1
458769,810,-8179,-446,-1,-1,-1,1
458774,822,-8179,-455,-1,-2,-1,1
458779,824,-8176,-472,-1,-2,-1,1
458784,818,-8179,-492,-1,-2,-1,1
458789,808,-8180,-518,-1,-3,-1,1
458794,795,-8177,-534,-1,-4,-1,1
458799,781,-8176,-550,-1,-4,-1,1
458804,769,-8179,-562,-1,-4,-1,1
458809,758,-8181,-571,-1,-4,-1,1
458814,754,-8180,-579,-1,-3,-1,1
458819,751,-8181,-592,-1,-2,-1,1
458825,752,-8181,-602,-1,-1,-1,1
458829,757,-8181,-609,-1,-1,-1,1
458835,765,-8181,-610,-1,-1,-1,1
458840,771,-8180,-605,-1,-1,-1,1
458845,778,-8177,-597,-1,0,-1,1
458850,784,-8176,-589,-1,-1,-1,1
458855,788,-8172,-584,-1,-1,-1,1
458860,790,-8171,-583,-1,-1,-1,1
458866,789,-8171,-583,-1,-1,-1,1
458870,789,-8170,-596,-1,-1,-1,1
458876,789,-8169,-602,-1,-1,-1,1
458881,793,-8171,-609,-1,-2,-1,1
458885,799,-8172,-613,-1,-2,-1,1
458891,810,-8173,-615,-1,-2,-1,1
458896,824,-8174,-615,-1,-2,-1,1
458901,840,-8176,-613,-1,-2,-1,1
458906,856,-8177,-607,-1,-3,-1,1
458911,872,-8174,-601,-1,-3,-1,1
458916,882,-8173,-594,-1,-4,0,1
458920,889,-8172,-593,-1,-4,0,1
458925,889,-8174,-589,-1,-5,0,1
458930,888,-8173,-582,-1,-6,0,1
458935,892,-8172,-577,-1,-7,0,1
458940,890,-8171,-568,-1,-8,0,1
458945,882,-8170,-564,-1,-10,0,1
458949,875,-8171,-562,-1,-11,0,1
458955,871,-8170,-568,-1,-11,0,1
458960,859,-8168,-574,-1,-12,0,1
458964,846,-8169,-582,-1,-13,0,1
458970,833,-8169,-584,-1,-13,0,1
458975,820,-8170,-584,-1,-14,0,1
458979,809,-8169,-582,-1,-14,0,1
458984,804,-8168,-583,-1,-14,0,1
458988,806,-8167,-590,-1,-14,0,1
458993,814,-8168,-596,-1,-14,0,1
458998,825,-8167,-604,-1,-15,0,1
459003,838,-8166,-614,0,-16,0,1
459008,847,-8167,-634,0,-17,0,1
459013,852,-8168,-657,0,-18,-1,1
459018,852,-8167,-674,0,-21,-1,1
459023,837,-8168,-687,0,-23,-1,1
459028,811,-8169,-694,0,-26,-1,1
459033,779,-8167,-695,0,-27,-1,1
459038,745,-8165,-685,0,-26,-1,1
459043,711,-8166,-665,0,-24,-1,1
459048,684,-8167,-644,0,-22,-1,1
459053,666,-8168,-622,0,-19,-1,1
459058,658,-8168,-606,0,-16,0,1
459063,666,-8170,-593,0,-14,-1,1
459067,679,-8171,-577,0,-13,-1,1
459072,697,-8171,-562,-1,-13,-1,1
459078,717,-8172,-544,-1,-15,-1,1
459083,732,-8172,-528,-1,-17,-1,1
459088,739,-8170,-511,-1,-20,-1,1
459093,738,-8170,-501,-1,-23,-1,1
459098,725,-8171,-492,-1,-26,-1,1
459103,704,-8172,-489,-1,-27,-1,1
459108,678,-8174,-490,-1,-28,-1,1
459113,652,-8174,-494,-1,-28,-1,1
459118,627,-8177,-493,-1,-27,-1,1
459123,599,-8177,-484,-1,-27,-1,1
459128,574,-8178,-471,-1,-26,-1,1
459133,558,-8179,-456,-1,-26,-1,1
459138,550,-8176,-439,-1,-25,-1,1
459143,547,-8175,-426,-1,-25,-1,1
459148,554,-8173,-422,-1,-25,-1,1
459153,564,-8173,-423,-1,-24,-1,1
459158,581,-8176,-431,-1,-23,-1,1
459163,602,-8178,-443,-1,-23,-1,1
459168,622,-8181,-461,-1,-22,-1,1
459173,641,-8184,-476,-1,-22,-1,1
459178,661,-8183,-490,-2,-22,-2,1
459183,678,-8181,-502,-2,-23,-2,1
459188,690,-8179,-518,-2,-24,-2,1
459193,705,-8179,-533,-2,-25,-2,1
459198,714,-8176,-546,-2,-27,-2,1
459203,721,-8171,-562,-2,-27,-2,1
459208,728,-8170,-582,-2,-28,-2,1
459213,740,-8167,-594,-2,-28,-2,1
459218,753,-8168,-605,-2,-28,-2,1
459223,770,-8166,-607,-2,-28,-1,1
459228,787,-8164,-604,-2,-27,-1,1
459233,802,-8165,-599,-2,-27,-1,1
459237,818,-8167,-590,-2,-27,-1,1
459242,824,-8169,-578,-2,-26,-1,1
459247,826,-8171,-568,-2,-27,-1,1
459252,824,-8172,-557,-2,-28,-1,1
459257,817,-8171,-554,-2,-29,-1,1
459262,798,-8170,-551,-2,-31,-1,1
459267,775,-8168,-552,-2,-31,-1,1
459272,753,-8172,-564,-2,-30,-1,1
459277,734,-8174,-588,-2,-28,-1,1
459282,723,-8174,-616,-2,-25,-1,1
459287,713,-8176,-652,-2,-22,-1,1
459292,714,-8176,-701,-2,-19,-1,1
459297,728,-8176,-742,-2,-17,-1,1
459302,744,-8176,-793,-2,-16,-1,1
459308,756,-8171,-852,-2,-14,-1,1
459312,772,-8170,-897,-2,-13,-1,1
459318,780,-8167,-944,-1,-13,-1,1
459324,777,-8167,-984,-1,-13,-1,1
459328,761,-8166,-1021,-1,-13,-1,1
459334,739,-8169,-1048,-1,-13,-1,1
459340,711,-8169,-1062,-1,-13,-1,1
459345,679,-8168,-1068,-1,-12,-1,1
459350,652,-8167,-1063,-1,-11,-1,1
459355,633,-8165,-1059,-1,-9,-1,1
459360,625,-8163,-1048,-1,-6,-1,1
459366,636,-8162,-1035,-1,-3,-1,1
459372,656,-8159,-1025,-1,0,-1,1
459376,691,-8160,-1010,-1,3,-1,1
459381,730,-8159,-997,-1,4,-1,1
459386,775,-8162,-983,-1,5,-1,1
459391,818,-8161,-969,-1,5,0,1
459396,860,-8159,-958,-1,4,0,1
459401,898,-8160,-945,0,2,0,1
459405,930,-8157,-926,0,-1,0,1
459410,955,-8155,-910,0,-3,0,1
459414,970,-8153,-896,0,-5,0,1
459418,976,-8155,-875,0,-6,0,1
459422,969,-8155,-852,0,-6,0,1
459427,956,-8157,-832,0,-4,0,1
459432,945,-8161,-815,0,-2,0,1
459437,937,-8162,-799,0,0,0,1
459442,932,-8163,-785,0,1,0,1
459447,929,-8165,-771,0,2,0,1
459452,924,-8165,-761,0,3,0,1
459457,921,-8165,-756,0,5,1,1
459462,917,-8167,-753,0,6,1,1
459467,921,-8167,-749,0,7,1,1
459472,929,-8167,-747,-1,7,1,1
459477,929,-8169,-743,0,7,1,1
459482,925,-8167,-746,0,8,1,1
459487,902,-8164,-754,0,10,1,1
459492,862,-8162,-768,0,13,1,1
459497,800,-8162,-798,0,19,1,1
459502,714,-8162,-842,0,29,1,1
459507,618,-8164,-898,-1,43,1,1
459512,513,-8165,-967,-1,65,2,1
459517,388,-8165,-1034,-1,95,3,1
459522,219,-8164,-1109,-1,138,4,1
459527,-8,-8168,-1162,-2,196,5,1
459532,-307,-8171,-1203,-3,271,6,1
459537,-1498,-8181,-1680,-2,358,3,1
459542,-2444,-8138,-2070,0,429,-3,1
459547,-3220,-8148,-2613,0,496,-4,1
459552,-4114,-8170,-3251,-1,544,-2,1
459557,-4873,-8213,-3749,-1,576,0,1
459562,-5492,-8242,-4020,-3,622,3,1
459567,-5988,-8256,-3959,-5,705,5,1
459572,-6269,-8256,-3514,-7,826,8,1
459577,-6161,-8237,-2561,-8,960,10,1
459582,-5858,-8201,-1463,-8,1076,11,1
459588,-5229,-8201,-164,-7,1152,11,1
459592,-4356,-8231,1449,-9,1193,14,1
459597,-3585,-8299,2635,-15,1197,17,1
459602,-2626,-8189,3245,-18,1156,18,1
459607,-2092,-8263,4423,-14,1081,18,1
459612,-1782,-8303,5843,-22,972,10,1
459617,-1756,-8368,7348,-19,851,11,1
459622,-1451,-8413,8563,-14,717,13,0
459627,-791,-8389,9045,-13,583,12,0
459632,49,-8336,8761,-14,446,7,0
459637,644,-8262,8482,-14,303,3,0
459642,1134,-8201,8090,-11,156,1,0
459647,1401,-8126,7474,-8,28,-1,0
459652,1449,-8106,6914,-5,-73,-2,0
459657,1320,-8113,6313,-3,-146,-2,0
459662,1130,-8121,5438,-3,-193,-3,0
459667,964,-8130,4560,-3,-222,-4,0
459672,786,-8132,3680,-3,-237,-5,0
459678,597,-8124,2887,-2,-243,-5,0
459682,481,-8122,2199,-2,-240,-5,0
459688,433,-8121,1594,-1,-233,-4,0
459693,464,-8123,1129,0,-234,-4,0
459697,656,-8125,794,1,-251,-4,0
459702,978,-8137,512,1,-289,-4,0
459707,1358,-8144,292,1,-353,-4,0
459712,1844,-8134,123,2,-443,-5,0
459717,2416,-8117,49,4,-549,-6,0
459722,2970,-8100,167,7,-662,-7,0
459727,3494,-8098,419,10,-778,-8,0
459732,3943,-8097,761,12,-888,-9,0
459737,4116,-8097,1364,14,-980,-10,0
459742,4020,-8116,2187,14,-1037,-11,0
459747,3702,-8160,2951,11,-1059,-12,0
459752,3317,-8145,3479,8,-1057,-13,0
459757,2539,-8193,4417,7,-1031,-13,0
459762,1478,-8198,5457,6,-990,-17,0
459767,687,-8196,6168,8,-941,-18,0
459772,-219,-8225,6678,11,-866,-17,0
459777,-1137,-8264,6374,11,-770,-15,0
459782,-2018,-8274,5965,10,-659,-13,0
459787,-2688,-8287,5159,9,-535,-10,0
459792,-3268,-8285,4346,7,-404,-8,0
459797,-3639,-8313,3817,5,-273,-7,0
459802,-4227,-8303,3009,-1,-156,-4,0
459807,-4884,-8290,1688,-4,-72,-3,0
459812,-5001,-8299,676,-3,-19,-2,0
459818,-5105,-8298,-108,-3,22,1,0
459822,-4902,-8285,-613,-5,48,2,0
459827,-4501,-8262,-913,-6,75,2,0
459832,-4132,-8249,-1143,-7,104,0,0
459837,-3605,-8231,-1137,-7,127,-3,0
459842,-2936,-8217,-1125,-7,139,-5,0
459847,-2250,-8205,-1147,-6,139,-4,0
459852,-1670,-8196,-1122,-4,123,-3,0
459857,-1166,-8187,-1085,-4,94,-4,0
459862,-322,-8152,-1210,-3,59,-5,0
459867,507,-8185,-1257,-1,35,-1,0
459872,1015,-8188,-1202,-1,14,2,0
459877,1419,-8190,-1161,-1,-4,1,0
459882,1642,-8178,-1048,-2,-17,1,0
459887,1778,-8165,-872,-2,-25,0,0
459892,1852,-8161,-743,-3,-27,-1,0
459897,1892,-8160,-621,-3,-26,-1,0
459902,1900,-8159,-488,-3,-23,-1,0
459907,1896,-8158,-370,-3,-21,-1,0
459912,1891,-8158,-267,-2,-21,-1,0
459918,1865,-8159,-210,-2,-23,-2,0
459922,1799,-8160,-223,-1,-28,-1,0
459927,1694,-8162,-281,-2,-33,-1,0
459932,1573,-8162,-358,-2,-37,-1,0
459937,1450,-8165,-431,-2,-37,-1,0
459942,1320,-8165,-493,-2,-34,-1,0
459947,1194,-8162,-540,-3,-27,-1,0
459952,1078,-8161,-583,-2,-20,0,0
459957,964,-8160,-633,-2,-12,0,0
459962,871,-8158,-699,-2,-7,0,0
459967,806,-8159,-769,-2,-4,-1,0
459972,754,-8161,-831,-2,-2,-1,0
459977,717,-8164,-896,-2,-1,-1,0
459982,686,-8167,-940,-2,0,-1,0
459987,653,-8172,-955,-2,1,0,0
459992,640,-8176,-950,-2,2,0,0
459997,638,-8175,-921,-2,3,0,0
460002,644,-8174,-872,-2,5,0,0
460007,658,-8175,-815,-2,4,0,0
460012,671,-8180,-751,-2,3,-1,0
460017,681,-8178,-689,-2,0,-1,0
460022,695,-8177,-630,-2,-1,-1,0
460027,704,-8175,-571,-2,-2,-1,0
460032,713,-8177,-528,-2,-1,-1,0
460038,723,-8176,-505,-2,-1,-1,0
460042,727,-8172,-503,-2,-1,-1,0
460047,746,-8171,-522,-2,-1,-1,0
460052,770,-8173,-557,-2,-2,-1,0
460057,789,-8170,-604,-2,-3,-1,0
460063,814,-8166,-658,-2,-4,-1,0
460068,829,-8166,-716,-2,-4,-1,0
460073,839,-8168,-771,-2,-5,-1,0
460078,862,-8170,-824,-2,-4,0,0
460082,874,-8170,-866,-2,-3,0,0
460087,876,-8169,-896,-2,-2,0,0
460092,879,-8170,-913,-2,0,0,0
460097,869,-8171,-919,-2,2,0,0
460102,862,-8172,-921,-2,2,0,0
460107,866,-8171,-924,-2,2,0,0
460112,859,-8172,-925,-2,0,0,0
460117,847,-8169,-931,-2,-2,0,0
460122,838,-8164,-934,-1,-2,0,0
460127,820,-8165,-932,-1,-3,0,0
460132,802,-8162,-931,-1,-2,0,0
460137,795,-8161,-930,-1,-1,0,0
460142,789,-8163,-926,-1,-1,0,0
460147,784,-8163,-926,-1,-1,0,0
460152,777,-8163,-930,-1,0,0,0
460157,760,-8163,-931,-1,0,0,0
460162,755,-8163,-933,-1,0,0,0
460167,761,-8165,-934,-1,1,0,0
460172,766,-8164,-927,-1,1,0,0
460177,778,-8165,-924,-1,0,0,0
460182,787,-8163,-909,-1,0,0,0
460187,796,-8161,-881,-1,-1,0,0
460192,816,-8160,-854,-1,-1,0,0
460197,836,-8160,-829,-1,-2,0,0
460202,860,-8163,-814,-1,-4,0,0
460207,882,-8162,-803,-1,-5,0,0
460212,881,-8162,-797,-1,-6,0,0
460217,872,-8163,-798,-1,-8,0,0
460222,868,-8163,-808,-1,-8,0,0
460227,846,-8164,-815,-1,-8,0,0
460232,820,-8164,-825,-1,-8,0,0
460237,786,-8164,-825,-1,-6,0,0
460242,740,-8165,-822,-1,-5,0,0
460247,698,-8163,-816,-1,-3,0,0
460252,666,-8164,-798,-1,-2,0,0
460257,640,-8167,-772,-1,-1,0,0
460262,633,-8168,-746,-1,-1,0,0
460267,625,-8172,-718,-1,-1,0,0
460272,613,-8174,-697,-1,-1,0,0
460277,612,-8174,-685,-1,0,0,0
460282,615,-8175,-675,-1,1,0,0
460287,618,-8175,-672,-1,2,0,0
460292,623,-8177,-665,-1,3,0,0
460297,616,-8177,-659,-1,4,0,0
460302,611,-8175,-656,-1,4,0,0
460307,613,-8171,-663,-1,5,0,0
460312,611,-8170,-669,-1,7,0,0
460317,619,-8168,-682,-1,9,0,0
460322,638,-8167,-704,-1,12,0,0
460327,653,-8169,-728,-1,14,0,0
460332,678,-8171,-755,-1,15,0,0
460337,710,-8168,-777,-1,18,0,0
460342,739,-8169,-787,-1,19,0,0
460347,771,-8166,-789,-1,21,0,0
460352,795,-8166,-781,-1,23,0,0
460357,804,-8164,-766,-1,24,0,0
460362,814,-8166,-746,-2,25,0,0
460367,816,-8166,-731,-2,25,0,0
460372,806,-8165,-713,-2,25,0,0
460377,792,-8167,-703,-2,26,0,0
460382,765,-8169,-699,-2,26,0,0
460387,741,-8169,-695,-2,27,0,0
460392,731,-8168,-704,-2,26,0,0
460397,726,-8166,-718,-1,25,0,0
460402,736,-8166,-735,-1,23,0,0
460407,745,-8166,-761,-1,20,0,0
460412,753,-8164,-779,-1,18,0,0
460417,772,-8163,-791,-1,15,0,0
460422,794,-8163,-792,-1,12,0,0
460427,810,-8161,-787,-1,9,0,0
460432,839,-8161,-773,-1,7,0,0
460437,861,-8161,-759,-1,5,0,0
460442,869,-8160,-746,-1,3,0,0
460447,872,-8160,-739,-1,2,0,0
460452,870,-8162,-736,-1,2,0,0
460457,858,-8163,-734,-1,2,0,0
460462,838,-8167,-730,-1,3,0,0
460467,806,-8171,-726,-1,4,0,0
460472,769,-8173,-721,-1,6,0,0
460477,741,-8174,-714,-1,7,0,0
460482,722,-8175,-704,-1,9,0,0
460487,716,-8174,-694,-1,10,0,0
460492,719,-8171,-699,-1,12,0,0
460497,728,-8168,-710,-1,15,0,0
460502,748,-8166,-740,-1,17,0,0
460507,779,-8166,-773,-1,15,0,0
460512,807,-8167,-806,-1,10,0,0
460517,829,-8168,-834,-1,3,0,0
460522,828,-8166,-849,-1,-4,0,0
460527,805,-8166,-857,-1,-9,0,0
460532,772,-8165,-855,-1,-12,0,0
460537,737,-8163,-852,-1,-13,0,0
460542,703,-8166,-844,-1,-12,-1,0
460548,670,-8167,-834,-1,-9,-1,0
460553,631,-8168,-826,-1,-6,0,0
460558,594,-8166,-809,-1,-1,0,0
460563,559,-8168,-791,-1,4,0,0
460568,529,-8169,-773,-1,10,0,0
460573,503,-8168,-757,-1,15,0,0
460578,483,-8167,-743,-1,20,0,0
460583,471,-8167,-742,-1,25,0,0
460587,468,-8169,-744,-1,29,0,0
460592,475,-8171,-750,-1,31,0,0
460597,505,-8169,-757,-2,31,0,0
460602,546,-8172,-764,-2,30,0,0
460607,591,-8171,-760,-2,28,0,0
460612,633,-8169,-752,-2,27,0,0
460617,668,-8166,-738,-2,25,0,0
460622,696,-8161,-721,-1,23,-1,0
460627,716,-8163,-705,-1,22,-1,0
460632,728,-8165,-691,-1,21,-1,0
460637,732,-8165,-683,-1,20,-1,0
460642,727,-8166,-671,-1,19,-1,0
460647,718,-8167,-667,-2,19,-1,0
460652,711,-8168,-668,-2,20,-1,0
460657,703,-8165,-667,-2,21,-1,0
460662,694,-8165,-668,-2,24,-1,0
460667,689,-8166,-676,-2,26,-1,0
460672,682,-8168,-685,-2,26,-1,0
460677,676,-8168,-687,-2,26,-1,0
460682,679,-8168,-691,-2,25,-1,0
460687,683,-8168,-690,-2,24,-1,0
460692,688,-8169,-684,-2,22,-1,0
460697,691,-8168,-684,-2,22,-1,0
460702,688,-8171,-677,-2,21,-1,0
460707,685,-8173,-675,-2,20,-1,0
460712,690,-8176,-677,-2,19,-1,0
460717,695,-8176,-681,-2,17,-1,0
460722,706,-8174,-686,-2,15,-1,0
460727,719,-8174,-688,-2,12,-1,0
460732,734,-8173,-693,-2,9,-1,0
460737,742,-8170,-697,-2,7,-1,0
460742,755,-8172,-704,-2,4,-1,0
460747,770,-8169,-709,-2,2,-2,0
460752,771,-8168,-722,-2,1,-2,0
460757,764,-8166,-741,-2,1,-2,0
460762,759,-8164,-768,-2,0,-2,0
460767,758,-8164,-798,-1,0,-2,0
460772,763,-8163,-832,-1,-1,-2,0
460777,771,-8165,-869,-1,-2,-2,0
460782,780,-8166,-898,-1,-3,-2,0
460787,798,-8167,-923,-1,-3,-2,0
460792,814,-8168,-938,-1,-3,-2,0
460797,838,-8167,-941,-1,-2,-2,0
460802,872,-8170,-933,-1,-1,-1,0
460807,913,-8170,-913,-1,-1,-1,0
460812,957,-8168,-888,-1,0,-1,0
460817,998,-8166,-862,-1,0,-1,0
460822,1032,-8163,-844,-1,-1,-1,0
460827,1063,-8161,-837,-1,-1,-1,0
460832,1087,-8161,-839,-1,-1,-1,0
460837,1099,-8160,-853,-1,-1,-1,0
460842,1096,-8158,-868,-1,-2,-1,0
460847,1083,-8160,-884,-1,-2,-1,0
460852,1063,-8161,-898,-1,-3,-1,0
460857,1043,-8162,-909,-1,-2,-1,0
460862,1027,-8162,-912,-1,-2,-1,0
460867,1013,-8161,-911,-1,-1,0,0
460872,1000,-8164,-907,-1,1,0,0
460877,984,-8164,-902,-1,2,0,0
460882,979,-8163,-896,-1,3,0,0
460887,978,-8160,-891,-1,3,0,0
460892,978,-8161,-874,-1,3,0,0
460897,981,-8160,-851,-1,2,0,0
460902,982,-8161,-826,-1,2,0,0
460907,976,-8162,-797,-1,2,0,0
460912,976,-8163,-771,-1,3,0,0
460917,978,-8165,-751,-1,4,0,0
460922,975,-8164,-738,-1,5,0,0
460927,973,-8162,-738,-1,5,0,0
460932,963,-8163,-749,-1,5,0,0
460937,945,-8163,-769,-1,5,0,0
460942,932,-8165,-796,-1,5,0,0
460947,916,-8163,-824,-1,4,0,0
460952,895,-8163,-852,-1,4,0,0
460957,875,-8164,-880,-1,4,0,0
460962,854,-8167,-896,-1,3,0,0
460967,829,-8165,-905,-1,2,0,0
460972,806,-8162,-907,-1,1,0,0
460977,781,-8162,-906,-1,1,0,0
460982,757,-8161,-906,0,2,0,0
460987,730,-8163,-898,0,3,0,0
460992,702,-8163,-893,0,4,0,0
460997,673,-8164,-883,0,4,0,0
461002,647,-8164,-867,0,4,0,0
461007,620,-8166,-848,0,5,0,0
461012,593,-8165,-831,0,5,0,0
461017,577,-8165,-815,0,6,0,0
461022,570,-8167,-798,0,7,0,0
461027,578,-8168,-783,0,7,0,0
461032,602,-8168,-774,0,8,0,0
461037,632,-8165,-774,0,9,0,0
461042,666,-8163,-770,-1,10,0,0
461047,696,-8162,-767,-1,11,0,0
461052,723,-8163,-765,-1,12,0,0
461057,746,-8162,-763,-1,13,-1,0
461062,759,-8161,-758,-1,13,-1,0
461067,765,-8160,-744,-1,14,-1,0
461072,774,-8161,-725,-1,15,0,0
461077,784,-8164,-708,-1,16,0,0
461082,801,-8165,-688,-1,15,0,0
461086,822,-8165,-674,-1,12,0,0
461091,844,-8166,-671,-1,9,0,0
461097,874,-8165,-677,-1,6,-1,0
461102,893,-8164,-695,-1,4,0,0
461107,907,-8164,-714,-1,2,0,0
461112,930,-8164,-729,-1,1,0,0
461117,957,-8164,-749,-1,1,0,0
461122,985,-8164,-758,-1,1,0,0
461127,1008,-8163,-747,-1,1,0,0
461132,1022,-8162,-730,-1,2,0,0
461137,1027,-8161,-704,-1,4,0,0
461142,1027,-8162,-687,-1,6,0,0
461147,1030,-8161,-679,-1,8,0,0
461152,1035,-8162,-679,-1,8,0,0
461157,1048,-8161,-693,-1,7,0,0
461162,1059,-8160,-709,-1,5,0,0
461167,1070,-8158,-723,-1,3,0,0
461171,1078,-8160,-736,-1,1,0,0
461177,1079,-8159,-743,-1,0,0,0
461181,1073,-8159,-742,-1,1,0,0
461186,1062,-8158,-735,-1,1,0,0
461192,1043,-8158,-729,-1,1,0,0
461197,1020,-8157,-721,-1,0,1,0
461202,994,-8160,-715,-1,0,1,0
461207,962,-8162,-710,-1,-1,1,0
461212,933,-8163,-702,-1,-1,1,0
461216,901,-8166,-693,-1,-2,0,0
461222,864,-8169,-673,-1,-3,0,0
461227,830,-8169,-646,-1,-4,0,0
461231,792,-8169,-620,-1,-4,0,0
461236,759,-8168,-589,-1,-3,0,0
461242,725,-8167,-570,-1,-1,0,0
461247,693,-8168,-566,-1,0,0,0
461252,671,-8170,-571,-1,2,0,0
461257,664,-8172,-587,-1,2,0,0
461262,672,-8171,-605,-2,3,0,0
461267,697,-8171,-618,-2,2,0,0
461272,736,-8170,-630,-2,2,0,0
461277,781,-8169,-643,-2,2,0,0
461282,822,-8171,-655,-2,1,0,0
461286,856,-8170,-661,-2,0,0,0
461291,876,-8169,-668,-2,-2,0,0
461297,879,-8168,-665,-2,-4,0,0
461302,862,-8167,-654,-2,-5,0,0
461306,825,-8166,-643,-2,-5,0,0
461312,775,-8165,-632,-2,-4,0,0
461316,720,-8166,-626,-2,-3,0,0
461321,674,-8167,-626,-2,-1,0,0
461326,641,-8170,-632,-2,1,0,0
461331,621,-8172,-648,-2,3,0,0
461336,619,-8173,-664,-2,4,0,0
461341,636,-8171,-670,-2,5,0,0
461346,662,-8171,-667,-3,5,0,0
461351,705,-8170,-655,-3,5,0,0
461356,760,-8169,-642,-3,5,0,0
461361,810,-8165,-631,-3,3,0,0
461366,856,-8165,-627,-2,1,0,0
461371,890,-8164,-634,-2,-2,0,0
461376,898,-8165,-649,-2,-5,0,0
461381,887,-8165,-678,-2,-6,0,0
461386,856,-8169,-710,-2,-6,0,0
461391,812,-8170,-737,-3,-6,0,0
461396,761,-8172,-756,-3,-6,0,0
461401,716,-8171,-772,-3,-5,0,0
461406,686,-8169,-785,-3,-4,0,0
461411,672,-8168,-794,-3,-3,0,0
461416,677,-8169,-805,-3,-2,0,0
461421,698,-8168,-814,-3,0,0,0
461426,732,-8167,-820,-3,0,0,0
461431,783,-8169,-823,-3,0,0,0
461436,838,-8170,-822,-3,-1,0,0
461441,890,-8166,-820,-3,-3,0,0
461446,932,-8165,-816,-3,-4,0,0
461451,956,-8162,-820,-3,-5,0,0
461456,963,-8160,-827,-2,-6,0,0
461461,953,-8162,-843,-2,-7,0,0
461466,928,-8162,-862,-2,-9,0,0
461471,890,-8165,-881,-2,-10,0,0
461476,843,-8167,-906,-2,-11,0,0
461481,794,-8166,-928,-2,-11,0,0
461486,752,-8163,-947,-2,-10,0,0
461491,719,-8161,-964,-2,-8,0,0
461496,699,-8159,-982,-2,-7,0,0
461501,728,-8150,-1064,-2,-5,0,0
461506,777,-8150,-1150,-2,-4,0,0
461511,797,-8153,-1158,-2,-2,0,0
461516,788,-8157,-1149,-2,-3,0,0
461521,773,-8158,-1141,-2,-4,0,0
461526,752,-8159,-1119,-2,-6,0,0
461531,723,-8159,-1117,-1,-6,0,0
461536,707,-8159,-1114,-1,-5,0,0
461541,702,-8158,-1104,-2,-3,0,0
461546,700,-8158,-1097,-2,-1,0,0
461551,711,-8160,-1089,-2,-1,0,0
461556,724,-8161,-1069,-2,-1,0,0
461561,722,-8157,-1035,-1,-2,0,0
461566,724,-8152,-1030,-1,-4,0,0
461571,734,-8150,-1043,-1,-5,0,0
461576,742,-8149,-1080,-1,-6,0,0
461581,749,-8150,-1135,-1,-7,-1,0
461586,771,-8149,-1170,-1,-8,-1,0
461591,780,-8149,-1188,-1,-7,-1,0
461596,770,-8150,-1204,0,-7,-1,0
461601,717,-8151,-1192,0,-6,0,0
461606,609,-8153,-1187,0,-6,0,0
461611,489,-8157,-1193,0,-7,0,0
461616,408,-8159,-1204,0,-7,0,0
461621,335,-8162,-1212,0,-5,0,0
461626,276,-8164,-1203,0,0,0,0
461631,277,-8163,-1169,0,5,-1,0
461636,328,-8163,-1138,0,9,-1,0
461641,391,-8160,-1101,0,9,-1,0
461646,449,-8162,-1072,0,5,-1,0
461651,517,-8158,-1053,0,0,-1,0
461656,591,-8157,-1039,0,-4,-1,0
461661,650,-8157,-1027,0,-5,-1,0
461666,697,-8158,-1020,0,-6,-1,0
461671,746,-8157,-1017,0,-6,-1,0
461676,786,-8157,-1006,0,-5,-1,0
461681,807,-8157,-989,0,-5,-1,0
461686,824,-8154,-981,0,-5,-1,0
461691,840,-8153,-987,0,-4,-1,0
461696,849,-8153,-1012,0,-4,-1,0
461701,858,-8153,-1047,0,-3,-1,0
461706,875,-8152,-1086,0,-1,-1,0
461711,901,-8151,-1126,0,0,-1,0
461716,924,-8150,-1153,0,1,0,0
461721,958,-8148,-1168,0,1,0,0
461726,996,-8145,-1172,0,1,0,0
461731,1020,-8145,-1162,1,0,0,0
461736,1023,-8148,-1147,1,-2,0,0
461741,1006,-8148,-1120,1,-4,0,0
461746,972,-8149,-1092,1,-4,0,0
461751,930,-8152,-1060,1,-4,0,0
461756,877,-8152,-1018,1,-3,0,0
461762,828,-8152,-980,1,-1,0,0
461766,786,-8154,-943,1,1,0,0
461771,757,-8152,-917,1,3,0,0
461776,742,-8153,-900,1,4,0,0
461781,736,-8154,-895,1,4,0,0
461786,739,-8154,-895,1,4,0,0
461791,743,-8154,-898,1,4,0,0
461796,742,-8156,-906,1,3,0,0
461801,734,-8156,-912,1,2,0,0
461806,717,-8158,-915,1,1,0,0
461811,697,-8160,-917,1,0,-1,0
461816,672,-8160,-906,1,-1,0,0
461821,647,-8161,-887,1,-1,-1,0
461826,624,-8163,-864,1,-1,-1,0
461832,611,-8163,-836,1,0,-1,0
461836,606,-8164,-808,1,0,-1,0
461841,602,-8164,-780,1,0,-1,0
461846,599,-8164,-759,1,1,-1,0
461851,598,-8164,-743,1,1,-1,0
461856,601,-8164,-738,1,1,-1,0
461861,611,-8164,-747,1,0,-1,0
461866,621,-8164,-768,1,0,-1,0
461871,626,-8163,-803,1,0,-1,0
461876,632,-8160,-847,1,0,-1,0
461881,647,-8161,-889,1,1,-1,0
461886,672,-8159,-925,0,1,-1,0
461891,707,-8158,-949,0,2,-1,0
461896,746,-8155,-958,0,3,-1,0
461901,791,-8154,-954,0,4,-1,0
461906,835,-8152,-940,0,6,-1,0
461911,871,-8152,-918,0,6,-1,0
461916,900,-8150,-902,0,6,-1,0
461921,913,-8150,-887,0,5,-1,0
461926,902,-8149,-870,0,3,-1,0
461931,877,-8151,-853,1,2,-1,0
461936,847,-8154,-846,1,2,-1,0
461941,811,-8157,-849,1,1,-1,0
461946,780,-8158,-871,1,1,-1,0
461951,758,-8159,-898,1,1,-1,0
461956,747,-8160,-920,1,2,-1,0
461961,743,-8159,-936,1,2,-1,0
461966,741,-8158,-928,1,3,-1,0
461971,745,-8160,-901,1,3,-1,0
461976,752,-8161,-864,1,3,-1,0
461981,757,-8162,-823,1,3,-1,0
461986,762,-8161,-788,1,2,-1,0
461991,763,-8162,-763,1,1,-1,0
461996,756,-8164,-752,1,0,-1,0
462001,742,-8165,-754,1,0,-1,0
462006,721,-8165,-764,1,0,-1,0
462011,700,-8167,-776,1,1,-1,0
462016,683,-8167,-788,1,2,-1,0
462021,678,-8166,-790,0,2,-1,0
462026,680,-8167,-787,0,2,-1,0
462031,688,-8166,-783,1,2,-1,0
462036,714,-8162,-783,1,3,-1,0
462041,755,-8163,-800,1,4,-1,0
462046,795,-8162,-837,1,6,-1,0
462051,843,-8163,-876,1,7,-1,0
462056,888,-8161,-901,0,6,-1,0
462061,906,-8159,-898,0,4,-1,0
462066,878,-8159,-884,1,1,0,0
462071,817,-8159,-865,1,-2,0,0
462076,753,-8160,-863,1,-2,0,0
462081,691,-8163,-876,1,1,0,0
462086,640,-8166,-875,1,5,0,0
462091,626,-8166,-869,1,9,0,0
462096,650,-8166,-856,1,11,0,0
462101,693,-8167,-843,1,12,0,0
462106,732,-8166,-833,1,11,0,0
462111,748,-8166,-824,1,9,0,0
462116,748,-8166,-812,1,5,1,0
462121,741,-8168,-783,1,2,0,0
462126,713,-8167,-722,1,0,0,0
462131,688,-8167,-641,1,-1,0,0
462136,669,-8169,-557,1,-1,0,0
462141,672,-8175,-467,1,-1,0,0
462146,699,-8177,-395,1,0,0,0
462151,718,-8177,-344,1,-1,0,0
462156,653,-8168,-276,1,-2,0,0
462161,663,-8163,-258,1,-4,0,0
462166,807,-8166,-316,0,-3,0,0
462171,806,-8168,-332,0,1,-1,0
462176,861,-8168,-320,0,0,-1,0
462181,865,-8165,-296,0,-1,-1,0
462186,835,-8166,-300,0,-5,-1,0
462191,829,-8169,-311,0,-8,-1,0
462196,779,-8177,-291,0,-8,-1,0
462201,797,-8187,-318,0,-7,-1,0
462206,801,-8205,-370,0,-5,-1,0
462211,784,-8215,-384,0,-3,-1,0
462216,762,-8211,-355,0,-2,-1,0
462221,753,-8197,-349,0,-2,0,0
462226,769,-8180,-371,0,-2,0,0
462231,812,-8178,-411,0,-1,0,0
462236,869,-8169,-452,0,1,0,0
462241,900,-8169,-482,0,3,0,0
462246,903,-8175,-498,0,4,0,0
462251,879,-8187,-485,0,3,0,0
462256,880,-8191,-458,0,1,0,0
462261,856,-8196,-501,0,0,0,0
462266,806,-8202,-528,0,-1,0,0
462271,765,-8189,-532,0,-2,0,0
462276,710,-8175,-523,0,-1,0,0
462281,664,-8162,-479,0,-1,0,0
462286,647,-8157,-514,0,-2,0,0
462291,640,-8156,-548,0,-2,0,0
462296,621,-8153,-586,-1,-1,0,0
462302,607,-8142,-576,-1,-1,0,0
462306,602,-8139,-580,-1,-1,0,0
462311,590,-8139,-584,-1,-2,0,0
462316,597,-8143,-607,-1,-2,0,0
462321,605,-8150,-600,-1,-2,0,0
462326,622,-8156,-577,-1,-2,0,0
462331,650,-8167,-558,-1,-2,0,0
462336,690,-8177,-538,-1,-4,0,0
462341,719,-8185,-525,0,-6,0,0
462346,754,-8178,-538,0,-8,0,0
462351,761,-8173,-542,0,-10,0,0
462356,759,-8158,-578,0,-10,0,0
462361,733,-8150,-596,0,-9,0,0
462366,691,-8128,-575,0,-7,0,0
462371,702,-8135,-615,0,-7,0,0
462376,708,-8131,-633,0,-8,-1,0
462381,729,-8130,-705,0,-9,-1,0
462386,692,-8118,-689,0,-8,-1,0
462391,665,-8119,-708,-1,-7,-1,0
462397,642,-8138,-684,0,-6,-1,0
462402,647,-8150,-698,-1,-5,-1,0
462407,682,-8170,-729,-1,-6,-1,0
462412,701,-8168,-762,-1,-5,-1,0
462417,701,-8154,-788,-1,-5,-1,0
462422,676,-8159,-800,-1,-4,-1,1
462427,667,-8151,-807,-1,-4,-1,1
462432,667,-8141,-802,0,-4,-1,1
462437,685,-8154,-790,0,-4,-1,1
462443,681,-8159,-768,0,-5,-1,1
462447,684,-8139,-757,0,-6,-1,1
462452,653,-8136,-719,0,-6,-1,1
462457,670,-8149,-745,0,-6,-1,1
462461,645,-8153,-660,0,-5,0,1
462466,701,-8155,-690,0,-5,0,1
462471,700,-8151,-616,0,-5,0,1
462476,747,-8143,-691,0,-5,0,1
462481,754,-8166,-654,0,-4,0,1
462486,799,-8205,-678,0,-4,0,1
462491,793,-8203,-630,0,-5,0,1
462496,836,-8186,-672,0,-6,0,1
462501,823,-8196,-651,1,-5,0,1
462506,817,-8192,-657,1,-6,0,1
462511,793,-8176,-628,1,-7,0,1
462516,784,-8148,-642,1,-8,0,1
462521,770,-8147,-592,1,-9,0,1
462526,775,-8133,-634,2,-10,0,1
462531,750,-8143,-629,2,-9,0,1
462536,718,-8146,-647,2,-9,0,1
462541,670,-8137,-628,2,-8,0,1
462546,655,-8132,-642,2,-7,0,1
462551,668,-8154,-628,2,-6,0,1
462556,700,-8163,-671,2,-5,0,1
462561,718,-8170,-678,2,-5,0,1
462566,733,-8172,-709,2,-4,0,1
462571,730,-8174,-709,2,-5,0,1
462576,740,-8177,-763,2,-4,0,1
462581,729,-8189,-777,2,-3,0,1
462586,727,-8214,-785,2,-1,1,1
462591,721,-8227,-784,3,-1,1,1
462596,730,-8238,-819,3,-1,1,1
462601,712,-8246,-811,3,-1,1,1
462606,711,-8243,-817,3,-1,1,1
462611,703,-8232,-784,3,-1,1,1
462616,709,-8207,-790,3,-1,1,1
462621,709,-8263,-749,3,-1,1,1
462626,728,-8271,-736,3,-3,1,1
462631,743,-8273,-780,3,-4,1,1
462636,714,-8264,-756,3,-3,1,1
462641,682,-8220,-732,3,-2,1,1
462646,660,-8191,-750,2,-2,1,1
462651,668,-8224,-787,2,-3,1,1
462656,636,-8227,-728,2,-4,1,1
462661,665,-8194,-755,2,-6,1,1
462666,659,-8173,-735,2,-5,1,1
462671,651,-8157,-735,2,-4,1,1
462676,630,-8154,-705,2,-4,1,1
462681,640,-8144,-718,3,-5,1,1
462686,628,-8144,-702,3,-5,1,1
462691,616,-8188,-655,3,-5,1,1
462696,613,-8175,-612,3,-6,1,1
462701,636,-8147,-639,2,-7,0,1
462706,621,-8124,-629,2,-6,0,1
462711,581,-8114,-583,2,-6,0,1
462716,571,-8128,-602,2,-7,0,1
462721,573,-8145,-588,2,-8,0,1
462726,608,-8130,-644,2,-8,0,1
462731,611,-8137,-652,2,-8,0,1
462736,622,-8159,-691,2,-8,0,1
462741,623,-8183,-718,2,-9,0,1
462746,643,-8191,-727,2,-9,0,1
462751,669,-8186,-738,2,-9,0,1
462756,685,-8186,-736,2,-8,0,1
462761,702,-8176,-729,2,-6,0,1
462766,711,-8166,-725,1,-5,0,1
462771,721,-8166,-712,1,-4,0,1
462776,726,-8156,-686,1,-4,0,1
462781,736,-8152,-645,1,-5,0,1
462786,740,-8145,-644,1,-6,0,1
462791,725,-8139,-643,1,-6,0,1
462796,699,-8144,-615,1,-4,0,1
462801,678,-8115,-605,1,-4,0,1
462806,682,-8124,-601,1,-4,-1,1
462811,694,-8142,-576,1,-4,-1,1
462816,738,-8144,-599,1,-6,-1,1
462821,760,-8141,-630,1,-6,-1,1
462826,759,-8165,-658,1,-6,-1,1
462831,729,-8173,-645,1,-6,-1,1
462836,725,-8152,-656,1,-6,-1,1
462841,710,-8151,-632,1,-5,0,1
462846,731,-8163,-678,1,-5,0,1
462851,719,-8187,-670,1,-4,0,1
462856,704,-8192,-655,0,-3,0,1
462861,692,-8196,-624,0,-4,0,1
462866,699,-8183,-608,0,-4,0,1
462871,703,-8171,-579,0,-3,0,1
462876,714,-8175,-576,0,-4,0,1
462881,721,-8156,-576,1,-4,0,1
462886,710,-8165,-564,1,-4,0,1
462891,712,-8172,-558,1,-4,0,1
462895,704,-8163,-534,1,-5,0,1
462901,701,-8170,-570,0,-4,0,1
462906,681,-8187,-565,0,-3,0,1
462911,660,-8198,-548,0,-3,0,1
462916,659,-8213,-585,0,-2,-1,1
462921,647,-8245,-599,0,-2,-1,1
462926,654,-8244,-614,-1,-3,-1,1
462932,645,-8251,-589,-1,-5,-1,1
462937,662,-8234,-587,0,-7,-1,1
462942,675,-8220,-597,0,-8,-1,1
462947,675,-8205,-593,0,-8,-1,1
462952,683,-8190,-616,0,-8,-1,1
462957,683,-8184,-637,0,-7,-1,1
462963,672,-8185,-656,0,-7,-1,1
462967,683,-8177,-661,0,-6,-1,1
462973,687,-8174,-669,0,-5,-1,1
462978,683,-8169,-632,0,-4,0,1
462983,707,-8173,-649,0,-4,0,1
462988,718,-8181,-650,0,-4,0,1
462993,726,-8179,-653,0,-5,-1,1
462997,713,-8177,-638,0,-6,-1,1
463002,707,-8181,-615,0,-7,-1,1
463007,728,-8179,-628,0,-7,-1,1
463012,726,-8169,-609,0,-7,-1,1
463018,737,-8154,-641,0,-7,-1,1
463023,737,-8149,-664,0,-7,-1,1
463028,735,-8140,-716,-1,-7,-1,1
463033,712,-8133,-738,-1,-6,-1,1
463038,712,-8126,-763,-1,-4,-1,1
463043,711,-8131,-747,-1,-3,-1,1
463049,742,-8140,-774,-1,-4,-1,1
463053,764,-8151,-780,-1,-5,-1,1
463059,779,-8162,-794,-1,-6,-1,1
463064,776,-8172,-771,-1,-5,-1,1
463068,777,-8170,-782,-1,-5,-1,1
463073,783,-8184,-757,-1,-4,-1,1
463078,792,-8176,-736,0,-4,-1,1
463083,806,-8180,-754,0,-4,-1,1
463088,789,-8177,-757,0,-4,-1,1
463093,754,-8169,-775,0,-3,-1,1
463098,699,-8162,-768,0,-2,-1,1
463103,662,-8162,-771,0,-1,-1,1
463107,643,-8169,-772,0,0,-1,1
463112,640,-8184,-752,0,1,-1,1
463117,661,-8188,-752,0,0,-1,1
463122,678,-8191,-732,0,0,-1,1
463127,710,-8183,-717,0,0,-1,1
463132,732,-8184,-704,0,0,-1,1
463137,744,-8170,-695,0,-1,-1,1
463142,745,-8152,-703,1,-2,-1,1
463146,727,-8142,-756,1,-2,0,1
463151,679,-8153,-755,1,0,0,1
463156,651,-8153,-760,1,2,0,1
463161,636,-8155,-744,1,4,0,1
463166,637,-8154,-739,1,4,0,1
463171,645,-8158,-754,1,3,0,1
463175,627,-8165,-750,1,3,-1,1
463181,608,-8172,-766,1,3,-1,1
463186,578,-8183,-746,1,4,-1,1
463190,581,-8181,-758,1,5,-1,1
463196,577,-8180,-768,0,7,-1,1
463200,589,-8175,-766,0,8,-1,1
463205,612,-8175,-755,0,9,-1,1
463211,647,-8164,-771,0,9,-1,1
463215,669,-8152,-753,0,8,-1,1
463220,688,-8150,-759,0,8,-1,1
463225,698,-8149,-750,0,8,-1,1
463230,705,-8151,-753,-1,9,-1,1
463235,703,-8155,-760,-1,10,-1,1
463240,706,-8159,-751,-1,13,-1,1
463245,716,-8162,-732,-2,15,-1,1
463250,733,-8164,-732,-2,17,-2,1
463255,747,-8166,-728,-2,19,-2,1
463260,767,-8166,-745,-2,20,-2,1
463265,784,-8166,-768,-2,19,-2,1
463270,795,-8166,-800,-2,17,-2,1
463275,797,-8163,-831,-2,15,-2,1
463281,792,-8161,-863,-2,14,-2,1
463285,785,-8161,-904,-1,12,-2,1
463290,776,-8163,-953,-1,12,-2,1
463296,777,-8162,-994,-1,12,-2,1
463300,788,-8162,-1020,-1,13,-2,1
463305,808,-8160,-1031,0,13,-2,1
463310,821,-8160,-1034,0,13,-2,1
463315,828,-8162,-1015,0,13,-2,1
463320,857,-8163,-985,0,12,-1,1
463325,884,-8166,-961,0,10,-1,1
463330,911,-8168,-917,0,6,-1,1
463335,927,-8168,-847,0,3,-1,1
463341,926,-8171,-763,0,1,0,1
463345,925,-8171,-678,0,0,0,1
463350,931,-8171,-591,0,1,0,1
463355,942,-8172,-499,0,2,0,1
463360,958,-8169,-398,0,2,-1,1
463365,976,-8173,-316,0,1,-1,1
463370,987,-8170,-260,-1,-1,-1,1
463376,915,-8178,-231,-1,0,-1,1
463381,876,-8179,-184,-1,3,-1,1
463385,903,-8185,-160,-1,4,-1,1
463390,839,-8185,-150,-2,2,-1,1
463396,840,-8185,-112,-2,-2,-2,1
463401,836,-8183,-141,-2,-1,-1,1
463406,829,-8182,-176,-2,2,-1,1
463410,843,-8178,-196,-2,4,-1,1
463415,853,-8176,-243,-2,5,-1,1
463421,856,-8176,-269,-2,5,-1,1
463426,848,-8175,-289,-2,4,-1,1
463430,818,-8176,-300,-2,3,-1,1
463435,771,-8175,-297,-2,1,-1,1
463441,716,-8177,-301,-2,0,-1,1
463445,675,-8177,-313,-2,-1,-2,1
463450,678,-8176,-341,-2,0,-2,1
463456,690,-8176,-371,-2,1,-2,1
463460,693,-8172,-392,-2,2,-2,1
463465,702,-8170,-418,-2,1,-2,1
463470,708,-8171,-444,-2,1,-2,1
463476,722,-8169,-462,-2,0,-2,1
463480,734,-8168,-485,-2,-1,-2,1
463485,738,-8166,-498,-2,0,-1,1
463490,739,-8168,-506,-3,2,-1,1
463496,741,-8169,-515,-3,3,-1,1
463500,752,-8168,-511,-3,4,-1,1
463505,781,-8167,-520,-3,4,-1,1
463510,808,-8169,-565,-2,3,-1,1
463516,806,-8167,-620,-2,1,-2,1
463521,772,-8166,-663,-2,-1,-2,1
463526,711,-8166,-707,-1,-3,-2,1
463531,643,-8163,-762,-1,-4,-3,1
463536,576,-8163,-828,-1,-5,-3,1
463541,520,-8166,-866,-1,-5,-3,1
463546,501,-8168,-893,-1,-4,-3,1
463551,569,-8170,-909,-1,-3,-3,1
463556,694,-8171,-910,-1,1,-3,1
463561,811,-8171,-899,-2,4,-2,1
463566,890,-8172,-865,-2,3,-1,1
463570,956,-8171,-821,-2,1,-1,1
463575,1017,-8169,-789,-2,0,-1,1
463580,1074,-8162,-780,-1,1,-1,1
463585,1031,-8164,-809,-1,5,-1,1
463590,951,-8167,-753,-1,4,-1,1
463595,981,-8167,-757,-1,0,-2,1
463600,1013,-8164,-839,-1,2,-1,1
463605,1002,-8161,-874,-1,4,-1,1
463610,1001,-8161,-927,-1,5,-1,1
463615,1003,-8157,-967,0,8,0,1
463620,992,-8155,-1024,0,13,0,1
463625,962,-8156,-1094,0,17,1,1
463630,927,-8158,-1119,0,18,0,1
463635,879,-8164,-1132,0,19,0,1
463640,797,-8167,-1102,0,19,1,1
463645,703,-8170,-1036,0,20,0,1
463650,611,-8174,-978,0,22,0,1
463655,546,-8175,-912,0,25,0,1
463660,517,-8173,-863,-1,29,0,1
463665,517,-8171,-823,-1,36,0,1
463670,551,-8168,-771,-1,43,0,1
463675,606,-8169,-717,-1,49,0,1
463680,656,-8170,-654,-1,53,0,1
463685,708,-8172,-586,-1,53,0,1
463690,768,-8175,-527,-1,51,0,1
463695,829,-8177,-472,-1,45,0,1
463700,887,-8178,-430,-2,38,-1,1
463705,920,-8179,-396,-2,30,-1,1
463710,926,-8176,-368,-2,22,-1,1
463715,880,-8176,-360,-2,18,-1,1
463720,851,-8177,-391,-2,22,-1,1
463725,846,-8177,-419,-2,28,0,1
463730,858,-8180,-420,-3,35,0,1
463735,858,-8181,-390,-3,41,1,1
463740,831,-8181,-352,-3,44,1,1
463745,790,-8183,-311,-4,43,1,1
463750,706,-8182,-240,-4,40,0,1
463755,687,-8178,-196,-4,34,-1,1
463760,757,-8177,-256,-4,28,-1,1
463765,753,-8174,-311,-3,23,-1,1
463770,772,-8169,-373,-3,18,-1,1
463775,774,-8163,-433,-3,15,-1,1
463780,765,-8158,-453,-2,14,0,1
463785,780,-8157,-506,-1,15,0,1
463790,808,-8160,-530,-1,14,0,1
463795,845,-8163,-553,0,12,0,1
463800,845,-8162,-581,0,5,0,1
463805,846,-8159,-593,0,-3,0,1
463810,819,-8162,-630,0,-9,0,1
463815,782,-8165,-648,1,-12,0,1
463820,746,-8169,-662,1,-13,-1,1
463825,687,-8172,-679,1,-13,-1,1
463830,612,-8174,-672,1,-11,-1,1
463835,539,-8176,-673,1,-7,-1,1
463840,481,-8175,-663,1,-2,-1,1
463845,450,-8177,-629,2,3,-1,1
463850,463,-8177,-597,2,5,-1,1
463855,489,-8177,-571,2,5,-1,1
463860,514,-8187,-538,2,1,-1,1
463865,534,-8183,-531,1,-4,-1,1
463870,546,-8191,-509,1,-8,-1,1
463875,555,-8190,-484,0,-11,-1,1
463880,561,-8191,-446,0,-14,-1,1
463885,563,-8192,-404,0,-17,-2,1
463890,562,-8198,-360,-1,-20,-2,1
463895,607,-8186,-382,-1,-27,-3,1
463900,702,-8181,-448,-2,-38,-4,1
463905,791,-8181,-454,-2,-46,-4,1
463910,809,-8179,-407,-1,-48,-3,1
463915,794,-8175,-400,-1,-48,-3,1
463920,831,-8171,-385,-1,-45,-4,1
463925,905,-8171,-390,0,-41,-3,1
463930,927,-8171,-438,-1,-36,-2,1
463935,914,-8168,-469,-1,-33,-2,1
463940,937,-8168,-505,-1,-31,-3,1
463945,988,-8168,-552,-1,-29,-3,1
463950,995,-8169,-550,-1,-28,-2,1
463955,981,-8168,-554,-1,-27,-2,1
463960,993,-8168,-551,-1,-27,-2,1
463965,1028,-8167,-527,-1,-28,-2,1
463970,1047,-8169,-529,-1,-29,-2,1
463975,1042,-8169,-539,-1,-30,-2,1
463980,1043,-8168,-558,-1,-31,-2,1
463985,1067,-8169,-614,-1,-31,-2,1
463990,1086,-8165,-680,-1,-30,-2,1
463995,1081,-8163,-733,-1,-29,-1,1
464000,1073,-8163,-797,-1,-28,-1,1
464005,1091,-8159,-854,-1,-26,-1,1
464010,1119,-8159,-897,-1,-24,-1,1
464015,1127,-8161,-915,-1,-21,-1,1
464020,1138,-8158,-914,-1,-20,-1,1
464025,1153,-8160,-892,-1,-19,-1,1
464030,1148,-8162,-863,-1,-19,-1,1
464035,1130,-8162,-829,0,-20,-1,1
464040,1100,-8161,-793,0,-22,-1,1
464045,1060,-8161,-767,0,-23,-1,1
464050,1017,-8161,-745,0,-25,-1,1
464055,976,-8163,-724,0,-26,-1,1
464060,939,-8168,-705,0,-26,-1,1
464065,908,-8171,-678,0,-25,-1,1
464070,893,-8172,-659,0,-23,-1,1
464075,890,-8169,-638,-1,-21,0,1
464080,896,-8167,-612,-1,-19,0,1
464085,912,-8165,-587,-1,-18,0,1
464090,928,-8162,-565,-1,-18,0,1
464095,944,-8158,-546,-1,-18,0,1
464100,956,-8162,-531,-1,-19,0,1
464105,962,-8163,-515,-1,-21,0,1
464110,965,-8165,-507,-1,-23,0,1
464115,962,-8165,-501,-1,-25,0,1
464120,958,-8168,-504,-1,-27,0,1
464126,953,-8171,-508,-1,-28,0,1
464130,944,-8172,-517,-1,-29,0,1
464136,927,-8173,-530,-1,-28,0,1
464140,905,-8172,-550,-1,-25,0,1
464146,872,-8170,-579,-1,-19,0,1
464150,830,-8165,-623,-1,-10,0,1
464155,782,-8164,-674,-1,2,0,1
464160,702,-8164,-735,-1,16,1,1
464165,583,-8164,-798,-2,34,1,1
464170,435,-8166,-873,-2,60,1,1
464175,253,-8164,-962,-2,94,2,1
464180,27,-8166,-1056,-3,137,3,1
464185,-219,-8170,-1162,-3,190,4,1
464190,-466,-8175,-1284,-4,255,5,1
464195,-732,-8178,-1373,-5,327,6,1
464200,-978,-8183,-1457,-7,400,7,1
464205,-1108,-8186,-1563,-8,463,7,1
464210,-1171,-8191,-1627,-8,515,8,1
464215,-1373,-8193,-1616,-9,565,9,1
464220,-1619,-8190,-1555,-10,618,9,1
464225,-1811,-8201,-1399,-10,677,9,1
464230,-1983,-8210,-1175,-11,740,10,1
464235,-2137,-8213,-862,-12,802,11,1
464240,-2250,-8214,-423,-13,862,12,1
464245,-2252,-8223,132,-15,920,12,1
464250,-2168,-8233,726,-15,975,12,1
464255,-2141,-8241,1360,-16,1015,12,1
464260,-2039,-8254,1957,-18,1035,11,1
464265,-1877,-8242,2415,-19,1039,10,1
464270,-1625,-8235,2800,-20,1027,10,1
464275,-1403,-8226,3115,-19,996,11,1
464280,-1068,-8212,3365,-17,933,11,1
464285,-704,-8226,3675,-15,842,10,1
464290,-394,-8235,4037,-15,730,8,1
464295,4,-8233,4205,-15,611,7,1
464300,235,-8202,4361,-12,496,6,1
464305,582,-8191,4507,-8,379,5,1
464310,1014,-8190,4647,-5,269,3,1
464315,1453,-8179,4473,-3,163,2,1
464320,1839,-8167,4152,-1,62,-1,1
464325,2184,-8166,3772,0,-32,-3,1
464330,2483,-8163,3262,0,-106,-4,1
464335,2700,-8157,2702,0,-153,-4,1
464340,2821,-8155,2177,1,-176,-2,1
464345,2785,-8154,1771,2,-184,0,1
464350,2719,-8154,1453,2,-193,0,1
464355,2758,-8153,1196,1,-207,-1,1
464360,2886,-8146,1001,1,-230,-2,1
464365,3112,-8137,827,1,-263,-3,1
464370,3393,-8127,770,2,-308,-3,1
464375,3675,-8122,809,3,-365,-3,1
464380,3925,-8118,897,4,-434,-4,1
464385,4143,-8115,1051,5,-514,-5,1
464390,4326,-8111,1306,7,-603,-6,1
464395,4426,-8115,1636,8,-697,-8,1
464400,4468,-8125,2065,10,-797,-10,1
464405,4498,-8114,2541,11,-895,-12,1
464410,4463,-8104,3106,13,-979,-13,1
464415,4410,-8105,3767,16,-1047,-14,1
464420,4318,-8117,4483,19,-1102,-15,0
464425,4165,-8138,5192,20,-1143,-16,0
464430,3893,-8147,5766,20,-1168,-16,0
464435,3449,-8188,6290,20,-1170,-16,0
464440,2511,-8177,7118,17,-1139,-19,0
464445,1730,-8173,7256,14,-1080,-22,0
464450,773,-8204,7520,14,-987,-21,0
464455,-156,-8225,7352,14,-878,-19,0
464460,-1130,-8238,6810,14,-759,-15,0
464465,-2093,-8254,6018,14,-632,-12,0
464470,-2917,-8249,5075,13,-492,-9,0
464475,-3457,-8296,4340,12,-342,-7,0
464480,-4027,-8311,3524,6,-197,-1,0
464485,-4724,-8314,2393,1,-74,2,0
464490,-4855,-8310,1307,-1,22,2,0
464495,-4780,-8298,403,-2,98,3,0
464500,-4546,-8289,-300,-2,146,4,0
464505,-4029,-8272,-715,-4,171,5,0
464510,-3483,-8258,-1000,-4,184,4,0
464515,-2914,-8241,-1055,-4,184,2,0
464520,-2312,-8224,-989,-4,175,0,0
464525,-1681,-8213,-879,-2,159,-1,0
464530,-1125,-8207,-728,-1,137,0,0
464535,-704,-8194,-619,0,109,0,0
464540,-289,-8185,-543,1,77,-1,0
464545,146,-8181,-488,1,45,-2,0
464550,467,-8180,-475,1,18,-2,0
464555,670,-8179,-429,1,-4,-2,0
464560,819,-8178,-366,1,-16,-2,0
464565,951,-8177,-284,1,-19,-2,0
464570,1053,-8177,-179,1,-16,-2,0
464575,1074,-8179,-87,1,-12,-2,0
464580,1129,-8178,-1,0,-10,-2,0
464585,1194,-8178,35,0,-9,-1,0
464590,1207,-8175,56,0,-12,-1,0
464595,1273,-8177,67,0,-19,-1,0
464600,1295,-8179,40,0,-25,-1,0
464605,1278,-8177,28,0,-30,-1,0
464610,1294,-8176,-4,0,-34,-1,0
464615,1254,-8175,-50,0,-35,-1,0
464620,1197,-8173,-82,0,-36,-1,0
464625,1144,-8172,-137,-1,-35,-1,0
464630,1075,-8174,-207,-1,-33,-1,0
464635,986,-8174,-266,0,-31,-1,0
464640,900,-8175,-355,-1,-28,-1,0
464645,820,-8175,-447,-1,-25,-1,0
464650,745,-8176,-523,-1,-20,-1,0
464655,673,-8176,-603,-1,-14,-1,0
464660,614,-8176,-658,-1,-8,0,0
464665,584,-8176,-699,-1,-2,0,0
464670,567,-8176,-735,-1,2,0,0
464675,572,-8175,-746,-1,4,0,0
464680,596,-8175,-745,-1,5,0,0
464685,610,-8175,-727,-1,4,0,0
464690,635,-8174,-693,-1,3,-1,0
464695,659,-8174,-657,-1,3,-1,0
464700,671,-8173,-613,-1,3,-1,0
464705,688,-8174,-559,-1,3,-1,0
464710,699,-8175,-516,-1,3,-1,0
464715,710,-8174,-471,-1,2,-1,0
464720,726,-8174,-436,-1,1,-1,0
464725,743,-8172,-421,-1,1,-1,0
464730,764,-8173,-424,-1,-1,-1,0
464735,793,-8171,-448,-1,-2,-1,0
464740,816,-8171,-485,-1,-3,-1,0
464745,838,-8170,-528,-1,-3,-1,0
464750,856,-8170,-569,-1,-2,-1,0
464755,864,-8166,-610,-1,-2,-1,0
464760,871,-8164,-646,-1,-1,-1,0
464765,873,-8162,-677,-1,0,0,0
464770,874,-8164,-696,-1,0,0,0
464775,875,-8165,-712,-1,0,0,0
464780,875,-8167,-722,-1,-1,0,0
464785,873,-8171,-731,-1,-1,0,0
464790,870,-8172,-739,-1,-1,0,0
464795,864,-8171,-746,-1,-1,0,0
464800,857,-8170,-748,-1,-1,0,0
464804,847,-8169,-743,-1,-1,0,0
464809,833,-8170,-732,-1,-3,0,0
464814,819,-8169,-712,-1,-4,0,0
464819,800,-8172,-693,-1,-5,0,0
464824,784,-8172,-673,-1,-6,0,0
464829,768,-8173,-655,-1,-6,0,0
464834,751,-8172,-646,-1,-7,-1,0
464839,736,-8173,-637,-1,-8,-1,0
464844,722,-8174,-637,-1,-8,-1,0
464849,705,-8175,-642,-1,-9,-1,0
464854,699,-8176,-649,-1,-10,-1,0
464859,699,-8172,-664,-1,-10,-1,0
464864,708,-8167,-681,-1,-10,-1,0
464869,730,-8165,-703,-1,-10,-1,0
464874,755,-8164,-722,-1,-9,-1,0
464879,783,-8163,-739,-1,-8,-1,0
464884,818,-8164,-740,-1,-7,-1,0
464889,846,-8163,-735,-1,-8,-1,0
464894,866,-8162,-721,-1,-9,-1,0
464899,874,-8167,-703,-1,-11,-1,0
464905,871,-8166,-686,-1,-12,-1,0
464910,860,-8167,-673,-1,-13,-1,0
464914,842,-8168,-662,0,-13,-1,0
464919,819,-8170,-654,0,-13,-1,0
464925,796,-8171,-659,0,-13,-1,0
464930,767,-8172,-664,0,-13,-1,0
464934,739,-8172,-670,0,-13,-1,0
464940,720,-8173,-687,0,-12,-1,0
464945,704,-8172,-701,0,-12,-1,0
464950,691,-8170,-719,0,-11,-1,0
464955,677,-8169,-740,0,-10,-1,0
464960,669,-8171,-769,0,-9,-1,0
464965,665,-8172,-798,0,-7,-1,0
464970,660,-8174,-825,0,-5,-1,0
464975,662,-8176,-844,0,-3,-1,0
464980,669,-8176,-854,0,-2,-1,0
464984,673,-8178,-855,0,-2,-1,0
464990,683,-8178,-847,0,-1,-1,0
464995,699,-8179,-828,0,0,-1,0
464999,719,-8177,-809,0,1,-1,0
465004,749,-8172,-793,0,1,-1,0
465010,775,-8170,-777,0,1,0,0
465015,799,-8171,-763,0,1,0,0
465019,822,-8170,-753,0,1,-1,0
465025,839,-8169,-750,0,2,-1,0
465029,846,-8170,-745,0,2,0,0
465035,851,-8168,-745,0,2,0,0
465039,843,-8171,-744,0,1,0,0
465044,831,-8171,-748,0,0,0,0
465049,819,-8171,-752,0,0,0,0
465054,800,-8171,-763,0,1,0,0
465059,784,-8172,-774,0,2,0,0
465064,776,-8170,-785,0,3,0,0
465069,767,-8169,-794,0,5,0,0
465074,771,-8168,-797,0,5,0,0
465079,783,-8169,-801,0,6,0,0
465084,788,-8169,-802,0,6,0,0
465089,802,-8168,-794,0,5,0,0
465094,811,-8169,-790,0,4,0,0
465099,815,-8168,-780,0,4,0,0
465104,816,-8167,-765,0,3,0,0
465109,810,-8169,-757,0,3,0,0
465114,797,-8168,-751,1,2,0,0
465119,785,-8168,-741,1,2,0,0
465124,769,-8173,-731,1,2,0,0
465129,750,-8176,-718,1,2,0,0
465134,740,-8176,-700,0,2,0,0
465139,728,-8179,-685,0,3,0,0
465144,723,-8180,-664,0,4,0,0
465149,733,-8178,-646,0,4,0,0
465154,748,-8179,-626,0,4,0,0
465159,774,-8178,-600,0,2,0,0
465164,808,-8178,-575,0,1,0,0
465169,829,-8178,-550,0,-1,0,0
465174,850,-8177,-523,0,-2,0,0
465179,861,-8176,-500,0,-3,-1,0
465184,863,-8179,-493,0,-4,-1,0
465189,854,-8178,-494,0,-5,0,0
465194,833,-8179,-508,0,-6,0,0
465199,801,-8178,-528,0,-7,0,0
465204,766,-8178,-543,0,-7,-1,0
465209,727,-8177,-559,0,-6,-1,0
465214,678,-8176,-567,0,-5,-1,0
465219,631,-8177,-559,0,-3,-1,0
465224,590,-8177,-548,0,-1,-1,0
465229,553,-8178,-535,0,1,-1,0
465234,520,-8179,-517,0,2,-1,0
465239,492,-8178,-507,0,2,-1,0
465244,485,-8180,-497,0,2,-1,0
465249,495,-8181,-489,0,2,-1,0
465254,513,-8182,-488,0,3,-1,0
465259,558,-8182,-490,0,3,-1,0
465264,611,-8178,-498,0,3,-1,0
465270,656,-8175,-505,0,4,-1,0
465274,704,-8175,-510,0,3,-1,0
465279,742,-8175,-522,0,3,-1,0
465284,760,-8173,-531,0,2,-1,0
465290,774,-8174,-544,0,1,-1,0
465295,779,-8171,-565,0,1,-1,0
465300,778,-8172,-586,0,1,-1,0
465305,782,-8172,-598,0,2,-1,0
465310,785,-8171,-599,-1,3,-1,0
465315,794,-8173,-597,-1,5,-1,0
465319,807,-8171,-588,-1,7,-1,0
465325,817,-8173,-574,-1,8,-1,0
465330,828,-8171,-555,-1,8,-1,0
465335,839,-8173,-545,-1,7,-1,0
465340,838,-8176,-540,-1,5,-1,0
465345,835,-8176,-542,-1,4,-1,0
465350,826,-8177,-553,-1,3,-1,0
465356,814,-8172,-572,0,2,-1,0
465361,803,-8171,-596,0,2,-1,0
465366,793,-8170,-626,0,3,-1,0
465371,784,-8171,-659,-1,3,-1,0
465376,779,-8171,-687,-1,4,-1,0
465380,773,-8172,-707,-1,6,-1,0
465385,766,-8170,-721,-1,7,-1,0
465389,759,-8169,-719,-1,8,-1,0
465394,756,-8167,-708,-1,9,-1,0
465399,757,-8166,-683,-1,9,-1,0
465404,760,-8166,-646,-1,8,-1,0
465409,769,-8167,-604,-1,8,-1,0
465414,786,-8167,-565,-1,7,-1,0
465419,806,-8167,-525,-1,6,-1,0
465424,825,-8165,-493,-1,5,-1,0
465429,845,-8165,-467,-1,4,-1,0
465434,862,-8166,-446,-1,3,-1,0
465439,871,-8168,-434,-1,1,-1,0
465444,878,-8167,-430,-1,0,-1,0
465449,875,-8171,-436,-1,0,-1,0
465454,868,-8172,-448,-1,0,-1,0
465459,862,-8175,-465,-1,0,-1,0
465464,857,-8176,-486,-1,0,-1,0
465470,851,-8175,-503,-1,0,-1,0
465474,846,-8175,-518,-1,0,-1,0
465479,843,-8174,-534,-1,0,-1,0
465484,843,-8174,-545,-1,0,-1,0
465489,848,-8173,-553,-1,0,-1,0
465494,855,-8169,-560,-1,0,-1,0
465500,861,-8168,-571,-1,0,-1,0
465505,874,-8170,-579,-1,0,-1,0
465509,887,-8171,-589,-1,1,0,0
465514,901,-8171,-602,-1,1,0,0
465519,917,-8170,-602,-1,1,0,0
465524,931,-8170,-603,-1,1,0,0
465529,947,-8171,-606,-1,1,0,0
465534,962,-8170,-609,-1,1,0,0
465539,975,-8168,-616,-1,1,0,0
465544,988,-8168,-624,-1,0,0,0
465549,997,-8166,-635,-1,0,0,0
465554,997,-8167,-645,-1,0,0,0
465559,992,-8167,-657,-1,1,0,0
465564,985,-8169,-665,-1,2,0,0
465569,972,-8167,-671,-1,2,0,0
465574,954,-8164,-671,-1,2,0,0
465579,936,-8165,-669,-1,3,0,0
465584,917,-8164,-672,-1,3,0,0
465589,902,-8168,-683,-1,4,0,0
465594,891,-8172,-698,-1,3,0,0
465599,881,-8172,-712,-1,2,0,0
465604,873,-8172,-722,-1,1,0,0
465609,864,-8172,-731,-1,1,0,0
465614,849,-8174,-739,-1,0,0,0
465619,835,-8174,-741,-1,1,0,0
465624,817,-8173,-742,-1,1,0,0
465629,800,-8174,-748,-1,1,0,0
465634,784,-8176,-759,-1,2,0,0
465639,769,-8177,-771,-1,3,0,0
465644,756,-8173,-783,0,4,0,0
465649,746,-8171,-790,0,5,0,0
465654,730,-8170,-791,-1,6,0,0
465659,718,-8170,-779,-1,8,0,0
465664,709,-8168,-763,-1,9,0,0
465669,707,-8166,-741,-1,9,0,0
465674,712,-8168,-715,-1,10,0,0
465679,724,-8171,-689,-1,9,0,0
465684,736,-8172,-658,-1,9,0,0
465689,752,-8169,-630,-1,9,0,0
465694,769,-8169,-605,-1,9,0,0
465699,781,-8170,-588,-1,9,0,0
465704,790,-8170,-570,-1,9,0,0
465709,788,-8170,-564,-1,8,0,0
465714,781,-8171,-564,-1,7,0,0
465719,774,-8171,-562,-1,5,0,0
465724,762,-8173,-566,-1,4,0,0
465729,746,-8173,-569,-1,4,0,0
465734,736,-8172,-575,-1,4,0,0
465739,723,-8172,-579,-1,5,0,0
465744,717,-8170,-586,-1,6,0,0
465749,716,-8169,-586,-1,7,0,0
465754,719,-8167,-583,-1,8,0,0
465759,723,-8167,-574,-1,8,0,0
465764,723,-8165,-560,-1,8,0,0
465769,719,-8167,-548,-1,7,0,0
465774,717,-8168,-535,-1,7,0,0
465779,714,-8170,-518,-1,7,0,0
465784,710,-8173,-508,-1,6,0,0
465789,706,-8175,-506,-1,5,0,0
465794,699,-8175,-507,-1,4,0,0
465799,687,-8176,-518,-1,4,0,0
465804,682,-8176,-523,-1,4,0,0
465809,682,-8177,-527,-1,4,0,0
465814,682,-8179,-531,-1,4,0,0
465819,691,-8178,-533,-1,4,0,0
465824,704,-8177,-536,-1,4,0,0
465829,721,-8179,-541,-1,4,0,0
465834,741,-8178,-545,-1,3,0,0
465839,761,-8176,-548,-1,3,0,0
465844,779,-8174,-551,-1,2,0,0
465849,800,-8173,-556,-1,2,0,0
465854,813,-8169,-554,-1,1,0,0
465859,822,-8169,-558,-1,0,0,0
465864,825,-8172,-556,-1,-1,0,0
465869,819,-8174,-556,-1,-1,0,0
465874,813,-8175,-557,-1,-1,0,0
465879,803,-8179,-564,-1,-1,0,0
465884,789,-8178,-569,-1,-1,0,0
465889,782,-8176,-569,-1,-1,0,0
465894,774,-8179,-568,-1,-1,0,0
465899,768,-8179,-569,-1,-1,0,0
465904,764,-8178,-570,-1,0,0,0
465909,761,-8173,-569,-1,0,0,0
465914,758,-8172,-573,-1,-1,0,0
465919,759,-8170,-580,-1,-1,0,0
465924,758,-8170,-587,-1,-2,0,0
465929,756,-8169,-595,-1,-2,0,0
465934,753,-8169,-612,-1,-2,0,0
465939,746,-8170,-627,-1,-2,0,0
465944,742,-8170,-638,-1,-2,-1,0
465949,739,-8173,-657,-1,-2,-1,0
465954,734,-8173,-682,-1,-3,-1,0
465959,729,-8172,-710,-1,-3,-1,0
465964,727,-8173,-734,-1,-3,0,0
465969,730,-8171,-752,-1,-2,0,0
465974,742,-8172,-763,-1,-2,0,0
465979,756,-8172,-768,-1,-2,0,0
465984,768,-8170,-763,-1,-1,0,0
465989,778,-8169,-760,-1,-1,-1,0
465994,782,-8168,-765,-1,-2,-1,0
465999,776,-8165,-779,-1,-3,-1,0
466004,757,-8164,-797,-1,-4,-1,0
466009,731,-8167,-815,-1,-5,-1,0
466014,703,-8169,-838,-1,-5,-1,0
466019,680,-8170,-855,-1,-4,-1,0
466024,658,-8174,-872,-1,-3,-1,0
466029,642,-8172,-878,0,-1,-1,0
466034,641,-8173,-882,0,0,-1,0
466039,650,-8170,-881,0,1,-1,0
466044,666,-8168,-874,0,1,-1,0
466049,683,-8171,-867,0,0,-1,0
466054,691,-8170,-861,0,0,-1,0
466059,694,-8169,-846,0,0,-1,0
466064,692,-8168,-828,0,0,-1,0
466069,689,-8169,-813,0,1,-1,0
466074,685,-8170,-792,0,1,-1,0
466079,687,-8170,-763,0,1,-1,0
466084,696,-8174,-733,0,1,-1,0
466089,715,-8175,-704,0,1,-1,0
466094,744,-8175,-674,0,1,-1,0
466099,771,-8173,-649,0,1,-1,0
466104,795,-8174,-630,0,0,-1,0
466109,814,-8172,-619,0,0,-1,0
466114,820,-8171,-613,0,-1,-1,0
466119,819,-8171,-611,0,-1,-1,0
466124,813,-8170,-618,0,-1,-1,0
466129,801,-8170,-627,0,-1,-1,0
466134,794,-8171,-644,0,0,-1,0
466139,794,-8170,-662,0,0,-1,0
466144,801,-8169,-687,0,0,-1,0
466149,807,-8168,-714,0,0,-1,0
466154,814,-8168,-734,0,0,-1,0
466159,825,-8167,-752,0,0,-1,0
466164,834,-8164,-762,0,1,-1,0
466169,840,-8165,-767,0,1,-1,0
466174,842,-8164,-770,0,0,-1,0
466179,843,-8162,-764,0,1,-1,0
466184,843,-8166,-748,0,1,-1,0
466189,841,-8165,-730,0,1,-1,0
466194,844,-8163,-713,0,2,-1,0
466199,855,-8167,-702,0,2,0,0
466204,869,-8167,-693,0,2,0,0
466209,882,-8167,-693,0,1,0,0
466214,888,-8166,-696,0,1,0,0
466219,892,-8164,-704,0,0,0,0
466224,890,-8164,-716,0,0,-1,0
466229,882,-8164,-732,0,0,0,0
466234,868,-8164,-745,1,0,0,0
466239,849,-8164,-754,1,0,0,0
466244,835,-8165,-760,1,0,0,0
466249,824,-8168,-757,0,2,0,0
466254,805,-8170,-742,0,3,0,0
466259,781,-8172,-720,0,2,0,0
466264,761,-8173,-684,0,1,0,0
466269,751,-8174,-634,0,1,0,0
466274,753,-8175,-583,0,2,0,0
466279,767,-8176,-548,0,3,0,0
466284,788,-8173,-526,1,3,0,0
466289,811,-8171,-518,1,3,0,0
466294,827,-8171,-524,0,2,0,0
466299,830,-8171,-531,0,1,0,0
466304,824,-8173,-532,0,1,-1,0
466309,807,-8171,-529,0,0,-1,0
466314,783,-8169,-524,0,0,-1,0
466319,758,-8167,-522,0,1,-1,0
466324,735,-8165,-524,0,1,-1,0
466329,711,-8166,-531,0,1,-1,0
466334,689,-8170,-535,0,1,-1,0
466339,665,-8172,-534,0,0,-1,0
466344,641,-8174,-528,0,0,-1,0
466349,621,-8174,-514,0,0,-1,0
466354,606,-8177,-496,0,0,-1,0
466359,603,-8178,-481,0,0,-1,0
466364,612,-8177,-477,0,1,-1,0
466369,635,-8178,-482,0,2,-1,0
466374,669,-8178,-486,0,3,-1,0
466379,709,-8178,-489,0,4,-1,0
466384,751,-8176,-489,0,5,-1,0
466389,793,-8173,-489,0,5,-1,0
466394,828,-8175,-493,0,5,-1,0
466399,855,-8174,-500,0,3,-1,0
466404,877,-8172,-506,0,1,-1,0
466409,889,-8175,-511,0,0,-1,0
466414,890,-8175,-520,0,-1,-1,0
466419,885,-8173,-533,0,-1,-1,0
466424,873,-8174,-540,0,-1,-1,0
466429,855,-8178,-554,0,-1,-1,0
466434,838,-8182,-573,0,-1,-1,0
466439,826,-8181,-593,0,0,-1,0
466444,817,-8180,-619,0,0,-1,0
466449,809,-8180,-649,0,-1,-1,0
466454,791,-8179,-684,0,-2,-1,0
466460,772,-8180,-715,0,-3,-1,0
466465,762,-8180,-739,0,-2,-1,0
466470,755,-8179,-765,0,0,-1,0
466475,754,-8178,-775,0,1,-1,0
466480,753,-8178,-776,0,1,-1,0
466485,748,-8175,-767,0,1,-1,0
466489,744,-8173,-743,0,1,-1,0
466494,740,-8172,-713,0,1,-1,0
466499,740,-8172,-684,0,2,-1,0
466504,744,-8170,-651,0,2,-1,0
466509,750,-8168,-623,0,3,-1,0
466514,763,-8167,-602,0,3,-1,0
466519,779,-8167,-592,0,4,-1,0
466524,793,-8168,-583,0,4,-1,0
466529,808,-8168,-575,0,4,-1,0
466534,819,-8171,-568,0,3,-1,0
466539,827,-8171,-571,0,2,-1,0
466544,837,-8170,-572,0,2,-1,0
466549,845,-8175,-561,0,0,-1,0
466554,839,-8178,-557,0,-2,-1,0
466559,832,-8175,-576,0,-1,-1,0
466564,839,-8176,-627,0,2,-1,0
466569,853,-8172,-687,0,6,-1,0
466574,862,-8169,-741,0,10,-1,0
466579,869,-8168,-778,-1,16,-1,0
466584,871,-8168,-794,-1,20,-1,0
466589,874,-8165,-787,-1,22,0,0
466594,886,-8165,-766,0,23,0,0
466599,907,-8165,-750,0,23,0,0
466604,942,-8164,-734,0,22,0,0
466609,987,-8163,-714,0,21,0,0
466614,1034,-8160,-694,0,20,0,0
466619,1078,-8162,-679,0,19,0,0
466624,1116,-8162,-655,0,17,0,0
466629,1147,-8163,-637,0,16,0,0
466634,1171,-8165,-626,-1,15,0,0
466639,1187,-8162,-632,-1,13,0,0
466644,1193,-8165,-645,-1,11,0,0
466649,1173,-8166,-636,-1,10,0,0
466654,1120,-8163,-627,-1,9,1,0
466658,1068,-8162,-593,-1,8,1,0
466664,1016,-8161,-553,0,9,1,0
466669,956,-8164,-518,0,10,1,0
466674,869,-8164,-482,0,9,1,0
466679,814,-8167,-471,0,8,0,0
466684,772,-8173,-484,1,6,1,0
466689,720,-8172,-501,1,4,1,0
466694,701,-8172,-538,1,3,1,0
466699,693,-8174,-564,0,4,1,0
466704,702,-8174,-575,0,6,1,0
466709,705,-8173,-555,0,8,0,0
466714,702,-8172,-516,0,9,0,0
466719,691,-8173,-474,0,8,0,0
466724,670,-8171,-434,0,7,0,0
466729,659,-8170,-406,0,4,0,0
466733,649,-8171,-403,0,3,0,0
466739,644,-8170,-418,0,1,0,0
466744,648,-8170,-437,0,1,0,0
466749,653,-8171,-454,0,1,0,0
466754,655,-8174,-459,0,1,0,0
466759,649,-8176,-458,0,2,0,0
466764,641,-8178,-447,0,2,0,0
466769,632,-8179,-438,0,2,0,0
466774,628,-8180,-439,0,2,0,0
466779,632,-8182,-444,0,2,0,0
466784,648,-8181,-458,0,2,0,0
466789,673,-8179,-470,0,3,0,0
466794,699,-8180,-475,0,4,0,0
466799,720,-8181,-468,-1,5,0,0
466804,736,-8179,-461,-1,6,0,0
466809,745,-8180,-452,-1,6,0,0
466814,748,-8179,-449,0,6,0,0
466819,749,-8176,-452,0,6,0,0
466824,751,-8177,-467,0,6,0,0
466829,750,-8177,-489,0,5,0,0
466834,752,-8176,-509,0,5,0,0
466839,752,-8173,-527,-1,5,0,0
466844,753,-8170,-538,-1,6,0,0
466849,750,-8173,-537,-1,7,0,0
466854,746,-8173,-528,-1,8,0,0
466859,746,-8176,-521,-1,8,0,0
466864,748,-8175,-510,-1,8,0,0
466868,755,-8175,-498,-1,7,0,0
466873,762,-8176,-484,-1,7,0,0
466879,761,-8180,-466,-1,6,0,0
466884,755,-8177,-441,-1,5,0,0
466889,743,-8175,-421,-1,5,0,0
466893,726,-8177,-408,-1,5,0,0
466898,710,-8179,-396,-1,5,0,0
466903,699,-8179,-402,-1,5,0,0
466908,692,-8178,-414,-1,6,0,0
466913,692,-8178,-436,-1,6,0,0
466919,695,-8179,-458,-1,6,-1,0
466924,701,-8178,-481,-1,7,-1,0
466929,706,-8177,-500,-1,6,-1,0
466934,714,-8177,-515,-1,6,-1,0
466939,718,-8177,-530,-1,5,-1,0
466944,719,-8177,-534,-1,4,-1,0
466949,720,-8175,-529,-1,4,-1,0
466954,722,-8177,-518,-1,4,-1,0
466959,729,-8176,-505,-1,5,-1,0
466964,738,-8177,-495,-1,5,-1,0
466969,749,-8178,-483,-1,4,-1,0
466974,764,-8179,-475,-1,4,-1,0
466979,774,-8181,-474,-1,4,-1,0
466984,782,-8183,-476,-1,3,-1,0
466988,786,-8185,-484,-1,2,-1,0
466993,781,-8184,-494,-1,1,-1,0
466998,772,-8183,-505,-1,1,-1,0
467003,766,-8181,-519,-1,1,-1,0
467009,759,-8178,-537,-1,1,-1,0
467013,752,-8180,-558,-1,1,-1,0
467018,747,-8182,-578,-1,2,-1,0
467023,741,-8183,-599,-1,2,-1,0
467028,737,-8183,-612,-1,2,-1,0
467033,734,-8184,-612,-1,2,-1,0
467038,736,-8183,-607,-1,3,-1,0
467044,743,-8181,-594,-1,5,-1,0
467048,755,-8179,-580,-1,6,-1,0
467053,773,-8176,-568,-1,7,-1,0
467058,789,-8176,-550,-1,8,-1,0
467063,805,-8177,-534,-1,9,-1,0
467068,819,-8175,-519,-1,10,-1,0
467074,836,-8175,-505,-1,10,-1,0
467079,851,-8173,-489,-1,11,-1,0
467083,866,-8171,-476,-1,11,0,0
467088,880,-8172,-463,-1,11,0,0
467094,891,-8170,-463,-1,11,0,0
467098,898,-8169,-464,-1,11,0,0
467104,899,-8169,-469,-1,11,0,0
467108,895,-8169,-481,-1,10,0,0
467113,884,-8169,-499,-1,9,0,0
467118,870,-8168,-520,-1,8,0,0
467123,854,-8170,-538,-1,7,0,0
467128,837,-8171,-556,-1,6,0,0
467133,822,-8173,-565,-1,7,0,0
467138,817,-8175,-575,-1,7,0,0
467143,817,-8173,-582,-1,9,0,0
467148,821,-8172,-587,-1,9,0,0
467154,832,-8171,-588,-1,10,0,0
467159,844,-8170,-584,-1,11,0,0
467163,858,-8169,-573,-1,12,0,0
467168,873,-8166,-558,-1,13,0,0
467173,888,-8167,-548,-1,15,0,0
467178,905,-8169,-541,-1,15,0,0
467183,923,-8170,-537,-1,16,0,0
467188,933,-8168,-530,-1,17,0,0
467193,946,-8165,-529,-2,18,0,0
467198,957,-8163,-525,-2,17,0,0
467203,959,-8163,-519,-2,15,0,0
467208,962,-8165,-513,-1,12,0,0
467213,955,-8168,-501,-1,8,0,0
467218,938,-8169,-487,-1,5,0,0
467223,915,-8168,-476,-1,4,0,0
467228,889,-8169,-465,-1,3,0,0
467233,867,-8169,-461,-1,3,0,0
467238,848,-8168,-465,-1,3,0,0
467243,833,-8166,-473,-1,3,0,0
467248,827,-8164,-491,-1,3,0,0
467253,827,-8166,-509,-1,3,0,0
467258,833,-8166,-526,-1,2,0,0
467263,841,-8168,-542,-1,1,0,0
467268,845,-8169,-555,-1,0,0,0
467273,849,-8171,-564,-1,-1,0,0
467278,851,-8169,-572,-1,-2,0,0
467283,848,-8171,-578,-1,-2,0,0
467289,843,-8176,-575,-1,-2,0,0
467293,840,-8176,-562,-2,-1,0,0
467298,840,-8175,-536,-2,-1,0,0
467303,844,-8172,-504,-2,-1,0,0
467308,848,-8172,-472,-2,-1,0,0
467313,852,-8169,-445,-2,-2,0,0
467318,856,-8170,-430,-1,-3,0,0
467323,854,-8171,-423,-2,-4,0,0
467328,757,-8168,-531,-2,-6,0,0
467333,607,-8169,-659,-2,-7,0,0
467338,574,-8176,-708,-3,-1,0,0
467343,600,-8180,-744,-3,6,0,0
467348,710,-8178,-735,-3,4,0,0
467353,831,-8169,-686,-3,-4,0,0
467358,933,-8163,-621,-3,-13,0,0
467363,991,-8158,-564,-2,-20,-1,0
467368,990,-8156,-489,-1,-25,-1,0
467373,982,-8160,-451,-1,-27,-1,0
467378,933,-8165,-466,-1,-25,-1,0
467384,858,-8167,-503,-1,-21,0,0
467388,804,-8170,-546,-1,-18,0,0
467393,730,-8172,-593,-1,-14,0,0
467398,683,-8172,-620,-1,-10,0,0
467403,670,-8174,-622,-2,-4,0,0
467408,672,-8175,-601,-2,2,0,0
467413,709,-8178,-564,-2,6,0,0
467418,766,-8177,-540,-2,6,0,0
467423,808,-8175,-531,-1,3,0,0
467428,849,-8174,-545,-1,-1,0,0
467433,869,-8174,-589,-1,-6,0,0
467438,863,-8176,-625,-1,-9,0,0
467443,847,-8177,-660,-1,-10,-1,0
467448,810,-8179,-681,-1,-10,-1,0
467453,757,-8179,-683,-1,-9,-1,0
467458,708,-8181,-671,-1,-7,0,0
467463,662,-8182,-660,-1,-4,0,0
467468,635,-8180,-657,-1,-2,0,0
467473,629,-8178,-658,-1,0,0,0
467478,646,-8179,-668,-1,1,0,0
467483,678,-8180,-674,-1,1,0,0
467488,711,-8179,-673,-1,0,0,0
467493,735,-8182,-660,-2,-1,0,0
467498,746,-8183,-638,-1,-2,-1,0
467503,742,-8180,-610,-1,-2,-1,0
467508,731,-8180,-587,-1,-3,-1,0
467513,713,-8179,-573,-1,-4,0,0
467518,701,-8179,-577,-1,-4,0,0
467523,693,-8180,-595,-1,-5,0,0
467528,691,-8178,-624,-1,-5,0,0
467533,694,-8176,-651,-1,-4,-1,0
467538,699,-8177,-673,-1,-3,-1,0
467543,701,-8175,-688,-1,-3,-1,0
467548,703,-8176,-704,-1,-4,-1,0
467553,705,-8176,-722,-1,-5,-1,0
467558,705,-8175,-746,-1,-6,-1,0
467563,712,-8176,-773,-1,-6,-1,0
467568,717,-8177,-797,-1,-6,-1,0
467573,719,-8178,-819,-1,-5,-1,0
467578,730,-8176,-830,-1,-3,-1,0
467583,739,-8172,-832,-1,-2,-1,0
467588,754,-8172,-825,-1,-1,-1,0
467593,772,-8171,-812,-1,0,-1,0
467598,789,-8168,-799,-1,0,0,0
467603,812,-8167,-780,-1,0,0,0
467608,833,-8164,-762,-1,0,0,0
467613,839,-8163,-746,-1,0,0,0
467618,840,-8164,-736,-1,-1,0,0
467623,829,-8165,-724,-1,-1,0,0
467629,808,-8164,-711,-1,-1,0,0
467634,783,-8161,-696,-1,-1,0,0
467640,758,-8161,-681,-1,0,0,0
467645,740,-8163,-667,-1,0,0,0
467650,729,-8165,-660,-1,0,0,0
467655,727,-8167,-662,-1,0,0,0
467659,732,-8167,-669,-1,-1,0,0
467665,734,-8169,-684,-1,-1,-1,0
467670,732,-8173,-699,-1,-2,-1,0
467675,729,-8172,-712,-1,-2,-1,0
467681,722,-8172,-726,-1,-1,-1,0
467686,719,-8175,-736,-1,-1,-1,0
467692,720,-8176,-739,-1,-1,-1,0
467696,724,-8174,-735,-1,-1,-1,0
467702,725,-8175,-732,-1,-1,-1,0
467707,732,-8174,-721,-1,0,-1,0
467712,736,-8173,-709,-1,0,-1,0
467716,745,-8175,-693,-1,0,-1,0
467721,751,-8175,-671,-1,0,-1,0
467726,756,-8177,-648,-1,0,-1,0
467731,769,-8176,-630,-1,-1,-1,0
467736,779,-8174,-614,-1,-1,-1,0
467741,789,-8175,-601,-1,-1,-1,0
467747,802,-8173,-597,-1,-1,-1,0
467752,814,-8171,-598,-1,-2,-1,0
467757,824,-8171,-605,-1,-3,-1,0
467763,830,-8169,-617,-1,-3,-1,0
467768,837,-8168,-631,-1,-4,-1,0
467773,840,-8168,-642,-1,-4,-1,0
467778,837,-8168,-654,-1,-5,-1,0
467784,829,-8167,-664,-1,-6,-1,0
467788,819,-8166,-675,-1,-6,-1,0
467793,805,-8166,-679,-1,-6,-1,0
467798,790,-8168,-676,-1,-6,-1,0
467803,778,-8167,-673,-1,-5,-1,0
467809,770,-8168,-667,-1,-3,-1,0
467814,767,-8169,-662,-1,-2,-1,0
467818,769,-8172,-656,-1,-2,-1,0
467823,775,-8174,-648,-1,-1,-1,0
467829,784,-8172,-638,-1,-2,-1,0
467834,791,-8172,-628,-1,-3,-1,0
467839,794,-8172,-616,-1,-4,-1,0
467844,798,-8170,-600,-1,-5,-1,0
467849,796,-8169,-587,-1,-5,-1,0
467854,789,-8169,-580,-1,-6,-1,0
467859,783,-8169,-582,-1,-7,-1,0
467865,769,-8169,-595,-1,-7,-1,0
467870,751,-8169,-609,-1,-8,-1,0
467875,734,-8169,-629,-1,-8,-1,0
467881,717,-8170,-652,-1,-8,-1,0
467886,708,-8170,-673,-1,-8,-1,0
467891,707,-8170,-685,-1,-7,-1,0
467896,710,-8172,-690,-1,-6,-1,0
467901,723,-8170,-688,-1,-5,-1,0
467906,745,-8171,-683,-1,-5,-1,0
467911,767,-8169,-672,-1,-5,-1,0
467916,790,-8165,-657,-1,-6,-1,0
467921,814,-8165,-641,-1,-7,-1,0
467926,838,-8166,-619,-1,-9,-1,0
467931,858,-8166,-599,-1,-10,-1,0
467936,872,-8164,-587,-1,-11,-1,0
467942,883,-8165,-578,-1,-12,-1,0
467947,891,-8166,-577,-1,-13,-1,0
467951,894,-8168,-581,-1,-14,-1,0
467956,893,-8167,-584,-1,-15,-1,0
467961,894,-8167,-592,-1,-17,-1,0
467967,895,-8167,-597,-1,-18,-1,0
467972,901,-8168,-593,-1,-19,-1,0
467976,909,-8163,-594,-1,-20,-1,0
467981,916,-8164,-592,-1,-21,-1,0
467987,921,-8166,-591,-1,-21,-1,0
467992,930,-8166,-587,-1,-22,-1,0
467996,933,-8165,-580,-1,-23,-1,0
468001,936,-8164,-574,-1,-24,-1,0
468006,936,-8163,-569,-1,-25,-1,0
468011,942,-8164,-557,-1,-26,0,0
468016,952,-8163,-551,-1,-27,0,0
468021,961,-8166,-550,-1,-28,0,0
468026,965,-8166,-548,-1,-27,0,0
468031,951,-8166,-556,-1,-26,0,0
468035,913,-8164,-575,-1,-22,0,0
468040,841,-8161,-612,-1,-15,0,0
468045,727,-8161,-678,-1,-6,0,0
468049,564,-8164,-769,-1,7,0,0
468054,341,-8164,-898,-1,23,0,0
468058,52,-8168,-1042,-1,47,0,0
468063,-286,-8171,-1201,0,81,0,0
468068,-664,-8173,-1393,0,126,1,0
468073,-1116,-8166,-1555,0,186,1,0
468078,-1453,-8167,-1830,0,255,2,0
468082,-1634,-8194,-2089,0,316,5,0
468087,-1938,-8189,-2264,-1,374,7,0
468092,-2162,-8180,-2324,-3,445,7,0
468097,-2343,-8181,-2463,-6,539,8,0
468101,-2447,-8179,-2504,-7,652,9,0
468106,-2710,-8195,-2325,-8,781,10,0
468111,-3024,-8208,-1908,-10,912,11,0
468116,-3298,-8231,-1246,-14,1037,12,0
468120,-3744,-8241,-432,-17,1142,12,0
468125,-4100,-8267,571,-20,1226,13,0
468130,-4563,-8301,1652,-23,1305,15,0
468135,-5020,-8295,2807,-25,1369,16,0
468139,-5227,-8271,4097,-27,1406,16,0
468143,-5173,-8274,5290,-28,1407,15,0
468148,-4972,-8317,6527,-27,1374,13,0
468153,-4623,-8363,7641,-27,1304,10,0
468158,-4037,-8362,8210,-25,1202,9,0
468163,-3528,-8324,8591,-20,1073,9,0
468168,-2898,-8299,8630,-13,909,9,0
468173,-2118,-8281,8236,-8,729,8,0
468178,-1172,-8257,7646,-5,552,5,0
468183,-253,-8245,6863,-3,391,1,0
468188,570,-8230,6194,-2,233,-5,0
468193,1694,-8200,5497,-3,95,-11,0
468198,2439,-8205,5070,-3,7,-7,0
468203,2717,-8179,4750,-3,-47,-1,0
468208,2996,-8161,4322,-2,-84,-2,0
468213,3287,-8148,3987,-2,-107,-2,0
468218,3489,-8135,3769,-2,-126,0,1
468223,3621,-8130,3637,-1,-153,-1,1
468228,3828,-8128,3525,0,-190,-3,1
468233,4128,-8124,3318,0,-235,-4,1
468238,4581,-8107,2983,1,-283,-3,1
468243,4823,-8102,2679,3,-329,-2,1
468248,4972,-8100,2314,4,-385,-2,1
468253,5082,-8095,1935,5,-450,-3,1
468258,5173,-8097,1677,6,-519,-3,1
468263,5130,-8095,1496,8,-589,-4,1
468268,5013,-8093,1421,8,-662,-5,1
468273,4886,-8095,1488,9,-734,-7,1
468278,4782,-8104,1708,10,-806,-8,1
468283,4695,-8114,2109,12,-885,-11,1
468288,4637,-8137,2629,12,-976,-15,1
468293,4830,-8126,3159,13,-1072,-17,1
468298,4921,-8148,4034,16,-1154,-14,1
468303,4392,-8140,5754,16,-1220,-16,1
468308,3941,-8142,7079,16,-1277,-20,1
468313,3450,-8131,8407,18,-1288,-21,1
468318,2894,-8148,9345,21,-1263,-22,1
468323,2025,-8188,9801,22,-1213,-23,1
468328,995,-8218,9829,20,-1130,-23,1
468333,28,-8249,9389,18,-1027,-21,1
468338,-951,-8280,8959,16,-904,-19,1
468343,-1945,-8296,8065,13,-772,-15,1
468348,-2822,-8294,7010,10,-632,-12,1
468353,-3546,-8320,6011,10,-486,-10,1
468358,-4343,-8302,4732,8,-345,-6,1
468363,-4990,-8320,3211,7,-222,-4,1
468368,-5311,-8351,1822,6,-123,-1,1
468373,-5427,-8316,617,3,-43,2,1
468378,-5316,-8328,-249,1,24,4,1
468383,-4924,-8306,-969,-3,80,5,1
468388,-4333,-8279,-1453,-4,131,4,1
468393,-3657,-8256,-1530,-4,177,2,1
468398,-2950,-8231,-1463,-4,206,1,1
468403,-2191,-8220,-1324,-3,215,1,1
468408,-1497,-8210,-1111,-2,206,1,1
468413,-951,-8200,-939,-2,181,2,1
468418,-441,-8190,-788,-1,147,1,1
468423,16,-8183,-674,0,110,0,1
468428,380,-8176,-588,1,76,1,1
468433,672,-8174,-493,1,45,0,1
468438,881,-8173,-367,1,21,0,1
468443,1053,-8171,-257,1,4,0,1
468448,1178,-8170,-172,1,-4,0,1
468453,1219,-8168,-102,1,-4,0,1
468458,1281,-8161,-37,0,-2,0,1
468463,1338,-8160,-6,0,1,0,1
468468,1344,-8160,39,0,-1,1,1
468473,1345,-8163,107,0,-7,1,1
468478,1344,-8164,121,0,-15,1,1
468483,1343,-8168,130,1,-25,1,1
468488,1356,-8172,118,1,-34,1,1
468493,1326,-8174,73,1,-43,1,1
468498,1295,-8174,42,1,-51,1,1
468503,1272,-8175,-11,1,-54,0,1
468508,1209,-8177,-71,1,-55,1,1
468513,1132,-8177,-105,0,-53,1,1
468518,1054,-8177,-162,0,-50,1,1
468523,883,-8175,-197,0,-45,0,1
468528,761,-8174,-242,0,-43,0,1
468533,618,-8178,-311,0,-41,0,1
468538,450,-8179,-369,0,-40,0,1
468543,365,-8181,-455,0,-37,1,1
468548,262,-8185,-522,0,-31,1,1
468553,232,-8188,-581,0,-23,1,1
468558,225,-8190,-627,0,-13,0,1
468563,212,-8188,-637,-1,-4,0,1
468568,237,-8187,-635,-1,2,0,1
468573,242,-8187,-609,-1,4,0,1
468578,252,-8188,-589,-1,2,0,1
468583,259,-8186,-581,0,0,0,1
468588,276,-8184,-581,0,-1,0,1
468593,312,-8182,-585,0,0,0,1
468598,351,-8185,-583,-1,1,0,1
468603,402,-8187,-573,-1,2,0,1
468608,434,-8185,-547,-1,3,0,1
468613,455,-8185,-504,-1,3,-1,1
468618,469,-8183,-463,-1,3,-1,1
468623,469,-8185,-426,-1,2,-1,1
468628,472,-8183,-405,-1,1,-1,1
468633,484,-8182,-404,-1,1,-1,1
468638,497,-8179,-417,-1,1,-1,1
468643,511,-8176,-442,-1,1,-1,1
468648,525,-8177,-455,-1,1,-1,1
468653,531,-8178,-451,-1,2,-1,1
468658,526,-8180,-430,-2,1,-1,1
468663,520,-8179,-403,-2,1,-1,1
468668,504,-8177,-376,-1,1,-1,1
468673,492,-8177,-365,-1,1,-1,1
468678,486,-8180,-374,-1,1,-1,1
468683,484,-8181,-404,-1,1,-1,1
468688,493,-8182,-449,-1,0,-1,1
468693,501,-8184,-498,-1,0,-1,1
468698,502,-8182,-534,-2,0,-2,1
468703,510,-8180,-561,-2,0,-2,1
468708,518,-8180,-575,-2,0,-2,1
468713,521,-8176,-589,-2,1,-2,1
468718,543,-8172,-600,-1,1,-2,1
468723,575,-8170,-617,-1,1,-2,1
468728,610,-8168,-640,-1,1,-1,1
468733,657,-8166,-663,-1,2,-2,1
468738,702,-8167,-681,-1,2,-2,1
468743,737,-8168,-685,-1,2,-2,1
468748,774,-8168,-682,-1,2,-2,1
468753,807,-8167,-665,-1,2,-2,1
468758,830,-8167,-647,-1,0,-1,1
468763,856,-8167,-626,-1,-1,-1,1
468768,868,-8169,-611,-1,-3,-1,1
468773,878,-8170,-604,-1,-3,-1,1
468778,887,-8171,-605,-1,-3,-1,1
468783,882,-8172,-606,-1,-3,-1,1
468787,875,-8172,-607,-1,-3,-1,1
468793,862,-8175,-612,-1,-3,-1,1
468798,838,-8173,-615,-1,-3,-1,1
468804,822,-8173,-621,-1,-2,-1,1
468809,814,-8174,-635,-1,-2,-1,1
468815,809,-8173,-651,-1,-2,-1,1
468819,816,-8170,-672,-1,-2,-1,1
468825,835,-8168,-695,-1,-2,-1,1
468830,848,-8168,-713,-1,-2,-1,1
468835,857,-8167,-730,-1,-3,-1,1
468840,862,-8167,-737,-1,-4,-1,1
468845,860,-8168,-736,-1,-5,-1,1
468851,856,-8165,-724,-1,-6,-1,1
468857,848,-8166,-721,-1,-6,-1,1
468862,841,-8167,-722,-1,-6,-1,1
468867,838,-8169,-728,-1,-5,-1,1
468872,837,-8169,-744,-1,-5,-1,1
468877,837,-8171,-759,-1,-4,-1,1
468883,830,-8172,-776,-1,-3,-1,1
468888,822,-8171,-784,-1,-1,-1,1
468894,811,-8170,-784,-1,1,-1,1
468898,803,-8168,-777,-1,2,-1,1
468903,800,-8169,-767,-1,2,-1,1
468908,791,-8170,-752,-1,2,-1,1
468913,783,-8170,-737,-1,2,-1,1
468917,774,-8172,-729,-1,2,-1,1
468922,761,-8172,-726,-1,2,-1,1
468928,744,-8174,-722,-1,1,-1,1
468933,724,-8174,-719,-1,0,-1,1
468937,703,-8174,-718,-1,0,-1,1
468942,685,-8175,-716,-1,0,-1,1
468946,667,-8174,-713,-1,0,-1,1
468951,654,-8173,-704,-1,0,-1,1
468956,640,-8174,-694,-1,0,-1,1
468961,635,-8176,-684,-1,0,-1,1
468966,638,-8175,-680,-1,1,-1,1
468970,651,-8174,-684,0,1,-1,1
468975,670,-8174,-700,-1,1,-1,1
468980,690,-8174,-715,0,1,-1,1
468984,717,-8172,-727,0,1,-1,1
468989,743,-8172,-734,-1,1,-1,1
468995,770,-8171,-729,-1,2,-1,1
468999,797,-8171,-724,-1,2,-1,1
469004,820,-8170,-712,0,2,-1,1
469009,839,-8167,-700,0,2,-1,1
469013,859,-8167,-684,0,2,-1,1
469018,871,-8168,-671,0,2,-1,1
469022,883,-8169,-651,0,1,-1,1
469027,884,-8167,-628,-1,1,-1,1
469033,886,-8164,-609,-1,0,-1,1
469037,883,-8166,-593,-1,-1,-1,1
469043,873,-8166,-576,-1,-2,-1,1
469048,861,-8166,-566,-1,-3,-1,1
469053,849,-8168,-558,-1,-3,-1,1
469058,833,-8169,-560,-1,-4,-1,1
469063,816,-8170,-570,0,-4,-1,1
469068,799,-8170,-584,-1,-4,-1,1
469072,780,-8170,-598,0,-3,-1,1
469077,763,-8168,-616,-1,-2,-1,1
469082,749,-8165,-632,-1,-1,0,1
469088,740,-8163,-643,-1,0,0,1
469092,739,-8164,-651,-1,1,0,1
469097,747,-8165,-655,-1,1,0,1
469102,757,-8167,-650,-1,1,0,1
469107,767,-8166,-645,-1,2,0,1
469112,777,-8166,-642,-1,3,0,1
469117,784,-8168,-642,-1,4,0,1
469122,788,-8171,-643,-1,4,0,1
469127,786,-8174,-646,-1,3,0,1
469132,776,-8175,-656,-1,3,0,1
469137,761,-8174,-664,-1,2,0,1
469142,746,-8174,-668,-1,2,0,1
469147,736,-8174,-667,-1,3,0,1
469152,733,-8173,-664,-1,4,0,1
469157,735,-8172,-655,-1,6,0,1
469162,746,-8175,-646,-1,7,0,1
469167,761,-8176,-630,-1,8,0,1
469172,785,-8176,-614,-1,7,0,1
469177,815,-8175,-597,-1,6,0,1
469182,840,-8173,-582,-1,3,0,1
469187,857,-8172,-572,-1,1,0,1
469192,864,-8170,-565,-1,-1,0,1
469197,860,-8172,-562,-1,-2,0,1
469202,844,-8171,-560,-1,-2,0,1
469207,822,-8172,-569,-1,-2,0,1
469212,797,-8171,-579,-1,-1,0,1
469217,774,-8169,-597,-1,0,0,1
469222,757,-8169,-614,-1,0,0,1
469227,747,-8168,-632,-1,0,0,1
469232,752,-8167,-646,-1,0,0,1
469237,762,-8168,-659,-1,0,0,1
469242,772,-8166,-665,-1,0,0,1
469247,781,-8164,-673,-1,0,0,1
469252,777,-8165,-690,-1,-1,0,1
469257,764,-8165,-705,-1,0,0,1
469262,748,-8164,-728,-1,0,0,1
469267,730,-8162,-751,-1,0,0,1
469272,718,-8165,-768,-1,0,0,1
469277,718,-8166,-767,-1,0,0,1
469282,726,-8167,-751,-1,1,0,1
469287,742,-8168,-727,-1,1,0,1
469292,779,-8171,-691,-1,2,0,1
469297,824,-8170,-658,-1,2,0,1
469302,864,-8169,-622,-1,0,0,1
469307,889,-8169,-594,-1,-2,0,1
469312,903,-8170,-572,-1,-3,0,1
469317,903,-8169,-560,-1,-3,0,1
469322,884,-8169,-558,-1,-2,0,1
469327,855,-8171,-573,-1,-2,0,1
469332,822,-8174,-589,-1,-2,0,1
469337,790,-8177,-612,-1,-1,0,1
469342,762,-8178,-637,-1,0,0,1
469347,743,-8179,-651,-1,1,0,1
469352,737,-8181,-662,-1,3,0,1
469357,741,-8183,-667,-1,4,0,1
469362,744,-8181,-661,-1,5,0,1
469367,745,-8179,-662,-1,5,0,1
469372,749,-8175,-658,-1,5,0,1
469377,755,-8172,-649,-1,4,0,1
469382,761,-8172,-641,-1,4,0,1
469387,769,-8171,-631,-1,2,0,1
469392,775,-8170,-622,-1,1,0,1
469397,776,-8170,-612,-1,0,0,1
469402,775,-8170,-594,-1,-1,0,1
469407,769,-8169,-575,-1,-1,0,1
469412,758,-8169,-556,-1,-2,0,1
469417,744,-8167,-543,-1,-2,0,1
469422,730,-8166,-538,-1,-2,0,1
469427,716,-8166,-534,-1,-2,0,1
469432,709,-8167,-539,-1,-2,0,1
469437,705,-8167,-548,-1,-2,0,1
469442,707,-8168,-565,-1,-1,0,1
469447,713,-8167,-581,-1,-1,0,1
469452,720,-8165,-591,-1,-2,0,1
469457,721,-8166,-600,-1,-2,0,1
469462,713,-8163,-607,-1,-2,0,1
469467,681,-8162,-649,-1,0,0,1
469472,662,-8160,-690,-1,4,0,1
469477,656,-8159,-736,-1,4,0,1
469482,650,-8159,-816,-1,3,0,1
469487,630,-8161,-837,-1,1,0,1
469492,619,-8161,-857,-1,1,0,1
469497,603,-8163,-832,-1,3,0,1
469502,593,-8165,-784,-1,6,0,1
469507,595,-8168,-749,-1,8,0,1
469512,610,-8168,-712,-1,11,0,1
469517,636,-8167,-721,-1,12,0,1
469522,669,-8166,-737,-1,12,0,1
469527,702,-8165,-762,-1,10,0,1
469532,727,-8164,-788,-1,7,0,1
469537,739,-8163,-782,-1,6,0,1
469542,746,-8164,-771,-1,5,0,1
469547,749,-8166,-743,-1,5,0,1
469552,749,-8167,-716,-1,5,0,1
469557,753,-8169,-703,-1,5,0,1
469562,763,-8172,-697,-1,4,0,1
469567,774,-8171,-704,-1,3,0,1
469572,778,-8170,-711,-1,2,0,1
469577,763,-8169,-715,-1,1,-1,1
469582,737,-8172,-706,-1,0,-1,1
469587,703,-8176,-690,-1,1,-1,1
469592,667,-8176,-673,-1,1,-1,1
469597,635,-8176,-650,-1,2,-1,1
469602,613,-8175,-640,-1,3,0,1
469607,610,-8173,-643,-1,4,-1,1
469612,621,-8171,-653,-1,4,0,1
469617,642,-8173,-672,-1,4,-1,1
469622,664,-8171,-685,-1,4,-1,1
469627,681,-8172,-692,-1,4,-1,1
469632,690,-8173,-691,-1,4,-1,1
469637,692,-8173,-689,-1,4,-1,1
469642,691,-8174,-690,-1,5,-1,1
469647,693,-8175,-694,-1,5,-1,1
469652,697,-8175,-705,-1,5,-1,1
469657,705,-8176,-720,-1,6,-1,1
469662,711,-8175,-731,-1,6,-1,1
469667,711,-8175,-733,-1,6,-1,1
469672,705,-8176,-727,-1,7,-1,1
469677,697,-8176,-718,-1,7,-1,1
469682,689,-8175,-705,-1,8,-1,1
469687,693,-8174,-693,-1,9,-1,1
469692,704,-8175,-684,-1,10,-1,1
469697,723,-8172,-678,-1,10,0,1
469702,748,-8172,-672,-1,9,-1,1
469707,775,-8169,-664,-1,8,-1,1
469712,806,-8172,-650,-1,7,-1,1
469717,831,-8172,-636,-1,5,-1,1
469722,853,-8173,-623,-1,3,-1,1
469727,867,-8172,-618,-1,1,-1,1
469732,874,-8172,-622,-1,-1,-1,1
469738,872,-8172,-637,-1,-3,-1,1
469743,867,-8172,-658,-1,-3,-1,1
469747,862,-8171,-676,-1,-4,-1,1
469753,858,-8172,-690,-1,-4,-1,1
469758,856,-8171,-701,-1,-4,-1,1
469763,856,-8174,-695,-1,-5,-1,1
469767,851,-8178,-676,-1,-5,-1,1
469772,838,-8178,-654,-1,-6,-1,1
469778,819,-8180,-633,-1,-7,-1,1
469783,796,-8179,-621,-1,-7,-1,1
469788,776,-8178,-614,-1,-7,-1,1
469792,762,-8174,-621,-1,-7,-1,1
469797,750,-8177,-632,-1,-7,-1,1
469802,743,-8177,-650,-1,-8,-1,1
469807,738,-8178,-667,-1,-7,-1,1
469812,731,-8178,-676,-1,-6,-1,1
469817,729,-8176,-690,-1,-5,-1,1
469822,730,-8175,-708,-1,-3,-1,1
469827,733,-8175,-728,-1,-3,-1,1
469832,741,-8174,-754,-1,-2,-1,1
469837,750,-8177,-787,-1,-2,0,1
469842,762,-8174,-813,-1,-2,0,1
469847,776,-8173,-835,-1,-2,0,1
469852,791,-8171,-846,-1,-2,0,1
469857,804,-8168,-844,-1,-2,0,1
469862,815,-8166,-829,-1,-2,0,1
469867,829,-8166,-810,-1,-3,0,1
469872,840,-8168,-788,0,-3,0,1
469877,845,-8167,-767,0,-4,0,1
469882,845,-8165,-745,0,-5,0,1
469887,838,-8162,-728,0,-5,0,1
469892,828,-8165,-720,0,-5,0,1
469897,813,-8168,-711,0,-5,0,1
469902,801,-8169,-716,0,-5,0,1
469907,790,-8169,-724,0,-4,0,1
469912,779,-8170,-736,0,-4,0,1
469917,774,-8169,-749,0,-4,0,1
469922,771,-8167,-762,0,-3,0,1
469927,769,-8169,-770,0,-3,0,1
469932,770,-8170,-772,0,-3,0,1
469937,771,-8169,-772,0,-3,0,1
469942,771,-8168,-774,0,-3,0,1
469947,771,-8165,-768,0,-3,0,1
469952,768,-8163,-765,0,-3,0,1
469957,763,-8160,-762,0,-3,0,1
469962,758,-8160,-756,0,-4,0,1
469967,752,-8161,-744,0,-4,0,1
469972,745,-8164,-731,0,-4,0,1
469977,738,-8162,-715,0,-4,0,1
469982,732,-8162,-701,0,-4,0,1
469987,726,-8162,-689,0,-3,0,1
469992,719,-8163,-677,0,-3,0,1
469997,718,-8164,-678,0,-2,0,1
470002,721,-8168,-684,0,-2,0,1
470007,729,-8167,-686,0,-1,0,1
470012,741,-8168,-689,0,-1,0,1
470017,753,-8169,-684,0,-1,0,1
470022,759,-8167,-678,0,-1,0,1
470027,759,-8166,-673,0,-2,0,1
470032,757,-8164,-675,0,-2,0,1
470037,754,-8165,-680,0,-2,0,1
470042,751,-8168,-686,0,-3,0,1
470047,743,-8171,-699,0,-4,0,1
470052,733,-8171,-709,0,-5,0,1
470057,720,-8169,-711,0,-5,0,1
470062,713,-8167,-708,0,-5,0,1
470067,708,-8165,-700,0,-4,0,1
470072,696,-8166,-686,0,-4,0,1
470077,685,-8168,-672,0,-4,0,1
470082,673,-8169,-661,0,-4,-1,1
470087,660,-8171,-655,0,-5,0,1
470092,646,-8174,-653,0,-5,0,1
470097,631,-8175,-653,0,-5,-1,1
470102,622,-8177,-650,0,-4,-1,1
470107,617,-8176,-652,0,-3,-1,1
470112,612,-8175,-647,0,-3,-1,1
470117,610,-8175,-645,0,-2,-1,1
470122,612,-8179,-647,0,-2,-1,1
470127,617,-8181,-645,0,-1,-1,1
470132,629,-8182,-645,0,-1,-1,1
470137,647,-8182,-642,0,-1,-1,1
470142,668,-8181,-639,0,-1,-1,1
470147,689,-8180,-638,0,-1,-1,1
470152,709,-8180,-633,-1,-1,-1,1
470157,726,-8177,-627,-1,-1,-1,1
470162,738,-8179,-618,-1,-2,-1,1
470167,747,-8180,-612,-1,-2,-1,1
470172,751,-8180,-608,0,-4,-1,1
470177,749,-8178,-606,-1,-5,-1,1
470182,745,-8178,-604,-1,-6,-1,1
470187,741,-8177,-609,-1,-6,-1,1
470192,736,-8178,-614,-1,-7,-1,1
470197,733,-8178,-619,-1,-7,-1,1
470202,729,-8177,-626,-1,-6,-1,1
470207,721,-8179,-637,-1,-6,-1,1
470212,714,-8179,-651,-1,-6,-1,1
470217,705,-8179,-667,-1,-5,-1,0
470222,692,-8176,-685,-1,-4,-1,0
470227,682,-8174,-701,-1,-3,-1,0
470232,679,-8173,-714,-1,-2,-1,0
470237,681,-8174,-725,-1,-1,-1,0
470242,686,-8173,-731,-1,-1,-1,0
470247,696,-8173,-728,-1,-1,-1,0
470252,710,-8171,-724,-1,-1,-1,0
470257,724,-8171,-717,-1,-1,-1,0
470262,741,-8171,-708,-1,0,-1,0
470267,757,-8170,-698,0,0,-1,0
470272,772,-8168,-692,0,-1,-1,0
470277,784,-8166,-692,-1,-1,-1,0
470282,793,-8165,-692,0,-1,-1,0
470287,801,-8165,-696,0,-1,-1,0
470292,806,-8165,-699,0,-2,-1,0
470297,806,-8169,-698,0,-2,0,0
470302,800,-8171,-695,0,-2,0,0
470307,793,-8171,-695,-1,-2,-1,0
470312,782,-8171,-695,-1,-1,0,0
470317,770,-8170,-692,-1,0,0,0
470322,761,-8169,-688,-1,0,0,0
470327,752,-8171,-681,-1,0,0,0
470332,743,-8169,-680,-1,1,0,0
470337,737,-8169,-678,-1,1,0,0
470342,734,-8170,-681,-1,1,0,0
470347,737,-8169,-680,-1,2,0,0
470352,740,-8170,-680,-1,2,0,0
470357,744,-8170,-676,-1,2,0,0
470362,744,-8168,-674,-1,2,0,0
470367,743,-8171,-670,-1,2,0,0
470372,738,-8173,-666,-1,2,0,0
470377,729,-8176,-662,-1,2,0,0
470382,712,-8175,-660,-1,3,0,0
470387,693,-8174,-663,-1,3,0,0
470392,675,-8172,-669,-1,4,0,0
470397,666,-8169,-675,-1,4,0,0
470402,660,-8169,-680,-1,5,0,0
470407,658,-8171,-682,-1,5,0,0
470412,665,-8174,-688,-1,4,0,0
470417,676,-8173,-692,-1,4,0,0
470422,689,-8174,-703,-1,3,0,0
470427,702,-8173,-710,-1,3,-1,0
470432,716,-8169,-715,-1,3,-1,0
470437,732,-8168,-716,-1,3,-1,0
470442,744,-8169,-716,-1,2,-1,0
470447,751,-8168,-714,-1,0,-1,0
470452,754,-8169,-714,-1,-1,-1,0
470457,755,-8168,-713,-1,-1,-1,0
470462,752,-8166,-709,0,-1,-1,0
470467,750,-8165,-707,0,-1,-1,0
470472,747,-8164,-717,0,-1,-1,0
470477,747,-8165,-721,0,-1,-1,0
470482,750,-8166,-729,0,-1,-1,0
470487,756,-8167,-731,0,-1,-1,0
470492,763,-8169,-726,-1,-1,-1,0
470497,769,-8170,-721,0,-1,-1,0
470502,776,-8168,-715,0,-1,0,0
470507,790,-8166,-707,0,-1,0,0
470512,805,-8166,-699,0,-1,0,0
470517,823,-8165,-695,0,-1,0,0
470522,834,-8164,-694,0,-1,0,0
470527,840,-8164,-696,0,-1,0,0
470532,842,-8166,-700,0,-2,0,0
470537,841,-8168,-701,0,-2,0,0
470542,832,-8170,-701,0,-2,0,0
470547,819,-8171,-698,0,-3,0,0
470551,804,-8170,-696,0,-3,0,0
470557,789,-8170,-696,0,-3,0,0
470562,771,-8174,-698,0,-3,0,0
470567,755,-8173,-699,0,-3,0,0
470572,740,-8172,-703,0,-4,0,0
470577,731,-8174,-698,0,-3,0,0
470582,725,-8173,-695,0,-3,0,0
470587,720,-8172,-690,0,-3,0,0
470592,720,-8171,-683,0,-3,0,0
470597,724,-8173,-683,0,-3,0,0
470602,731,-8174,-678,0,-3,0,0
470607,734,-8171,-675,0,-3,0,0
470612,737,-8171,-667,0,-3,0,0
470617,738,-8173,-662,0,-3,0,0
470622,735,-8172,-660,0,-4,0,0
470627,728,-8171,-660,0,-4,0,0
470632,721,-8171,-659,0,-3,0,0
470637,714,-8172,-666,0,-3,0,0
470642,708,-8170,-671,0,-2,0,0
470647,704,-8169,-678,-1,-1,0,0
470652,702,-8167,-688,0,-1,0,0
470657,704,-8169,-694,-1,-1,0,0
470662,703,-8172,-701,-1,-1,0,0
470667,695,-8172,-698,-1,-1,-1,0
470672,682,-8173,-701,-1,-1,-1,0
470677,666,-8173,-701,0,-1,-1,0
470682,651,-8171,-697,0,-2,-1,0
470687,639,-8171,-692,0,-2,-1,0
470692,631,-8170,-687,-1,-1,-1,0
470697,630,-8170,-687,-1,-1,-1,0
470702,636,-8170,-686,-1,0,-1,0
470707,654,-8170,-684,-1,0,-1,0
470712,682,-8173,-683,-1,0,-1,0
470717,719,-8173,-687,-1,0,-1,0
470721,752,-8170,-688,-1,0,-1,0
470727,779,-8171,-691,-1,-1,-1,0
470732,802,-8169,-694,-1,-1,-1,0
470737,817,-8167,-694,-1,-1,0,0
470741,826,-8170,-702,0,-1,0,0
470747,828,-8169,-709,0,-1,0,0
470752,822,-8171,-719,0,-1,0,0
470757,811,-8173,-728,0,-2,0,0
470762,797,-8173,-735,0,-2,0,0
470767,782,-8171,-735,0,-2,0,0
470772,765,-8170,-727,0,-2,0,0
470777,749,-8170,-714,0,-2,0,0
470782,739,-8169,-699,0,-2,0,0
470787,733,-8170,-684,0,-2,0,0
470792,729,-8168,-674,0,-1,0,0
470797,726,-8169,-663,0,-1,0,0
470802,725,-8171,-650,0,-1,-1,0
470806,723,-8173,-639,-1,-1,-1,0
470811,713,-8176,-624,-1,-2,-1,0
470817,703,-8177,-611,-1,-2,-1,0
470822,693,-8177,-604,-1,-3,-1,0
470827,685,-8177,-605,-1,-2,-1,0
470832,682,-8175,-614,-1,-2,0,0
470836,681,-8177,-631,-1,-1,-1,0
470842,685,-8177,-657,0,-1,-1,0
470846,691,-8175,-685,-1,-1,-1,0
470851,699,-8174,-708,-1,-1,-1,0
470856,704,-8174,-727,-1,-1,-1,0
470861,711,-8173,-734,-1,-1,0,0
470866,719,-8173,-732,-1,0,-1,0
470871,731,-8173,-721,-1,0,-1,0
470876,746,-8171,-706,-1,0,0,0
470881,756,-8173,-690,-1,-1,0,0
470886,760,-8174,-677,-1,-1,0,0
470891,765,-8174,-662,-1,-1,0,0
470897,765,-8174,-644,-1,-1,-1,0
470901,763,-8175,-628,-1,-1,-1,0
470906,762,-8177,-617,-1,-2,-1,0
470911,760,-8178,-608,-1,-2,0,0
470916,757,-8175,-607,-1,-3,0,0
470921,758,-8174,-610,-1,-4,-1,0
470927,757,-8173,-617,-1,-4,-1,0
470932,754,-8170,-633,-1,-5,-1,0
470937,747,-8169,-648,-1,-5,-1,0
470941,738,-8170,-662,-1,-6,-1,0
470947,720,-8171,-678,-1,-6,-1,0
470952,703,-8172,-691,-1,-6,-1,0
470957,686,-8171,-701,-1,-6,-1,0
470961,673,-8173,-707,-1,-5,-1,0
470967,666,-8175,-710,-1,-3,-1,0
470972,667,-8173,-711,-1,-1,0,0
470977,682,-8171,-710,-1,0,0,0
470981,700,-8170,-707,-1,-1,0,0
470986,719,-8169,-707,-1,-1,0,0
470991,738,-8169,-713,-1,-2,-1,0
470996,753,-8168,-715,-1,-2,-1,0
471001,764,-8168,-720,-1,-3,-1,0
471006,766,-8168,-724,-1,-3,-1,0
471011,767,-8170,-729,-1,-4,-1,0
471016,762,-8172,-731,-1,-4,-1,0
471021,753,-8174,-731,-1,-4,-1,0
471026,745,-8176,-729,-1,-4,-1,0
471031,732,-8176,-730,-1,-3,-1,0
471036,720,-8177,-732,-1,-3,-1,0
471041,710,-8176,-732,-1,-3,-1,0
471046,701,-8176,-729,-1,-3,-1,0
471051,695,-8175,-723,-1,-3,-1,0
471056,689,-8175,-714,-1,-4,-1,0
471061,686,-8176,-708,-1,-4,-1,0
471066,686,-8176,-698,-1,-3,-1,0
471071,688,-8174,-689,-1,-3,-1,0
471076,693,-8173,-682,-1,-3,-1,0
471081,699,-8175,-670,-1,-3,-1,0
471086,701,-8175,-667,-1,-4,-1,0
471091,705,-8173,-669,-1,-4,-1,0
471096,705,-8175,-671,-1,-5,-1,0
471101,708,-8173,-676,-1,-6,-1,0
471106,707,-8173,-675,-1,-6,-1,0
471111,714,-8171,-678,-1,-6,-1,0
471116,725,-8172,-679,-1,-6,-1,0
471121,739,-8170,-677,-1,-6,-1,0
471126,752,-8172,-678,-1,-7,-1,0
471131,761,-8172,-677,-1,-8,-1,0
471136,767,-8174,-676,-1,-8,-1,0
471141,776,-8173,-678,-1,-8,-1,0
471146,783,-8172,-678,-1,-8,-1,0
471151,784,-8169,-690,-1,-8,-1,0
471156,782,-8168,-704,-1,-8,-1,0
471161,777,-8168,-723,-1,-7,-1,0
471166,769,-8168,-746,-1,-7,-1,0
471171,753,-8169,-765,-1,-6,-1,0
471176,731,-8169,-784,-1,-6,-1,0
471181,707,-8169,-804,-1,-5,-1,0
471186,681,-8170,-823,-1,-4,-1,0
471191,658,-8170,-836,-1,-4,-1,0
471196,644,-8171,-840,-1,-3,-1,0
471202,632,-8173,-841,-1,-2,-1,0
471207,632,-8173,-838,-1,-1,-1,0
471212,636,-8172,-828,-1,-1,-1,0
471217,649,-8171,-808,-1,0,-1,0
471222,664,-8173,-782,-1,0,-1,0
471227,682,-8176,-759,-1,-1,-1,0
471232,700,-8173,-733,-1,-1,-1,0
471238,716,-8172,-713,-1,-1,-1,0
471243,732,-8172,-699,-1,-2,-1,0
471248,745,-8174,-691,-1,-3,-1,0
471253,754,-8177,-685,-1,-4,-1,0
471259,765,-8178,-683,-1,-4,-1,0
471264,773,-8176,-686,-1,-5,-1,0
471269,784,-8176,-691,-1,-5,-1,0
471274,789,-8174,-697,-1,-6,-1,0
471279,787,-8168,-707,-1,-6,-1,0
471284,784,-8168,-721,0,-6,-1,0
471290,776,-8168,-738,0,-6,-1,0
471295,765,-8167,-752,0,-7,-1,0
471300,754,-8169,-769,0,-7,-1,0
471304,743,-8168,-778,0,-7,-1,0
471309,735,-8167,-773,-1,-7,-1,0
471314,723,-8168,-762,-1,-7,-1,0
471319,715,-8170,-741,-1,-6,-1,0
471324,712,-8170,-711,-1,-6,-1,0
471329,715,-8171,-675,-1,-6,-1,0
471335,722,-8173,-647,-1,-6,-1,0
471340,732,-8176,-620,-1,-7,-1,0
471344,742,-8177,-601,-1,-9,-1,0
471349,751,-8174,-592,-1,-10,-1,0
471355,755,-8173,-590,-1,-11,-1,0
471360,755,-8172,-593,-1,-13,-1,0
471365,748,-8172,-608,-1,-14,-1,0
471370,740,-8172,-633,-1,-16,-1,0
471376,729,-8174,-667,0,-17,-1,0
471381,717,-8174,-702,0,-18,-1,0
471386,711,-8173,-736,0,-18,-1,0
471391,709,-8170,-763,0,-17,-1,0
471396,713,-8169,-780,0,-15,-1,0
471401,723,-8168,-791,-1,-14,-1,0
471406,733,-8168,-794,0,-14,-1,0
471411,744,-8171,-798,0,-13,-1,0
471416,762,-8170,-798,0,-12,-1,0
471421,780,-8171,-801,0,-11,-1,0
471426,791,-8173,-802,0,-10,-1,0
471431,797,-8176,-799,0,-9,-1,0
471436,796,-8176,-795,0,-8,-1,0
471440,792,-8172,-788,0,-7,-1,0
471445,788,-8173,-777,0,-7,0,0
471450,782,-8174,-763,0,-8,0,0
471454,774,-8173,-747,0,-8,0,0
471459,768,-8177,-727,0,-8,0,0
471464,758,-8180,-710,0,-8,0,0
471468,752,-8181,-698,0,-7,0,0
471473,743,-8182,-695,0,-7,0,0
471477,725,-8179,-687,-1,-7,0,0
471482,702,-8179,-684,-1,-7,0,0
471487,671,-8177,-687,-1,-7,-1,0
471492,639,-8174,-692,-1,-6,0,0
471497,603,-8172,-697,-1,-5,0,0
471502,571,-8174,-712,-1,-3,0,0
471507,544,-8175,-726,-1,-1,0,0
471511,531,-8176,-740,-1,0,-1,0
471516,525,-8178,-752,-1,1,-1,0
471521,525,-8179,-764,-1,1,-1,0
471526,536,-8179,-769,-1,1,-1,0
471531,549,-8179,-766,-1,1,-1,0
471536,569,-8178,-756,-1,2,-1,0
471541,589,-8177,-743,-1,2,-1,0
471546,609,-8176,-722,-1,2,-1,0
471551,625,-8172,-702,-1,1,-1,0
471556,638,-8171,-682,-1,0,-1,0
471561,650,-8173,-663,-1,0,-1,0
471566,661,-8178,-647,-1,-1,-1,0
471571,667,-8180,-633,-1,-1,-1,0
471576,671,-8180,-624,-1,-1,-1,0
471581,672,-8175,-625,-1,-1,-1,0
471586,667,-8173,-636,-1,0,-1,0
471591,656,-8172,-657,-1,0,-1,0
471596,640,-8174,-681,-1,-1,-1,0
471601,623,-8174,-710,-1,-1,-1,0
471606,612,-8174,-740,-1,-1,-1,0
471611,613,-8177,-763,-1,0,-1,0
471616,627,-8175,-783,-1,1,-1,0
471622,652,-8174,-794,-1,1,-1,0
471627,689,-8173,-799,-1,1,-1,0
471632,732,-8171,-801,-1,1,-1,0
471637,769,-8167,-795,-1,1,-1,0
471642,793,-8164,-789,-1,0,-1,0
471648,809,-8165,-781,-1,-1,-1,0
471653,814,-8172,-775,-1,-1,-1,0
471658,810,-8173,-770,-1,-2,-1,0
471663,802,-8172,-764,-1,-2,-1,0
471668,790,-8170,-761,-1,-2,-1,0
471674,782,-8172,-765,-1,-1,-1,0
471680,780,-8172,-771,-1,0,0,0
471685,784,-8172,-779,-1,0,-1,0
471690,785,-8172,-788,-1,-1,-1,0
471695,778,-8173,-802,-1,-1,-1,0
471700,766,-8174,-815,-1,-2,-1,0
471704,749,-8174,-828,-1,-1,-1,0
471709,731,-8171,-839,-1,-1,-1,0
471714,714,-8172,-848,-1,0,-1,0
471719,702,-8171,-851,-1,0,-1,0
471724,694,-8172,-847,-1,0,-1,0
471728,692,-8171,-839,-1,0,-1,0
471733,700,-8172,-826,-1,1,-1,0
471738,711,-8171,-813,-1,1,-1,0
471742,724,-8171,-793,-1,1,-1,0
471747,728,-8172,-779,0,0,-1,0
471751,735,-8173,-772,0,0,-1,0
471756,735,-8174,-764,0,0,-1,0
471761,731,-8174,-759,0,0,-1,0
471766,721,-8174,-761,-1,0,-1,0
471771,712,-8173,-766,-1,0,-1,0
471776,705,-8171,-774,0,1,0,0
471781,701,-8172,-780,0,2,0,0
471786,699,-8171,-789,0,2,0,0
471791,700,-8170,-797,0,3,0,0
471796,707,-8168,-799,0,3,0,0
471801,715,-8168,-798,0,3,0,0
471806,727,-8169,-791,0,3,0,0
471811,741,-8170,-786,0,3,0,0
471816,754,-8170,-773,0,2,0,0
471821,770,-8166,-756,0,2,0,0
471826,783,-8166,-741,0,1,0,0
471831,792,-8169,-728,0,0,0,0
471836,794,-8172,-718,0,-1,0,0
471841,786,-8171,-709,-1,-1,0,0
471846,770,-8173,-701,-1,-2,0,0
471851,750,-8174,-694,-1,-1,0,0
471856,732,-8173,-693,-1,-1,0,0
471861,722,-8172,-696,0,-1,0,0
471866,716,-8171,-701,-1,0,0,0
471871,721,-8172,-703,-1,0,0,0
471876,735,-8172,-707,-1,0,0,0
471881,758,-8170,-711,-1,-1,0,0
471886,785,-8170,-722,-1,-1,0,0
471891,812,-8168,-737,0,-2,0,0
471896,840,-8173,-753,0,-3,0,0
471901,861,-8173,-770,0,-4,0,0
471906,873,-8173,-785,0,-5,0,0
471911,882,-8171,-798,0,-6,0,0
471916,882,-8173,-811,0,-7,0,0
471921,879,-8173,-818,0,-8,0,0
471926,868,-8172,-821,0,-8,0,0
471931,861,-8172,-818,0,-8,0,0
471936,854,-8173,-812,0,-9,0,0
471941,848,-8171,-803,0,-9,0,0
471946,843,-8170,-789,0,-9,0,0
471951,839,-8169,-771,0,-10,0,0
471956,837,-8168,-750,0,-10,0,0
471961,841,-8169,-723,0,-10,0,0
471966,846,-8171,-699,0,-11,0,0
471971,851,-8173,-681,0,-12,0,0
471976,863,-8174,-666,0,-12,0,0
471981,879,-8172,-656,0,-13,0,0
471986,893,-8174,-647,0,-15,0,0
471991,903,-8175,-638,0,-16,0,0
471996,898,-8176,-628,0,-17,0,0
472001,875,-8173,-622,0,-15,0,0
472006,833,-8173,-622,0,-12,0,0
472011,770,-8173,-637,0,-5,0,0
472016,686,-8172,-675,0,2,0,0
472021,585,-8173,-738,0,10,1,0
472026,451,-8174,-827,0,20,1,0
472031,285,-8173,-933,-1,34,1,0
472036,73,-8174,-1059,-1,55,1,0
472041,-199,-8176,-1196,-1,84,1,0
472046,-532,-8181,-1361,-1,124,1,0
472051,-923,-8185,-1552,-1,175,2,0
472056,-1362,-8193,-1763,-1,237,3,0
472061,-1817,-8198,-1983,-2,308,4,0
472066,-2272,-8201,-2163,-3,386,5,0
472071,-2675,-8207,-2291,-3,471,6,0
472076,-2941,-8214,-2337,-5,557,8,0
472081,-3071,-8222,-2260,-7,640,9,0
472086,-3027,-8219,-2018,-9,714,10,0
472091,-2857,-8222,-1544,-11,768,11,0
472096,-2876,-8217,-964,-12,816,12,0
472101,-2900,-8221,-205,-13,874,12,0
472106,-2923,-8230,590,-14,942,12,0
472111,-3056,-8238,1360,-15,995,12,0
472116,-3088,-8268,2185,-16,1017,12,0
472121,-3047,-8294,2917,-18,1022,12,0
472126,-2929,-8303,3570,-19,1005,12,0
472131,-2511,-8310,4185,-19,960,13,0
472136,-1922,-8308,4684,-19,889,12,0
472141,-1190,-8302,4861,-19,790,11,0
472146,-666,-8263,5034,-17,677,10,0
472151,-173,-8222,5345,-12,561,7,0
472156,326,-8211,5645,-9,454,5,0
472161,777,-8201,5739,-7,363,4,0
472166,1303,-8192,5367,-5,286,2,0
472171,1729,-8183,4785,-3,218,0,0
472176,2080,-8190,4251,-2,152,-2,0
472181,2359,-8192,3564,-2,91,-3,0
472186,2601,-8184,2900,-2,37,-3,0
472191,2765,-8180,2428,-2,-4,-2,0
472196,2833,-8172,2042,-2,-30,-2,0
472201,2870,-8160,1757,-2,-46,-2,0
472206,2945,-8154,1556,-1,-60,-2,0
472211,3084,-8148,1350,-1,-75,-2,0
472216,3254,-8140,1133,0,-96,-1,1
472221,3453,-8135,951,0,-127,0,1
472226,3674,-8131,783,1,-167,0,1
472231,3900,-8121,648,2,-214,0,1
472236,4146,-8108,594,3,-268,0,1
472241,4359,-8098,587,4,-329,0,1
472246,4548,-8091,633,5,-396,-1,1
472251,4713,-8084,731,7,-468,-3,1
472256,4770,-8076,874,8,-541,-4,1
472261,4778,-8080,1095,10,-620,-6,1
472266,4854,-8065,1397,12,-706,-8,1
472271,4946,-8060,1771,14,-795,-8,1
472276,4961,-8066,2327,16,-882,-9,1
472281,4733,-8113,3138,18,-960,-10,1
472286,4289,-8115,4165,17,-1032,-15,1
472291,3686,-8124,5303,16,-1094,-20,1
472296,2761,-8149,6504,16,-1118,-23,1
472301,1730,-8157,7505,18,-1109,-23,1
472306,851,-8182,7948,20,-1077,-21,1
472311,182,-8238,7705,19,-1026,-20,1
472316,-383,-8263,7233,17,-960,-19,1
472321,-1104,-8275,6687,15,-882,-19,1
472326,-1858,-8292,5901,12,-791,-17,1
472331,-2560,-8307,5208,10,-686,-16,1
472336,-3238,-8326,4453,8,-573,-13,1
472341,-3881,-8332,3652,5,-456,-10,1
472346,-4368,-8330,2918,3,-339,-6,1
472351,-4597,-8326,2162,1,-222,-4,1
472356,-4644,-8312,1493,0,-108,-2,1
472361,-4451,-8297,904,-2,-10,-1,1
472366,-4049,-8286,408,-3,63,-1,1
472371,-3575,-8275,6,-4,108,0,1
472376,-3044,-8262,-356,-5,126,0,1
472381,-2467,-8245,-612,-5,126,0,1
472386,-1931,-8230,-780,-5,116,0,1
472391,-1443,-8217,-861,-5,102,-1,1
472396,-963,-8204,-845,-4,87,-1,1
472402,-532,-8193,-818,-3,74,-1,1
472407,-181,-8184,-781,-2,63,-1,1
472413,135,-8181,-755,-2,53,-2,1
472418,401,-8175,-775,-2,44,-2,1
472423,601,-8171,-787,-1,34,-2,1
472429,772,-8170,-803,-2,23,-2,1
472434,877,-8171,-783,-2,13,-2,1
472439,963,-8170,-711,-2,4,-2,1
472444,1044,-8168,-638,-2,-3,-2,1
472449,1084,-8164,-560,-2,-7,-1,1
472455,1148,-8166,-495,-2,-11,-1,1
472460,1210,-8167,-442,-2,-13,-1,1
472465,1254,-8169,-394,-1,-15,-1,1
472470,1319,-8171,-368,-1,-19,-1,1
472476,1346,-8170,-365,-1,-23,-1,1
472481,1344,-8170,-375,-1,-27,-1,1
472486,1345,-8170,-406,-1,-30,-1,1
472491,1302,-8171,-445,-1,-32,-1,1
472496,1231,-8171,-482,-1,-32,-1,1
472502,1164,-8171,-530,-2,-31,-1,1
472506,1066,-8168,-580,-2,-26,0,1
472510,955,-8167,-635,-2,-19,0,1
472514,865,-8166,-698,-2,-11,0,1
472519,781,-8165,-762,-2,-3,0,1
472524,709,-8163,-825,-2,2,0,1
472528,654,-8163,-882,-2,4,0,1
472533,603,-8166,-927,-2,5,0,1
472538,565,-8166,-958,-2,5,0,1
472543,535,-8166,-965,-2,6,0,1
472548,507,-8164,-962,-2,8,0,1
472553,488,-8164,-949,-2,9,0,1
472558,473,-8165,-930,-2,11,0,1
472563,463,-8165,-914,-2,13,0,1
472567,469,-8166,-902,-2,13,0,1
472572,482,-8165,-885,-2,13,0,1
472577,510,-8161,-868,-2,13,0,1
472582,558,-8159,-848,-2,14,0,1
472587,612,-8162,-819,-2,15,0,1
472591,665,-8166,-793,-2,15,0,1
472596,721,-8171,-774,-2,15,0,1
472601,767,-8171,-756,-2,15,0,1
472606,796,-8171,-747,-2,13,0,1
472610,822,-8169,-747,-2,10,0,1
472615,828,-8169,-759,-2,7,0,1
472620,824,-8171,-771,-2,4,0,1
472625,816,-8175,-778,-2,1,0,1
472630,795,-8178,-781,-2,-1,0,1
472635,771,-8177,-773,-2,-2,0,1
472640,749,-8175,-760,-2,-2,0,1
472645,726,-8174,-744,-2,-1,0,1
472650,715,-8175,-735,-2,0,0,1
472655,704,-8179,-734,-1,0,0,1
472660,695,-8178,-748,-1,-1,0,1
472665,695,-8179,-773,-1,-2,0,1
472670,695,-8181,-801,-1,-2,-1,1
472675,687,-8182,-827,-1,-2,-1,1
472680,681,-8181,-855,-1,-2,-1,1
472685,673,-8178,-877,-1,-2,-1,1
472690,660,-8175,-896,-1,-2,-1,1
472695,647,-8172,-908,-1,-1,-1,1
472700,635,-8171,-919,-1,0,-1,1
472705,632,-8168,-934,-1,1,-1,1
472710,640,-8167,-950,-1,2,-1,1
472715,652,-8164,-957,-1,2,-1,1
472720,659,-8162,-965,-1,2,-1,1
472725,668,-8166,-963,-1,1,-1,1
472730,678,-8164,-949,-1,1,-1,1
472736,679,-8164,-927,-1,1,-1,1
472741,686,-8166,-903,-1,1,-1,1
472746,695,-8163,-885,-1,2,-1,1
472750,707,-8162,-869,-1,2,-1,1
472756,727,-8162,-861,-1,2,-1,1
472761,746,-8162,-861,-1,2,-1,1
472765,763,-8161,-870,-1,1,-1,1
472770,779,-8163,-876,-1,0,-1,1
472775,786,-8160,-878,-1,-1,-1,1
472781,787,-8157,-887,-1,-2,-1,1
472786,782,-8155,-899,-1,-2,-1,1
472791,772,-8157,-916,-1,-2,-1,1
472795,767,-8159,-935,-1,-2,-1,1
472801,762,-8159,-952,-1,-2,-1,1
472805,755,-8160,-967,-1,-2,-1,1
472810,755,-8161,-970,-1,-1,-1,1
472815,764,-8162,-962,-1,0,0,1
472821,775,-8163,-950,-1,1,0,1
472826,790,-8165,-934,0,1,0,1
472831,804,-8165,-913,0,1,0,1
472835,814,-8166,-897,0,0,0,1
472840,825,-8163,-886,0,0,0,1
472845,826,-8161,-883,0,-1,0,1
472850,816,-8160,-883,0,-2,0,1
472855,797,-8159,-886,0,-3,0,1
472860,767,-8157,-897,0,-2,0,1
472865,736,-8157,-914,0,-2,0,1
472870,713,-8160,-929,0,0,0,1
472875,692,-8161,-949,0,1,0,1
472880,678,-8163,-965,0,1,0,1
472885,672,-8163,-976,0,2,0,1
472890,670,-8163,-981,0,3,0,1
472895,675,-8165,-977,0,4,0,1
472900,683,-8166,-963,0,4,0,1
472905,698,-8166,-947,0,4,0,1
472910,710,-8168,-926,0,4,0,1
472915,723,-8168,-903,0,4,0,1
472920,735,-8167,-883,0,4,0,1
472925,743,-8168,-863,0,4,0,1
472930,753,-8170,-839,0,4,0,1
472935,762,-8171,-818,0,4,0,1
472940,768,-8170,-800,0,4,0,1
472945,770,-8170,-782,0,4,0,1
472950,773,-8167,-774,0,4,0,1
472955,781,-8163,-771,0,3,0,1
472960,783,-8163,-773,0,2,0,1
472965,783,-8160,-783,0,1,0,1
472970,775,-8161,-794,0,0,0,1
472975,758,-8161,-806,0,-1,0,1
472981,730,-8162,-809,0,-1,0,1
472985,704,-8165,-809,0,0,0,1
472990,677,-8165,-801,0,0,0,1
472995,660,-8166,-790,0,1,0,1
473000,649,-8168,-781,0,2,0,1
473005,646,-8171,-771,0,3,0,1
473010,651,-8172,-766,0,4,0,1
473015,660,-8168,-760,0,5,0,1
473020,675,-8168,-756,0,6,0,1
473025,694,-8171,-754,0,5,0,1
473030,712,-8173,-753,0,4,0,1
473035,732,-8173,-750,0,2,0,1
473040,747,-8173,-743,0,0,0,1
473045,755,-8173,-736,0,-1,0,1
473050,761,-8172,-727,0,-2,0,1
473055,759,-8170,-719,0,-2,-1,1
473060,749,-8171,-713,0,-2,-1,1
473065,736,-8170,-708,0,-2,-1,1
473070,720,-8170,-707,0,-2,-1,1
473076,703,-8170,-708,0,-3,-1,1
473081,687,-8172,-711,0,-3,-1,1
473086,673,-8174,-710,0,-2,-1,1
473090,669,-8173,-706,0,-1,-1,1
473095,676,-8170,-703,0,-1,-1,1
473100,692,-8166,-700,0,0,-1,1
473105,716,-8166,-701,0,-1,-1,1
473110,736,-8168,-706,0,-2,-1,1
473116,752,-8167,-719,0,-3,-1,1
473120,763,-8168,-733,0,-3,-1,1
473125,768,-8170,-748,0,-3,-1,1
473131,767,-8168,-770,0,-4,-1,1
473135,762,-8168,-794,0,-4,-1,1
473140,750,-8167,-818,0,-4,-1,1
473145,735,-8168,-835,0,-4,-1,1
473151,723,-8166,-848,0,-3,0,1
473156,716,-8168,-853,0,-2,0,1
473160,713,-8170,-850,0,-1,0,1
473165,714,-8170,-841,0,0,0,1
473170,719,-8171,-827,0,1,0,1
473175,723,-8173,-813,0,1,0,1
473180,729,-8172,-794,0,1,0,1
473185,734,-8173,-775,0,2,0,1
473190,732,-8173,-756,0,2,0,1
473195,733,-8173,-740,0,3,0,1
473200,730,-8172,-729,0,4,0,1
473205,728,-8172,-720,0,6,0,1
473210,735,-8171,-715,0,6,0,1
473215,750,-8173,-713,0,6,0,1
473220,770,-8172,-719,0,5,0,1
473225,787,-8171,-720,0,3,0,1
473230,801,-8171,-723,0,2,0,1
473235,816,-8168,-726,0,0,0,1
473240,824,-8169,-731,0,-1,0,1
473245,822,-8170,-740,0,-2,0,1
473250,816,-8169,-751,0,-2,0,1
473255,802,-8168,-770,0,-1,0,1
473260,785,-8166,-792,0,-1,0,1
473265,771,-8165,-806,0,0,0,1
473270,762,-8165,-817,0,1,0,1
473275,752,-8164,-817,-1,1,0,1
473280,738,-8163,-811,-1,1,0,1
473285,727,-8164,-802,0,2,0,1
473290,717,-8165,-797,0,2,0,1
473295,713,-8165,-793,0,2,0,1
473300,713,-8166,-798,0,2,0,1
473305,712,-8166,-808,0,1,0,1
473310,711,-8167,-819,0,0,0,1
473315,709,-8167,-829,0,0,0,1
473320,698,-8166,-840,0,0,0,1
473325,685,-8166,-845,0,1,0,1
473330,664,-8169,-848,0,2,0,1
473335,637,-8170,-854,0,3,0,1
473340,614,-8172,-852,0,4,0,1
473345,594,-8172,-849,0,6,0,1
473350,580,-8174,-849,0,8,0,1
473355,582,-8173,-845,0,9,0,1
473360,596,-8176,-826,0,10,0,1
473365,627,-8176,-796,0,9,0,1
473370,675,-8174,-757,0,6,0,1
473375,719,-8173,-714,0,3,0,1
473380,767,-8173,-676,0,0,0,1
473385,816,-8172,-653,0,-2,0,1
473390,856,-8172,-651,0,-4,0,1
473395,883,-8170,-669,0,-7,0,1
473400,898,-8173,-698,0,-9,0,1
473405,894,-8171,-729,0,-10,0,1
473410,870,-8170,-767,0,-10,0,1
473415,846,-8169,-802,0,-9,0,1
473420,809,-8169,-805,0,-7,0,1
473425,773,-8169,-835,0,-5,0,1
473430,756,-8168,-825,0,-4,0,1
473435,736,-8166,-824,0,-3,0,1
473440,736,-8165,-818,0,-3,0,1
473445,755,-8165,-799,0,-3,0,1
473450,778,-8166,-799,0,-4,0,1
473455,815,-8164,-786,0,-4,0,1
473460,847,-8166,-791,0,-4,0,1
473465,887,-8166,-787,0,-5,0,1
473470,911,-8164,-775,0,-6,0,1
473475,912,-8161,-777,0,-7,0,1
473480,916,-8162,-773,0,-8,0,1
473485,901,-8161,-782,0,-8,0,1
473490,875,-8161,-805,0,-9,0,1
473495,846,-8161,-827,0,-10,0,1
473500,807,-8163,-851,0,-10,0,1
473505,770,-8162,-867,0,-11,0,1
473510,727,-8162,-870,0,-10,0,1
473515,694,-8165,-851,0,-10,0,1
473520,678,-8166,-810,0,-9,0,1
473525,660,-8164,-769,0,-9,0,1
473530,655,-8162,-715,0,-9,0,1
473535,651,-8160,-674,0,-7,0,1
473540,642,-8161,-644,0,-5,0,1
473545,630,-8165,-626,0,-2,0,1
473550,613,-8167,-618,0,2,0,1
473555,596,-8166,-615,0,5,0,1
473560,577,-8168,-624,-1,8,0,1
473565,564,-8171,-624,-1,9,0,1
473570,566,-8173,-623,-1,9,0,1
473575,578,-8172,-625,-1,9,0,1
473580,609,-8168,-629,-1,7,0,1
473585,649,-8167,-646,-1,5,0,1
473590,693,-8167,-661,-1,2,0,1
473595,729,-8170,-670,-1,-1,0,1
473600,755,-8168,-675,-1,-3,0,1
473605,767,-8167,-674,-1,-5,0,1
473610,765,-8167,-662,-1,-6,0,1
473616,748,-8168,-650,-1,-7,0,1
473622,721,-8169,-650,-1,-6,0,1
473627,688,-8173,-660,-1,-5,0,1
473631,654,-8175,-671,-1,-3,0,1
473637,619,-8175,-681,-1,0,0,1
473642,586,-8175,-687,-1,3,0,1
473646,554,-8175,-687,-1,7,0,1
473652,531,-8175,-676,-1,10,0,1
473656,518,-8174,-665,-1,12,0,1
473661,494,-8174,-646,-1,12,0,1
473666,484,-8175,-645,-1,12,0,1
473671,470,-8175,-653,-1,12,0,1
473675,462,-8175,-680,-1,11,0,1
473680,479,-8170,-720,-1,10,0,1
473685,524,-8167,-771,-1,8,0,1
473690,583,-8163,-808,-1,7,0,1
473695,603,-8160,-821,-1,6,0,1
473700,629,-8158,-832,-1,5,-1,1
473705,617,-8159,-819,-1,5,-1,1
473710,562,-8163,-816,-1,3,-1,1
473715,520,-8172,-837,0,-2,-1,1
473720,457,-8174,-869,0,-5,-1,1
473725,415,-8175,-927,0,-6,-1,1
473730,385,-8176,-983,0,-4,-1,1
473735,372,-8176,-1036,0,1,-1,1
473740,369,-8176,-1074,0,5,-1,1
473745,364,-8175,-1082,0,8,-1,1
473750,379,-8174,-1074,0,10,-1,1
473755,389,-8173,-1042,0,12,-1,1
473760,416,-8172,-1005,0,14,-1,1
473765,469,-8172,-966,0,16,-1,1
473770,508,-8171,-928,0,17,-1,1
473775,560,-8172,-897,0,17,-1,1
473780,611,-8174,-870,0,16,-1,1
473785,645,-8174,-835,0,13,-1,1
473790,684,-8174,-790,0,11,-1,1
473795,705,-8171,-744,0,9,-1,1
473800,715,-8171,-699,0,8,-1,1
473805,726,-8172,-661,0,7,-1,1
473810,715,-8171,-632,0,7,-1,1
473815,710,-8170,-633,0,7,-1,1
473820,705,-8168,-664,0,6,-1,1
473825,709,-8164,-718,0,6,-1,1
473830,720,-8166,-791,0,7,-1,1
473835,735,-8166,-860,0,8,-1,1
473840,763,-8165,-915,0,10,-1,1
473845,790,-8164,-938,0,11,-1,1
473850,819,-8160,-925,-1,13,-1,1
473855,856,-8159,-879,-1,14,0,1
473860,892,-8158,-823,0,16,0,1
473865,931,-8158,-773,0,17,0,1
473870,967,-8157,-736,0,17,0,1
473875,991,-8160,-707,0,17,0,1
473880,1006,-8160,-687,0,16,0,1
473885,1013,-8162,-668,0,17,0,1
473890,1012,-8164,-645,-1,18,0,1
473895,1004,-8167,-624,-1,21,1,1
473900,960,-8168,-626,-1,25,1,1
473905,901,-8171,-629,-1,29,0,1
473910,848,-8174,-643,-1,31,0,1
473915,787,-8178,-654,-1,29,0,1
473920,728,-8181,-648,-1,24,1,1
473925,686,-8180,-640,-1,21,1,1
473930,673,-8176,-627,-1,21,1,1
473935,675,-8175,-624,-1,22,1,1
473940,676,-8176,-630,-1,24,0,1
473945,661,-8176,-650,-1,26,0,1
473950,629,-8177,-679,-1,28,0,1
473955,584,-8178,-706,-1,28,0,1
473960,543,-8177,-730,-1,28,0,1
473965,493,-8175,-744,-1,28,0,1
473970,460,-8174,-764,-1,29,0,1
473975,437,-8176,-781,-1,31,0,1
473980,428,-8179,-796,-1,33,0,1
473985,435,-8181,-799,-1,34,0,1
473990,446,-8183,-787,-1,37,0,1
473995,465,-8182,-759,-1,40,0,1
474000,477,-8179,-738,-1,44,0,1
474005,489,-8178,-704,-1,48,0,1
474010,498,-8178,-680,-1,51,0,1
474015,501,-8181,-675,-1,55,0,1
474020,508,-8184,-666,-1,59,0,1
474025,508,-8186,-674,-2,63,0,1
474030,517,-8185,-664,-2,67,0,1
474035,520,-8189,-654,-2,71,0,1
474040,521,-8186,-638,-2,72,0,1
474045,523,-8186,-619,-2,73,0,1
474050,532,-8187,-611,-2,72,0,1
474055,553,-8186,-602,-2,71,0,1
474060,574,-8187,-606,-2,70,0,1
474065,604,-8184,-613,-2,69,0,1
474070,636,-8179,-614,-2,67,0,1
474075,653,-8178,-624,-2,65,0,1
474080,659,-8178,-620,-2,61,0,1
474085,660,-8179,-630,-2,58,0,1
474090,659,-8177,-644,-1,55,0,1
474095,657,-8176,-669,-1,51,-1,1
474100,660,-8178,-711,-1,48,-1,1
474105,664,-8178,-742,-1,45,-1,1
474110,665,-8178,-778,-1,41,-1,1
474115,670,-8178,-795,-1,39,-1,1
474120,672,-8176,-808,-1,36,-1,1
474125,675,-8173,-813,-1,35,-1,1
474130,690,-8173,-809,-1,34,-1,1
474135,713,-8170,-812,-1,33,-1,1
474140,746,-8167,-806,-1,32,-1,1
474145,786,-8166,-804,-1,33,-1,1
474150,825,-8168,-796,0,33,-1,1
474155,859,-8165,-785,-1,34,-1,1
474160,890,-8163,-769,-1,34,-1,1
474165,908,-8164,-737,-1,34,-1,1
474170,925,-8165,-705,-1,33,-1,1
474175,947,-8167,-675,-1,32,-1,1
474180,973,-8168,-645,0,31,-1,1
474185,1014,-8164,-624,-1,30,-1,1
474190,1060,-8165,-602,-1,27,-1,1
474195,1097,-8165,-579,-1,25,-1,1
474200,1140,-8166,-553,-1,22,-1,1
474205,1179,-8165,-531,-1,16,-1,1
474210,1217,-8167,-514,0,8,-1,1
474215,1239,-8168,-516,0,-1,-1,0
474220,1249,-8165,-534,0,-9,-1,0
474225,1257,-8163,-565,0,-14,-1,0
474230,1253,-8161,-609,0,-18,-1,0
474235,1239,-8163,-653,0,-21,-1,0
474240,1208,-8162,-701,0,-22,-1,0
474245,1154,-8164,-738,1,-23,-1,0
474250,1082,-8168,-769,1,-24,-1,0
474255,1008,-8170,-787,1,-24,-1,0
474260,931,-8171,-795,1,-23,-1,0
474265,864,-8172,-795,1,-20,-1,0
474270,808,-8171,-782,1,-15,-1,0
474275,765,-8169,-769,1,-8,-1,0
474280,735,-8168,-763,0,-1,-1,0
474285,722,-8168,-756,0,5,-1,0
474290,713,-8169,-744,0,8,-1,0
474295,702,-8170,-729,0,9,-1,0
474300,680,-8172,-701,0,11,0,0
474305,657,-8174,-669,0,13,-1,0
474310,644,-8175,-640,0,16,-1,0
474315,632,-8176,-608,0,19,0,0
474320,631,-8177,-584,0,22,0,0
474325,648,-8175,-564,0,25,0,0
474330,674,-8173,-547,0,27,0,0
474335,703,-8176,-535,-1,28,0,0
474340,730,-8175,-520,-1,28,0,0
474345,759,-8172,-505,-1,28,0,0
474350,787,-8172,-495,-1,27,0,0
474355,819,-8172,-494,-1,25,0,0
474360,859,-8173,-495,-1,22,0,0
474365,894,-8173,-504,0,18,0,0
474370,930,-8169,-516,0,14,0,0
474375,962,-8168,-533,0,11,0,0
474380,982,-8166,-552,0,7,-1,0
474385,985,-8167,-570,0,3,-1,0
474390,970,-8168,-591,0,0,-1,0
474395,941,-8167,-610,0,-2,-1,0
474400,908,-8165,-629,0,-3,-1,0
474405,875,-8164,-644,0,-3,-1,0
474409,845,-8165,-661,0,-3,-1,0
474415,821,-8168,-674,0,-2,-1,0
474420,798,-8167,-679,0,0,-1,0
474425,786,-8165,-678,0,2,-1,0
474430,777,-8164,-670,0,4,-1,0
474435,772,-8164,-658,0,5,-1,0
474440,774,-8164,-638,0,6,-1,0
474445,780,-8165,-619,0,7,-1,0
474450,788,-8167,-599,0,8,-1,0
474455,794,-8168,-580,0,8,-1,0
474460,798,-8166,-565,0,8,-1,0
474465,801,-8164,-557,0,9,-1,0
474469,806,-8165,-548,0,9,-1,0
474475,815,-8165,-541,0,9,-1,0
474479,823,-8165,-533,0,8,-1,0
474484,831,-8162,-518,0,8,-1,0
474489,840,-8159,-507,0,8,-1,0
474495,847,-8159,-500,0,8,-1,0
474500,858,-8160,-500,0,8,-1,0
474505,870,-8166,-507,0,8,-1,0
474510,882,-8169,-516,-1,6,-1,0
474515,907,-8172,-524,-1,3,-1,0
