millis,ax,ay,az,gx,gy,gz,label
1723411,832,-8280,-221,-2,41,2,0
1723416,890,-8277,-228,-2,34,2,0
1723421,942,-8277,-243,-2,29,2,0
1723425,994,-8278,-247,-2,27,2,0
1723431,1036,-8277,-250,-2,28,2,0
1723435,1078,-8277,-242,-2,29,2,0
1723440,1113,-8276,-220,-2,29,2,0
1723446,1148,-8276,-183,-2,26,2,0
1723451,1170,-8274,-129,-2,20,2,0
1723456,1180,-8273,-61,-1,11,2,0
1723461,1175,-8272,15,-1,1,3,0
1723466,1148,-8269,94,-1,-7,3,0
1723471,1109,-8268,170,-1,-13,3,0
1723476,1059,-8268,236,-1,-17,2,0
1723481,992,-8270,281,-1,-21,2,0
1723486,913,-8272,311,-1,-25,2,0
1723491,820,-8275,331,-1,-28,2,0
1723496,724,-8278,336,-1,-29,2,0
1723501,626,-8282,333,-1,-27,2,0
1723505,538,-8285,319,-1,-23,2,0
1723511,467,-8285,296,-1,-17,2,0
1723516,419,-8284,265,-1,-10,1,0
1723521,390,-8286,223,-1,-5,1,0
1723525,380,-8285,185,-1,-1,1,0
1723531,385,-8284,153,-1,2,1,0
1723536,400,-8284,137,-2,4,1,0
1723541,416,-8282,129,-2,6,0,0
1723545,434,-8283,134,-2,8,0,0
1723551,456,-8282,145,-2,11,0,0
1723556,482,-8280,157,-2,12,0,0
1723561,515,-8278,160,-2,13,0,0
1723565,550,-8278,154,-1,12,0,0
1723571,592,-8281,135,-1,11,0,0
1723576,635,-8278,114,-1,9,0,0
1723581,677,-8278,90,-1,7,0,0
1723586,710,-8281,61,-1,5,0,0
1723591,741,-8280,40,-1,3,0,0
1723596,772,-8278,24,-1,3,0,0
1723600,800,-8280,3,-1,3,0,0
1723605,820,-8280,-16,-1,4,0,0
1723610,828,-8277,-25,-1,5,0,0
1723616,827,-8278,-42,-1,7,0,0
1723621,814,-8280,-47,-1,9,0,0
1723626,799,-8282,-42,-1,12,0,0
1723630,790,-8284,-41,-1,15,0,0
1723636,784,-8283,-31,-1,19,0,0
1723640,786,-8282,-27,-1,22,0,0
1723645,784,-8282,-26,-1,26,0,0
1723650,782,-8281,-25,-1,29,0,0
1723655,780,-8282,-27,-1,31,0,0
1723660,777,-8281,-28,-1,33,0,0
1723665,780,-8282,-29,-1,33,0,0
1723670,789,-8283,-36,-1,32,0,0
1723675,806,-8283,-38,-1,29,0,0
1723680,818,-8280,-49,-1,24,-1,0
1723686,822,-8277,-58,0,19,-1,0
1723691,814,-8273,-72,0,15,-1,0
1723695,804,-8274,-99,0,12,-1,0
1723700,793,-8274,-137,0,11,-1,0
1723705,781,-8272,-180,1,10,-1,0
1723710,775,-8272,-231,1,10,-1,0
1723715,772,-8274,-274,1,11,-1,0
1723720,772,-8280,-311,1,12,-1,0
1723726,771,-8282,-325,1,13,-1,0
1723730,770,-8284,-323,1,14,-1,0
1723736,771,-8284,-294,1,16,-1,0
1723740,774,-8282,-244,1,17,-1,0
1723745,784,-8281,-185,1,17,-1,0
1723750,792,-8280,-126,1,14,-1,0
1723755,801,-8279,-56,1,11,-1,0
1723760,800,-8282,3,1,9,-1,0
1723765,793,-8280,67,1,6,-1,0
1723770,782,-8280,117,1,4,-1,0
1723775,760,-8281,165,1,4,-1,0
1723780,743,-8282,212,1,5,-1,0
1723785,722,-8282,257,1,7,-1,0
1723790,702,-8282,295,1,9,-1,0
1723795,691,-8285,327,1,12,-2,0
1723800,682,-8286,355,1,12,-2,0
1723805,682,-8286,365,1,12,-2,0
1723810,681,-8285,355,1,11,-2,0
1723815,695,-8283,332,1,9,-2,0
1723820,718,-8281,294,1,7,-2,0
1723825,748,-8280,254,1,6,-2,0
1723830,778,-8280,216,1,6,-2,0
1723835,805,-8280,189,1,6,-2,0
1723840,828,-8279,177,1,7,-2,0
1723845,846,-8278,187,1,8,-2,0
1723850,860,-8273,214,1,8,-2,0
1723855,874,-8269,244,1,9,-2,0
1723860,891,-8267,283,1,9,-2,0
1723865,908,-8265,320,1,8,-2,0
1723870,928,-8262,349,1,8,-2,0
1723875,957,-8266,368,1,7,-2,0
1723880,994,-8266,382,1,6,-1,0
1723885,1035,-8266,389,1,5,-1,0
1723890,1076,-8265,395,1,3,-1,0
1723895,1113,-8266,408,1,1,-1,0
1723900,1142,-8266,424,1,-1,-1,0
1723905,1158,-8264,447,1,-2,-1,0
1723910,1169,-8263,472,0,-3,-1,0
1723915,1169,-8261,490,0,-4,-1,0
1723920,1166,-8262,486,0,-4,-1,0
1723925,1167,-8266,491,0,-6,-1,0
1723930,1163,-8269,489,0,-8,-1,0
1723935,1158,-8271,482,0,-10,-1,0
1723940,1142,-8273,491,0,-10,-1,0
1723945,1119,-8272,497,0,-10,-1,0
1723950,1084,-8270,509,0,-9,-1,0
1723955,1039,-8270,531,0,-8,-1,0
1723960,992,-8271,554,0,-8,-1,0
1723965,943,-8270,566,0,-9,-1,0
1723970,891,-8270,574,0,-10,-1,0
1723975,843,-8271,567,0,-9,-1,0
1723980,803,-8274,549,0,-7,-1,0
1723985,769,-8276,527,-1,-4,-1,0
1723990,741,-8280,505,-1,-1,-1,0
1723995,708,-8285,486,-1,2,-1,0
1724000,679,-8288,473,-1,6,-1,0
1724005,664,-8290,473,-1,10,-2,0
1724010,671,-8292,486,-2,13,-2,0
1724015,673,-8292,512,-2,16,-2,0
1724020,702,-8289,516,-2,20,-1,0
1724025,738,-8284,524,-2,25,-2,0
1724030,818,-8285,520,-2,27,-2,0
1724035,892,-8285,507,-2,27,-2,0
1724040,970,-8284,485,-2,26,-1,0
1724045,1059,-8281,468,-2,23,-1,0
1724050,1135,-8276,458,-2,18,-1,0
1724055,1194,-8274,454,-2,14,-1,0
1724060,1234,-8271,455,-2,9,-1,0
1724065,1254,-8268,454,-2,5,-1,0
1724070,1251,-8269,456,-2,1,-1,0
1724075,1220,-8268,447,-2,-2,-1,0
1724080,1179,-8269,427,-2,-3,-1,0
1724085,1143,-8270,392,-2,-3,-1,0
1724090,1115,-8275,348,-2,-5,-1,0
1724095,1086,-8278,309,-2,-7,0,0
1724100,1055,-8278,276,-2,-8,0,0
1724105,1026,-8275,244,-2,-8,0,0
1724110,997,-8274,221,-2,-6,-1,0
1724115,978,-8271,195,-2,-4,-1,0
1724120,967,-8271,156,-1,-3,-1,0
1724125,963,-8272,122,-1,-4,-1,0
1724130,956,-8276,81,-1,-6,-1,0
1724135,947,-8278,49,-1,-7,-1,0
1724140,942,-8280,8,-1,-7,-1,0
1724145,940,-8280,-16,-1,-6,-1,0
1724150,932,-8279,-31,-1,-6,-1,0
1724155,916,-8278,-34,-1,-5,-1,0
1724160,892,-8280,-32,-1,-5,-1,0
1724165,864,-8281,-23,-1,-4,-1,0
1724170,842,-8285,-6,-1,-2,-1,0
1724175,840,-8286,14,-1,-1,-1,0
1724180,863,-8284,25,-1,1,-1,0
1724185,908,-8280,34,-1,2,-1,0
1724190,968,-8275,40,-1,2,-1,0
1724195,1038,-8272,43,-1,1,-1,0
1724200,1110,-8272,45,-1,1,-1,0
1724205,1177,-8270,49,0,1,0,0
1724210,1239,-8269,62,0,0,0,0
1724215,1288,-8267,79,0,-1,0,0
1724220,1334,-8267,102,0,-2,0,0
1724225,1379,-8269,126,0,-2,0,0
1724230,1422,-8271,143,0,-2,1,0
1724235,1465,-8272,156,0,-3,1,0
1724240,1509,-8269,157,0,-4,1,0
1724245,1542,-8266,156,0,-5,1,0
1724250,1563,-8265,159,0,-7,1,0
1724255,1563,-8267,167,0,-10,1,0
1724260,1546,-8265,179,0,-12,1,0
1724265,1514,-8263,192,0,-13,2,0
1724270,1467,-8261,209,0,-13,2,0
1724275,1414,-8262,218,0,-13,2,0
1724280,1358,-8261,223,0,-13,2,0
1724285,1301,-8261,226,0,-13,2,0
1724290,1245,-8260,231,0,-13,2,0
1724295,1191,-8261,230,0,-13,2,0
1724300,1138,-8261,232,0,-12,2,0
1724305,1088,-8266,229,0,-12,2,0
1724310,1040,-8268,230,0,-11,2,0
1724315,999,-8272,239,0,-10,2,0
1724320,965,-8273,250,0,-9,2,0
1724325,936,-8273,258,0,-8,2,0
1724330,914,-8273,264,0,-8,2,0
1724335,892,-8275,262,0,-8,2,0
1724340,866,-8275,258,0,-8,2,0
1724345,840,-8277,255,0,-7,2,0
1724350,816,-8280,252,0,-7,2,0
1724355,795,-8279,251,0,-6,1,0
1724360,777,-8284,254,0,-5,1,0
1724365,757,-8284,261,0,-4,1,0
1724370,745,-8284,277,0,-3,1,0
1724375,741,-8284,286,0,-3,1,0
1724380,739,-8284,297,0,-2,1,0
1724385,740,-8284,302,-1,-2,1,0
1724390,741,-8284,305,-1,-2,1,0
1724395,738,-8280,299,-1,-3,1,0
1724400,732,-8280,293,-1,-2,1,0
1724405,725,-8280,290,-1,-2,1,0
1724410,719,-8283,294,-1,-2,1,0
1724415,711,-8285,302,-1,-2,1,0
1724420,707,-8286,318,-1,-1,1,0
1724425,708,-8285,337,-1,-1,1,0
1724430,712,-8285,357,-1,-1,1,0
1724435,720,-8286,370,-1,-1,1,0
1724440,731,-8283,378,-1,-1,1,0
1724445,749,-8286,379,-1,-1,1,0
1724450,760,-8285,379,-1,-1,1,0
1724455,773,-8286,377,-1,-2,0,0
1724460,784,-8282,376,-1,-2,0,0
1724465,789,-8280,376,-1,-2,0,0
1724470,792,-8281,375,-1,-1,0,0
1724475,796,-8283,374,-1,-1,0,0
1724480,799,-8285,371,-1,0,1,0
1724485,810,-8286,363,-1,0,0,0
1724490,817,-8286,358,-2,0,0,0
1724495,823,-8285,354,-2,0,1,0
1724500,829,-8281,359,-2,0,0,0
1724505,833,-8281,372,-2,1,0,0
1724510,832,-8278,374,-2,0,0,0
1724515,822,-8277,379,-2,-1,0,0
1724520,809,-8277,382,-2,-3,0,0
1724525,794,-8277,386,-2,-3,0,0
1724530,792,-8273,389,-2,-4,1,0
1724535,800,-8275,383,-2,-3,0,0
1724540,816,-8275,373,-2,-4,0,0
1724545,836,-8275,365,-2,-5,0,0
1724550,850,-8280,351,-2,-6,0,0
1724555,854,-8281,327,-2,-5,0,0
1724560,862,-8283,313,-2,-1,0,0
1724565,867,-8285,289,-2,0,0,0
1724570,856,-8288,280,-2,-1,0,0
1724575,839,-8289,276,-2,-1,0,0
1724580,799,-8288,281,-2,0,0,0
1724585,762,-8287,293,-2,0,0,0
1724590,749,-8287,311,-2,-1,0,0
1724595,730,-8286,310,-2,-2,0,0
1724600,720,-8283,286,-2,-3,0,0
1724605,722,-8281,252,-2,-2,0,0
1724610,731,-8281,207,-2,-1,0,0
1724615,748,-8282,152,-2,-1,0,0
1724620,754,-8285,100,-2,-2,0,0
1724625,754,-8287,69,-2,-2,0,0
1724630,745,-8290,50,-2,-1,0,0
1724635,740,-8292,59,-2,0,0,0
1724640,745,-8291,86,-2,0,0,0
1724645,750,-8289,116,-2,0,0,0
1724650,765,-8290,140,-2,0,0,0
1724655,780,-8288,157,-2,-1,0,0
1724660,797,-8286,153,-2,-2,0,0
1724665,821,-8284,136,-2,-2,0,0
1724670,842,-8284,113,-2,-3,0,0
1724675,861,-8286,87,-2,-4,0,0
1724680,877,-8286,69,-2,-6,0,0
1724685,887,-8280,56,-2,-8,0,0
1724690,895,-8279,50,-2,-10,0,0
1724695,900,-8277,53,-2,-10,0,0
1724700,907,-8277,48,-2,-11,0,0
1724705,912,-8276,36,-1,-12,0,0
1724710,914,-8278,19,-1,-12,0,0
1724715,912,-8278,-7,-1,-12,0,0
1724720,908,-8279,-29,-1,-13,0,0
1724725,899,-8280,-43,-1,-12,0,0
1724730,885,-8283,-50,-1,-12,0,0
1724735,874,-8285,-44,-1,-11,0,0
1724740,862,-8286,-28,-1,-10,0,0
1724745,856,-8283,-15,-1,-10,0,0
1724750,852,-8280,-1,-1,-11,0,0
1724755,849,-8278,9,-1,-11,0,0
1724760,846,-8279,17,-1,-12,0,0
1724765,847,-8278,20,-1,-12,0,0
1724770,852,-8279,18,-1,-12,0,0
1724775,856,-8280,20,-1,-11,0,0
1724780,859,-8283,15,-1,-11,0,0
1724785,857,-8283,9,-1,-11,0,0
1724790,851,-8284,9,-1,-11,0,0
1724795,839,-8285,11,-1,-11,0,0
1724800,817,-8283,15,-1,-11,0,0
1724805,789,-8283,12,-1,-10,0,0
1724810,763,-8283,5,-1,-10,0,0
1724815,744,-8284,-4,-1,-9,0,0
1724820,728,-8282,-16,-1,-8,0,0
1724825,723,-8284,-29,-1,-7,0,0
1724830,721,-8284,-36,-1,-6,0,0
1724835,722,-8285,-42,-1,-5,0,0
1724840,720,-8285,-48,-1,-4,0,0
1724845,715,-8285,-52,-1,-3,0,0
1724850,709,-8281,-43,-1,-2,0,0
1724855,702,-8280,-35,-1,-1,0,0
1724860,696,-8281,-31,-1,-1,0,0
1724865,695,-8282,-24,-1,-1,0,0
1724870,697,-8287,-12,-1,-1,0,0
1724875,701,-8287,2,-1,-1,0,0
1724880,711,-8287,13,-1,-1,-1,0
1724885,726,-8287,25,-1,-1,0,0
1724890,741,-8284,38,-1,0,-1,0
1724895,756,-8282,53,-1,0,-1,0
1724900,771,-8280,74,-1,0,-1,0
1724905,782,-8281,93,-1,-1,-1,0
1724910,787,-8281,103,-1,-1,-1,0
1724915,793,-8283,114,-1,-1,-1,0
1724920,796,-8283,119,-1,-2,-1,0
1724925,801,-8283,126,-1,-2,0,0
1724930,813,-8283,136,-1,-2,0,0
1724935,825,-8285,144,-1,-2,0,0
1724940,838,-8283,151,-1,-2,0,0
1724945,852,-8279,157,-1,-2,0,0
1724950,865,-8277,161,-1,-3,-1,0
1724955,872,-8276,164,-1,-4,-1,0
1724960,873,-8276,168,-1,-4,0,0
1724965,869,-8278,166,-1,-5,0,0
1724970,859,-8277,161,-1,-5,0,0
1724975,854,-8279,160,-1,-5,0,0
1724980,857,-8278,157,-1,-5,0,0
1724985,867,-8278,154,-1,-5,0,0
1724990,887,-8279,149,-1,-5,0,0
1724995,908,-8281,145,-1,-5,0,0
1725000,928,-8281,144,-1,-5,0,0
1725005,939,-8280,147,-1,-6,0,0
1725010,944,-8278,143,-1,-7,0,0
1725015,941,-8275,139,-1,-7,0,0
1725020,934,-8276,130,-1,-7,0,0
1725025,927,-8275,120,-1,-7,0,0
1725030,922,-8276,113,-1,-7,0,0
1725035,918,-8273,104,-1,-7,0,0
1725040,915,-8273,97,-1,-7,0,0
1725045,911,-8273,89,-1,-7,0,0
1725050,908,-8273,79,-1,-7,0,0
1725055,901,-8275,75,-1,-6,0,0
1725060,892,-8274,72,-1,-6,0,0
1725065,883,-8277,71,-1,-6,0,0
1725070,873,-8277,74,-1,-6,0,0
1725075,867,-8278,79,-1,-6,0,0
1725080,862,-8280,77,-1,-5,0,0
1725085,855,-8281,75,-1,-5,0,0
1725090,856,-8282,68,-1,-5,0,0
1725095,856,-8280,60,-1,-4,0,0
1725100,857,-8281,51,-1,-4,0,0
1725105,854,-8281,50,-1,-4,0,0
1725110,850,-8278,50,-1,-4,0,0
1725115,846,-8279,51,-1,-3,0,0
1725120,839,-8281,53,-1,-3,0,0
1725125,827,-8284,55,-1,-3,0,0
1725130,815,-8286,54,-1,-3,0,0
1725135,802,-8287,53,-1,-3,0,0
1725140,788,-8289,49,-1,-3,0,0
1725145,781,-8290,40,-1,-2,0,0
1725150,777,-8291,37,-1,-2,0,0
1725155,773,-8290,35,-1,-2,0,0
1725160,769,-8289,36,-1,-2,0,0
1725165,765,-8289,36,-1,-1,0,0
1725170,761,-8287,38,-1,-1,0,0
1725175,758,-8286,45,-1,-1,0,0
1725180,756,-8283,48,-1,-1,0,0
1725185,754,-8283,53,-1,-2,0,0
1725190,752,-8281,59,-1,-2,0,0
1725195,751,-8282,57,-1,-2,0,0
1725200,754,-8284,57,-1,-2,0,0
1725205,752,-8286,54,-1,-2,0,0
1725210,752,-8288,53,-1,-2,0,0
1725215,756,-8290,59,-1,-3,0,0
1725220,760,-8293,62,-1,-3,0,0
1725225,763,-8292,61,-1,-3,0,0
1725230,767,-8293,58,0,-3,0,0
1725235,770,-8293,51,0,-3,0,0
1725240,773,-8295,42,0,-3,0,0
1725245,775,-8296,37,0,-3,0,0
1725250,778,-8296,33,0,-3,0,0
1725255,782,-8297,30,0,-2,0,0
1725260,787,-8296,30,0,-2,0,0
1725265,788,-8295,26,0,-3,0,0
1725270,790,-8293,29,0,-3,0,0
1725275,788,-8293,27,0,-3,0,0
1725280,789,-8293,22,0,-3,0,0
1725285,788,-8291,19,0,-3,0,0
1725290,786,-8289,19,0,-3,0,0
1725295,782,-8289,14,0,-3,0,0
1725300,780,-8290,9,0,-3,0,0
1725305,774,-8288,3,0,-3,0,0
1725310,767,-8288,0,0,-3,0,0
1725315,760,-8288,1,0,-3,0,0
1725320,753,-8287,2,0,-2,0,0
1725325,749,-8286,4,0,-2,0,0
1725330,747,-8286,9,0,-2,0,0
1725335,751,-8287,11,0,-2,0,0
1725340,758,-8286,8,0,-1,0,0
1725345,766,-8285,9,0,-1,0,0
1725350,775,-8283,7,0,-1,0,0
1725355,783,-8285,9,0,-1,0,0
1725360,788,-8286,15,0,-1,0,0
1725365,788,-8282,26,0,-1,0,0
1725370,785,-8280,40,0,0,0,0
1725375,784,-8277,52,0,0,0,0
1725380,779,-8279,60,0,0,0,0
1725385,772,-8281,67,0,0,0,0
1725390,764,-8283,68,0,1,0,0
1725395,753,-8284,75,0,1,0,0
1725400,747,-8285,86,0,1,0,0
1725405,742,-8286,97,0,1,0,0
1725410,741,-8286,108,0,1,-1,0
1725415,742,-8286,117,0,1,0,0
1725420,740,-8287,136,0,1,0,0
1725425,744,-8288,152,0,1,0,0
1725430,741,-8290,171,0,0,0,0
1725435,738,-8290,183,0,0,-1,0
1725440,737,-8289,190,0,0,-1,0
1725445,737,-8289,201,0,0,-1,0
1725450,738,-8288,207,0,0,-1,0
1725455,736,-8286,208,0,0,-1,0
1725460,737,-8286,209,-1,0,-1,0
1725465,742,-8286,210,-1,0,-1,0
1725470,743,-8284,214,-1,0,-1,0
1725475,744,-8284,215,-1,0,-1,0
1725480,741,-8284,219,-1,0,-1,0
1725485,736,-8282,219,-1,0,-1,0
1725490,735,-8284,218,-1,0,-1,0
1725495,733,-8286,211,-1,0,-1,0
1725500,734,-8285,206,-1,0,-1,0
1725505,735,-8285,199,-1,0,-1,0
1725510,738,-8283,197,-1,0,-1,0
1725515,749,-8285,194,-1,0,-1,0
1725520,760,-8284,199,-1,0,-1,0
1725525,772,-8283,203,-1,0,-1,0
1725530,781,-8281,201,-1,-1,-1,0
1725535,790,-8280,201,-1,-1,-1,0
1725540,795,-8285,205,-1,-1,-1,0
1725545,801,-8289,201,-1,-1,-1,0
1725550,804,-8290,197,-1,-1,-1,0
1725555,806,-8292,192,-1,-1,-1,0
1725560,806,-8292,181,-1,-2,-1,0
1725565,809,-8291,177,-1,-2,-1,0
1725570,810,-8288,170,-1,-2,-1,0
1725575,813,-8290,162,-1,-2,-1,0
1725580,819,-8293,152,-1,-2,-1,0
1725585,825,-8294,140,-1,-2,-1,0
1725590,834,-8294,125,-1,-2,-1,0
1725595,845,-8293,119,-1,-2,-1,0
1725600,853,-8292,111,-1,-2,-1,0
1725605,859,-8288,104,-1,-2,-1,0
1725610,861,-8285,103,-1,-2,-1,0
1725615,862,-8286,97,-1,-2,-1,0
1725620,863,-8289,91,-1,-2,-1,0
1725625,866,-8291,89,-1,-2,0,0
1725630,869,-8292,87,-1,-3,0,0
1725635,872,-8292,79,-1,-3,0,0
1725640,871,-8290,69,-1,-4,0,0
1725645,869,-8287,51,-1,-4,0,0
1725650,864,-8287,40,-1,-4,0,0
1725655,858,-8286,29,-1,-4,0,0
1725660,859,-8290,13,-1,-4,0,0
1725665,858,-8291,4,-1,-4,0,0
1725670,858,-8290,-4,-1,-4,0,0
1725675,857,-8290,-13,-1,-3,0,0
1725680,849,-8291,-24,-1,-3,0,0
1725685,843,-8290,-32,-1,-3,0,0
1725690,835,-8289,-43,-1,-2,0,0
1725695,828,-8287,-46,-1,-2,0,0
1725700,820,-8288,-51,-1,-2,0,0
1725705,812,-8286,-53,-1,-1,0,0
1725710,802,-8286,-55,-1,-1,0,0
1725715,801,-8285,-56,-1,-1,0,0
1725720,797,-8286,-54,-1,-1,0,0
1725725,797,-8285,-54,-1,-1,0,0
1725730,793,-8285,-57,-1,-1,0,0
1725735,788,-8285,-61,-1,-1,0,0
1725740,785,-8284,-63,-1,-1,0,0
1725745,780,-8284,-60,0,-2,0,0
1725750,768,-8282,-59,0,-2,0,0
1725755,757,-8279,-60,0,-2,0,0
1725760,748,-8279,-61,0,-1,0,0
1725765,739,-8277,-58,0,-1,0,0
1725770,737,-8276,-60,0,-1,0,0
1725775,738,-8276,-57,0,0,0,0
1725780,743,-8277,-58,0,0,0,0
1725785,745,-8279,-59,0,0,0,0
1725790,743,-8282,-53,0,0,0,0
1725795,740,-8285,-44,0,0,0,0
1725800,736,-8286,-44,0,0,0,0
1725805,731,-8286,-41,0,0,-1,0
1725810,731,-8288,-32,0,0,-1,0
1725815,735,-8287,-24,0,0,0,0
1725820,744,-8285,-17,0,0,0,0
1725825,752,-8285,-10,0,0,0,0
1725830,756,-8286,-3,0,0,-1,0
1725835,757,-8284,-3,0,0,-1,0
1725840,755,-8282,1,0,0,-1,0
1725845,748,-8283,3,0,0,-1,0
1725850,741,-8283,11,0,0,-1,0
1725855,739,-8283,21,0,0,-1,0
1725860,741,-8282,33,0,0,-1,0
1725865,746,-8279,41,0,0,-1,0
1725870,754,-8277,49,0,0,-1,0
1725875,766,-8278,46,0,0,-1,0
1725880,771,-8278,47,0,0,-1,0
1725885,774,-8280,54,0,0,-1,0
1725890,772,-8283,60,0,0,-1,0
1725895,770,-8285,69,0,0,-1,0
1725900,768,-8286,86,0,0,-1,0
1725905,767,-8288,98,0,0,-1,0
1725910,770,-8289,111,0,0,-1,0
1725915,774,-8289,113,0,0,-1,0
1725920,779,-8285,113,0,-1,-1,0
1725925,784,-8285,111,0,-1,-1,0
1725930,788,-8285,103,0,-1,-1,0
1725935,793,-8282,91,0,-1,-1,0
1725940,794,-8282,90,0,0,-1,0
1725945,799,-8285,90,0,0,-1,0
1725950,803,-8286,96,0,0,-1,0
1725955,802,-8288,104,0,0,-1,0
1725960,799,-8290,113,0,-1,-1,0
1725965,796,-8294,121,0,-1,-1,0
1725970,790,-8292,125,0,-1,-1,0
1725975,788,-8293,121,0,-1,-1,0
1725980,791,-8291,117,0,-1,-1,0
1725985,794,-8287,113,0,0,0,0
1725990,801,-8287,105,0,0,-1,0
1725995,808,-8285,101,0,0,-1,0
1726000,810,-8282,98,0,0,-1,0
1726005,807,-8282,95,0,0,-1,0
1726010,801,-8281,99,0,-1,-1,0
1726015,794,-8280,105,0,-1,-1,0
1726020,789,-8282,109,0,0,-1,0
1726025,788,-8282,110,0,0,-1,0
1726030,790,-8280,107,0,0,-1,0
1726035,796,-8280,101,0,0,0,0
1726040,801,-8282,95,0,0,0,0
1726045,806,-8283,90,-1,-1,-1,0
1726050,809,-8282,93,-1,-1,-1,0
1726055,803,-8281,92,-1,-1,-1,0
1726060,797,-8279,99,-1,-1,-1,0
1726065,791,-8279,104,-1,-1,-1,0
1726070,787,-8279,106,-1,0,0,0
1726075,785,-8280,100,-1,0,0,0
1726080,791,-8279,89,-1,0,0,0
1726085,797,-8277,84,-1,0,0,0
1726090,801,-8277,83,-1,-1,0,0
1726095,803,-8278,81,-1,-1,0,0
1726100,804,-8281,86,-1,-1,-1,0
1726105,803,-8281,91,-1,-1,-1,0
1726110,798,-8280,97,-1,-1,-1,0
1726115,797,-8282,91,-1,-1,0,0
1726120,799,-8283,90,-1,-1,0,0
1726125,802,-8281,79,-1,-1,-1,0
1726130,805,-8282,66,-1,-1,0,0
1726135,806,-8283,54,-1,-2,-1,0
1726140,807,-8282,43,-1,-2,-1,0
1726145,807,-8286,38,-1,-2,-1,0
1726150,806,-8285,40,-1,-2,0,0
1726155,811,-8282,45,-1,-2,0,0
1726159,813,-8279,48,-1,-1,0,0
1726165,819,-8278,49,-1,-1,0,0
1726170,823,-8280,45,0,-2,0,0
1726175,824,-8280,37,0,-2,0,0
1726180,817,-8283,32,0,-2,-1,0
1726184,803,-8284,21,0,-2,0,0
1726190,792,-8284,14,0,-2,0,0
1726195,784,-8283,10,0,-1,0,0
1726200,781,-8282,10,0,-1,0,0
1726205,782,-8281,11,0,0,0,0
1726210,787,-8282,5,0,0,0,0
1726214,792,-8282,2,0,0,0,0
1726219,795,-8282,3,0,0,0,0
1726224,797,-8281,9,0,-1,0,0
1726230,796,-8281,10,0,0,-1,0
1726235,794,-8281,13,0,0,0,0
1726239,793,-8280,16,0,0,0,0
1726244,793,-8280,17,0,0,0,0
1726249,794,-8284,16,0,0,0,0
1726255,799,-8285,16,0,0,0,0
1726260,804,-8286,22,0,0,0,0
1726265,805,-8289,31,0,-1,0,0
1726269,804,-8288,31,0,-1,0,0
1726275,802,-8286,31,0,-1,0,0
1726280,799,-8284,28,0,-1,0,0
1726285,794,-8285,27,0,-1,0,0
1726289,792,-8284,27,0,-1,0,0
1726294,791,-8286,34,0,-1,0,0
1726300,790,-8288,33,0,-1,0,0
1726305,788,-8291,29,0,-1,0,0
1726309,787,-8291,23,0,-1,0,0
1726315,787,-8289,14,0,0,0,0
1726319,789,-8289,12,0,0,0,0
1726324,793,-8289,10,0,0,0,0
1726329,794,-8290,10,0,0,0,0
1726334,794,-8293,11,0,0,0,0
1726340,786,-8293,13,0,0,-1,0
1726344,777,-8290,16,0,0,0,0
1726349,771,-8285,21,0,0,0,0
1726354,768,-8279,19,0,0,0,0
1726359,765,-8278,19,0,0,0,0
1726364,762,-8277,22,0,1,0,0
1726369,766,-8280,27,0,0,0,0
1726374,772,-8283,30,0,0,0,0
1726379,776,-8282,37,0,0,0,0
1726384,778,-8283,48,0,0,0,0
1726390,779,-8281,54,0,0,0,0
1726395,775,-8281,61,0,0,0,0
1726399,771,-8283,63,0,0,0,0
1726405,768,-8285,67,0,0,-1,0
1726410,768,-8284,72,0,0,0,0
1726415,774,-8284,73,0,0,0,0
1726420,779,-8285,74,0,0,0,0
1726425,781,-8286,76,0,0,0,0
1726429,785,-8286,76,0,0,0,0
1726434,789,-8285,75,0,0,-1,0
1726439,788,-8284,75,0,0,0,0
1726444,790,-8283,82,0,0,-1,0
1726450,788,-8285,91,0,0,0,0
1726454,786,-8287,99,0,0,-1,0
1726459,782,-8286,104,0,-1,0,0
1726465,779,-8288,109,0,-1,0,0
1726469,778,-8288,111,0,-1,0,0
1726474,778,-8286,107,0,-1,-1,0
1726479,779,-8285,103,0,-1,0,0
1726484,782,-8283,96,0,-1,0,0
1726489,783,-8284,90,0,-1,0,0
1726494,785,-8288,88,0,-1,0,0
1726499,783,-8290,87,0,-1,-1,0
1726504,778,-8295,87,0,-1,0,0
1726509,777,-8297,91,0,-1,-1,0
1726514,776,-8296,90,0,-1,0,0
1726519,775,-8297,91,0,0,0,0
1726524,778,-8296,90,0,0,0,0
1726529,783,-8294,84,0,0,0,0
1726534,786,-8291,78,0,0,0,0
1726539,792,-8289,78,0,0,0,0
1726544,794,-8287,79,0,0,0,0
1726549,797,-8284,84,0,0,0,0
1726554,798,-8286,89,0,0,0,0
1726559,800,-8284,92,0,-1,0,0
1726564,797,-8281,97,0,-1,0,0
1726569,793,-8282,93,0,-1,0,0
1726574,791,-8279,92,0,-1,0,0
1726579,786,-8282,89,0,-1,0,0
1726584,786,-8281,83,0,-1,0,0
1726589,788,-8279,76,0,-1,0,0
1726594,788,-8280,70,0,-1,0,0
1726599,785,-8282,67,0,-1,0,0
1726604,778,-8285,69,0,-1,-1,0
1726609,772,-8285,74,0,-1,0,0
1726614,765,-8287,75,0,-1,-1,0
1726619,755,-8288,74,0,0,0,0
1726624,754,-8288,69,0,0,0,0
1726629,756,-8289,66,0,0,0,0
1726634,759,-8289,66,0,0,0,0
1726639,767,-8290,68,0,0,0,0
1726644,773,-8292,65,0,-1,0,0
1726649,778,-8295,63,0,0,-1,0
1726654,781,-8296,64,0,0,-1,0
1726659,782,-8295,68,0,0,-1,0
1726664,780,-8294,73,0,0,-1,0
1726669,777,-8293,73,0,0,-1,0
1726674,779,-8294,70,0,0,0,0
1726679,777,-8292,72,0,0,0,0
1726684,775,-8292,74,0,0,-1,0
1726689,771,-8290,76,0,0,0,0
1726694,771,-8290,76,0,0,0,0
1726699,774,-8290,77,0,0,0,0
1726704,778,-8290,81,0,0,-1,0
1726709,782,-8289,83,0,0,-1,0
1726714,785,-8288,84,0,0,-1,0
1726719,787,-8288,86,0,0,0,0
1726724,788,-8287,87,0,0,-1,0
1726729,784,-8287,87,0,0,-1,0
1726734,780,-8285,83,0,0,-1,0
1726739,776,-8284,83,0,0,-1,0
1726744,775,-8282,87,0,-1,-1,0
1726749,771,-8285,95,0,-1,-1,0
1726754,772,-8285,102,0,-1,-1,0
1726759,774,-8286,105,0,-1,0,0
1726764,779,-8284,104,0,-1,-1,0
1726769,788,-8281,106,0,-1,-1,0
1726774,792,-8281,108,0,-1,-1,0
1726779,795,-8281,106,0,-1,-1,0
1726784,794,-8284,101,0,-1,-1,0
1726789,794,-8286,98,0,-1,-1,0
1726794,790,-8289,90,0,-1,-1,0
1726799,787,-8290,83,0,-1,-1,0
1726804,789,-8293,82,0,-1,-1,0
1726809,790,-8292,76,0,0,-1,0
1726814,791,-8293,78,0,0,-1,0
1726819,791,-8297,80,0,-1,-1,0
1726824,791,-8296,82,0,-1,-1,0
1726829,791,-8298,79,0,-1,0,0
1726834,790,-8295,78,0,-1,-1,0
1726839,789,-8292,77,0,-1,-1,0
1726844,789,-8293,73,0,-1,-1,0
1726849,789,-8292,67,0,-1,-1,0
1726854,789,-8295,66,0,-1,-1,0
1726859,788,-8291,61,0,-1,-1,0
1726864,785,-8291,60,0,0,-1,0
1726869,783,-8295,61,0,0,-1,0
1726874,785,-8296,66,0,0,-1,0
1726879,788,-8293,72,0,0,-1,0
1726884,791,-8291,76,0,0,-1,0
1726889,796,-8288,81,0,0,-1,0
1726894,799,-8286,85,0,0,0,0
1726899,799,-8284,90,0,0,-1,0
1726904,795,-8285,92,0,0,-1,0
1726909,790,-8287,93,0,0,-1,0
1726914,791,-8288,101,0,0,0,0
1726919,794,-8289,105,0,0,0,0
1726924,797,-8289,105,0,0,-1,0
1726929,803,-8287,110,0,0,0,0
1726934,807,-8289,115,0,0,0,0
1726939,811,-8288,117,0,-1,0,0
1726944,812,-8286,124,0,-1,0,0
1726949,815,-8287,127,-1,-1,0,0
1726954,817,-8286,130,-1,-1,0,0
1726959,818,-8283,127,-1,-1,0,0
1726964,818,-8281,124,-1,-1,0,0
1726969,816,-8281,122,-1,-1,0,0
1726974,811,-8278,118,-1,-1,0,0
1726979,805,-8278,117,-1,-1,0,0
1726984,801,-8277,117,-1,-1,0,0
1726989,799,-8278,111,-1,-1,0,0
1726994,799,-8278,109,-1,-1,0,0
1726999,799,-8281,106,-1,-1,0,0
1727004,800,-8285,104,-1,-1,0,0
1727009,801,-8289,101,-1,-2,0,0
1727014,803,-8292,101,-1,-2,0,0
1727019,803,-8291,93,-1,-2,0,0
1727024,800,-8289,88,-1,-2,0,0
1727029,796,-8289,80,-1,-2,0,0
1727034,793,-8288,79,-1,-2,0,0
1727039,790,-8291,76,-1,-2,0,0
1727044,792,-8291,75,-1,-2,0,0
1727049,793,-8291,70,-1,-1,0,0
1727054,792,-8291,65,-1,-1,0,0
1727059,796,-8288,67,-1,-1,0,0
1727064,797,-8286,67,-1,-1,0,0
1727069,797,-8285,65,-1,-1,0,0
1727074,802,-8285,65,-1,-1,0,0
1727079,807,-8282,65,-1,0,0,0
1727084,809,-8282,69,-1,0,0,0
1727089,812,-8281,71,-1,0,0,0
1727094,810,-8282,70,-1,-1,0,0
1727099,809,-8284,73,-1,-1,0,0
1727104,804,-8284,81,-1,-1,0,0
1727109,800,-8282,83,-1,-1,0,0
1727114,798,-8281,84,-1,-1,0,0
1727119,798,-8282,83,-1,-1,0,0
1727124,798,-8282,78,-1,-1,0,0
1727129,794,-8284,73,-1,-1,0,0
1727134,791,-8286,73,-1,-2,0,0
1727139,787,-8285,68,-1,-2,0,0
1727144,781,-8285,65,-1,-2,0,0
1727149,776,-8288,66,-1,-2,0,0
1727154,774,-8291,64,-1,-1,0,0
1727159,776,-8290,65,-1,-1,0,0
1727164,776,-8291,65,-1,-1,0,0
1727169,776,-8292,62,-1,-1,0,0
1727174,778,-8290,60,-1,-1,0,0
1727179,780,-8290,55,-1,-1,0,0
1727184,780,-8289,46,-1,-1,-1,0
1727189,777,-8286,43,-1,-1,0,0
1727194,777,-8285,33,-1,0,0,0
1727199,773,-8284,35,-1,0,0,0
1727204,775,-8288,39,-1,0,0,0
1727209,771,-8291,44,-1,0,0,0
1727214,770,-8294,52,-1,-1,0,0
1727219,766,-8293,60,-1,-1,0,0
1727224,765,-8290,61,-1,-1,0,0
1727229,766,-8288,63,-1,-1,0,0
1727234,771,-8285,67,0,-1,0,0
1727239,777,-8284,70,0,-1,0,0
1727244,783,-8284,73,0,-1,0,0
1727249,789,-8287,73,0,-1,0,0
1727254,793,-8289,67,0,-1,0,0
1727259,798,-8289,65,0,-1,0,0
1727264,797,-8287,58,0,-1,0,0
1727269,794,-8285,55,0,-1,0,0
1727274,791,-8283,48,0,-1,0,0
1727279,786,-8280,47,0,-1,0,0
1727284,785,-8281,52,0,-1,0,0
1727289,788,-8283,56,0,-1,0,0
1727294,791,-8284,62,0,-1,0,0
1727299,791,-8285,66,0,-1,0,0
1727304,792,-8287,64,0,-1,0,0
1727309,794,-8287,62,0,-1,0,0
1727314,795,-8288,62,0,-1,0,0
1727319,797,-8290,59,0,-1,0,0
1727324,797,-8290,58,0,-1,0,0
1727329,791,-8289,55,0,-1,0,0
1727334,785,-8288,54,0,-1,0,0
1727339,784,-8287,50,0,0,0,0
1727344,779,-8288,48,0,0,0,0
1727349,774,-8291,46,0,0,0,0
1727354,774,-8292,47,0,0,0,0
1727359,774,-8292,43,0,0,-1,0
1727364,775,-8293,45,0,0,0,0
1727369,777,-8293,45,0,0,0,0
1727374,775,-8292,48,0,0,0,0
1727379,775,-8291,55,0,0,0,0
1727384,778,-8293,59,0,0,0,0
1727389,776,-8292,64,0,0,-1,0
1727394,777,-8291,65,0,0,0,0
1727399,781,-8289,71,0,0,0,0
1727404,785,-8292,69,0,0,0,0
1727409,786,-8291,71,0,0,-1,0
1727414,791,-8293,77,0,0,-1,0
1727419,794,-8294,77,0,0,-1,0
1727424,797,-8293,74,0,0,0,0
1727429,799,-8289,77,0,0,0,0
1727434,801,-8291,84,0,0,0,0
1727439,802,-8290,95,0,0,0,0
1727444,800,-8290,100,0,0,0,0
1727449,800,-8287,101,0,0,0,0
1727454,800,-8287,103,0,0,0,0
1727459,798,-8286,102,0,0,0,0
1727464,794,-8285,99,0,0,0,0
1727469,789,-8286,97,0,0,0,0
1727474,786,-8287,91,0,0,0,0
1727479,781,-8289,83,0,0,0,0
1727484,774,-8289,82,-1,-1,0,0
1727489,767,-8289,80,0,-1,0,0
1727494,763,-8287,76,0,-1,0,0
1727499,760,-8284,67,-1,-1,0,0
1727504,763,-8285,65,0,-1,0,0
1727509,768,-8285,64,0,-1,0,0
1727514,775,-8285,57,0,0,0,0
1727519,780,-8285,52,0,0,0,0
1727524,784,-8287,44,0,0,0,0
1727529,785,-8289,39,0,0,0,0
1727534,783,-8287,37,0,0,-1,0
1727539,783,-8286,42,0,0,-1,0
1727544,782,-8286,50,0,0,-1,0
1727549,782,-8287,58,0,0,-1,0
1727554,782,-8288,63,0,0,0,0
1727559,782,-8287,64,0,0,0,0
1727564,779,-8286,59,0,0,0,0
1727569,780,-8284,59,0,0,0,0
1727574,782,-8286,56,0,0,0,0
1727579,781,-8287,54,0,0,0,0
1727584,781,-8288,57,0,0,-1,0
1727589,781,-8288,57,0,0,-1,0
1727594,779,-8288,63,0,0,-1,0
1727599,776,-8287,71,0,0,-1,0
1727604,775,-8288,72,0,0,-1,0
1727609,774,-8285,76,0,0,0,0
1727614,777,-8284,79,0,0,0,0
1727619,776,-8284,77,0,0,0,0
1727624,775,-8287,81,0,0,0,0
1727629,780,-8288,84,0,0,0,0
1727634,783,-8287,91,0,0,-1,0
1727639,786,-8287,97,0,0,-1,0
1727644,785,-8287,104,0,-1,-1,0
1727649,784,-8287,108,0,-1,0,0
1727654,778,-8288,110,0,0,0,0
1727659,776,-8287,109,0,0,0,0
1727664,776,-8285,104,0,-1,0,0
1727669,780,-8284,106,0,-1,0,0
1727674,783,-8285,107,0,-1,0,0
1727679,787,-8281,103,0,-1,0,0
1727684,794,-8281,102,-1,-1,0,0
1727689,797,-8282,98,-1,-1,0,0
1727694,802,-8282,96,-1,-1,0,0
1727699,804,-8284,102,-1,-1,0,0
1727704,806,-8286,104,-1,-1,0,0
1727709,805,-8289,100,-1,-1,0,0
1727714,803,-8290,98,-1,-1,0,0
1727719,798,-8289,95,-1,-1,-1,0
1727724,789,-8290,94,-1,-1,0,0
1727729,783,-8289,93,-1,-1,0,0
1727734,782,-8289,93,-1,-1,0,0
1727739,783,-8288,92,-1,-1,0,0
1727744,785,-8287,89,-1,-1,0,0
1727749,787,-8287,84,-1,-1,0,0
1727754,793,-8287,82,-1,-1,-1,0
1727759,799,-8286,80,-1,-1,-1,0
1727764,801,-8287,75,0,-1,0,0
1727769,797,-8288,66,0,-2,0,0
1727774,794,-8287,64,0,-2,0,0
1727779,789,-8283,57,0,-2,0,0
1727784,783,-8285,49,0,-1,0,0
1727789,782,-8289,47,0,-1,0,0
1727794,783,-8289,49,0,-1,0,0
1727799,785,-8290,51,0,-1,0,0
1727804,791,-8291,51,-1,-1,0,0
1727809,795,-8288,53,0,-1,0,3
1727814,801,-8287,57,0,0,0,3
1727819,805,-8286,58,0,-1,0,3
1727824,803,-8286,62,0,-1,0,3
1727829,798,-8284,62,0,-1,0,3
1727834,792,-8284,61,0,-1,0,3
1727839,783,-8284,57,0,-1,0,3
1727844,779,-8286,53,0,-1,0,3
1727849,778,-8288,53,0,0,0,3
1727854,781,-8286,57,0,0,0,3
1727859,781,-8285,63,0,-1,0,3
1727864,782,-8285,65,-1,-1,0,3
1727869,783,-8285,69,-1,-1,0,3
1727874,782,-8288,71,0,-1,0,3
1727879,780,-8289,73,0,-1,0,3
1727884,778,-8288,75,0,-1,0,3
1727889,773,-8288,83,0,-1,0,3
1727894,769,-8285,85,-1,-1,0,3
1727899,762,-8285,88,0,-1,-1,3
1727904,758,-8287,83,0,-1,0,3
1727909,755,-8289,79,0,-1,0,3
1727914,753,-8290,74,-1,-1,-1,3
1727919,754,-8290,66,0,-1,-1,3
1727924,755,-8289,62,-1,-1,-1,3
1727929,755,-8288,65,-1,-1,0,3
1727934,754,-8286,69,0,-1,-1,3
1727939,751,-8286,70,0,0,-1,3
1727944,749,-8285,66,-1,0,-1,3
1727949,747,-8288,61,-1,0,0,3
1727954,749,-8287,60,-1,0,0,3
1727959,752,-8286,55,-1,0,0,3
1727964,756,-8287,54,0,0,0,3
1727969,759,-8285,58,0,0,-1,3
1727974,764,-8285,66,0,0,-1,3
1727979,764,-8283,69,-1,-1,-1,3
1727984,766,-8285,72,-1,-1,-1,3
1727989,768,-8285,77,-1,-1,-1,3
1727994,770,-8284,76,-1,-1,-1,3
1727999,775,-8284,78,0,-1,-1,3
1728004,777,-8281,79,0,-1,-1,3
1728009,779,-8278,76,-1,-1,-1,3
1728014,779,-8276,75,-1,-1,-1,3
1728019,780,-8279,69,0,-1,-1,3
1728024,778,-8281,62,-1,-1,-1,3
1728029,778,-8280,61,-1,-1,-1,3
1728034,775,-8282,55,-1,-1,-1,3
1728039,774,-8285,54,-1,-1,-1,3
1728044,773,-8286,50,-1,-1,-1,3
1728049,773,-8286,48,0,-1,-1,3
1728054,775,-8286,51,0,-1,-1,3
1728059,775,-8283,50,0,-1,-1,3
1728064,776,-8282,48,0,-1,-1,3
1728069,779,-8282,42,0,-1,0,3
1728074,780,-8282,37,0,-1,-1,3
1728079,779,-8281,42,0,-1,-1,3
1728084,777,-8284,47,0,-1,-1,3
1728089,775,-8285,51,0,-1,-1,3
1728094,772,-8286,51,0,-1,-1,3
1728099,769,-8287,46,0,0,-1,3
1728104,767,-8287,48,0,0,-1,3
1728109,766,-8288,46,0,0,-1,3
1728114,767,-8286,45,0,0,-1,3
1728119,770,-8284,46,0,0,-1,3
1728124,771,-8285,51,0,0,-1,3
1728129,770,-8284,53,0,0,-1,3
1728134,775,-8282,58,0,0,-1,3
1728139,777,-8282,63,0,0,-1,3
1728144,780,-8282,67,0,0,-1,3
1728149,783,-8283,70,0,0,-1,3
1728154,786,-8283,75,0,0,-1,3
1728159,789,-8283,78,0,0,-1,3
1728164,790,-8282,76,0,0,-1,3
1728169,789,-8284,71,0,0,-1,3
1728174,783,-8284,66,0,0,-1,3
1728179,778,-8286,60,0,0,-1,3
1728184,772,-8287,57,0,0,-1,3
1728189,771,-8287,57,0,0,-1,3
1728194,771,-8290,63,0,0,-1,3
1728199,770,-8287,64,0,0,-1,3
1728204,768,-8289,63,0,0,-1,3
1728209,770,-8291,64,0,0,-1,3
1728214,775,-8288,66,0,0,-1,3
1728219,777,-8288,66,0,0,-1,3
1728224,778,-8288,71,0,0,-1,3
1728229,780,-8287,69,0,0,-1,3
1728234,784,-8286,72,0,0,-1,3
1728239,786,-8286,72,0,0,-1,3
1728244,786,-8285,74,0,0,-1,3
1728249,788,-8286,75,0,0,-1,3
1728254,789,-8285,78,0,0,-1,3
1728259,791,-8287,75,0,0,-1,3
1728264,790,-8287,75,0,0,-1,3
1728269,790,-8287,70,0,0,-1,3
1728274,791,-8287,70,0,0,-1,3
1728279,795,-8286,71,0,0,-1,3
1728284,798,-8286,71,0,0,0,3
1728289,803,-8283,72,-1,1,0,3
1728294,813,-8278,77,-1,1,0,3
1728299,819,-8277,75,-1,1,0,3
1728304,826,-8281,74,-1,1,0,3
1728309,833,-8284,77,-1,2,0,3
1728314,839,-8285,70,-1,3,0,3
1728319,848,-8286,69,-1,3,0,3
1728324,856,-8285,76,-1,4,0,3
1728329,860,-8287,86,-1,4,0,3
1728334,857,-8287,88,-1,3,0,3
1728339,852,-8286,93,-1,3,0,3
1728344,840,-8286,98,-1,2,0,3
1728349,825,-8284,93,-1,1,0,3
1728354,805,-8283,83,-1,-1,-1,3
1728359,773,-8283,58,0,-3,-1,3
1728364,737,-8289,13,0,-5,-1,3
1728369,711,-8293,-31,0,-7,-1,3
1728374,758,-8298,-72,0,-12,-1,3
1728379,777,-8297,-110,0,-25,-1,3
1728384,760,-8293,-154,0,-37,-1,3
1728389,720,-8289,-172,1,-37,-1,3
1728394,704,-8287,-209,1,-26,0,3
1728399,764,-8284,-247,1,-14,0,3
1728404,880,-8282,-253,1,-7,0,3
1728409,1028,-8278,-238,0,-9,0,3
1728414,1144,-8276,-202,0,-15,0,3
1728419,1201,-8273,-140,1,-22,0,3
1728424,1208,-8274,-62,1,-26,0,3
1728429,1168,-8275,-4,1,-27,0,3
1728434,1110,-8277,39,1,-29,0,3
1728439,1056,-8279,42,1,-32,0,3
1728444,1023,-8282,8,2,-37,1,3
1728449,1026,-8284,-51,2,-42,1,3
1728454,1059,-8285,-114,1,-44,2,3
1728459,1105,-8294,-174,1,-45,2,3
1728464,1161,-8430,-230,1,-43,2,3
1728469,1187,-8723,-229,1,-39,2,3
1728474,1132,-9088,-161,1,-32,2,3
1728479,999,-9463,-84,1,-25,1,3
1728484,817,-9827,-24,2,-17,1,3
1728489,632,-10189,-22,2,-12,1,3
1728494,467,-10562,-43,2,-9,0,3
1728499,344,-10931,-66,1,-6,0,3
1728504,259,-11278,-42,1,-1,0,3
1728509,187,-11581,36,1,4,-1,3
1728514,99,-11828,131,1,7,-2,3
1728519,0,-12013,189,1,9,-2,3
1728524,-106,-12138,208,1,9,-3,3
1728529,-191,-12210,206,1,9,-3,3
1728534,-221,-12231,183,0,11,-3,3
1728539,-214,-12203,171,0,13,-4,3
1728544,-187,-12119,167,0,15,-4,3
1728549,-159,-11983,174,0,17,-4,3
1728554,-150,-11796,179,0,18,-4,3
1728559,-151,-11569,162,0,19,-4,3
1728564,-148,-11316,129,0,20,-4,3
1728569,-124,-11044,95,0,22,-4,3
1728574,-81,-10751,71,0,24,-4,3
1728579,-32,-10431,53,1,25,-4,3
1728584,16,-10091,39,1,27,-4,3
1728589,66,-9728,34,1,29,-4,3
1728594,133,-9352,26,1,30,-4,3
1728599,220,-8975,23,1,30,-4,3
1728604,332,-8595,31,1,29,-3,3
1728609,453,-8213,52,1,27,-3,3
1728614,569,-7840,84,1,24,-2,3
1728619,667,-7476,115,2,21,-2,3
1728624,755,-7127,136,2,19,-1,3
1728629,830,-6795,151,2,16,-1,3
1728634,898,-6473,162,2,14,0,3
1728639,966,-6165,179,2,12,0,3
1728644,1031,-5880,204,2,10,1,3
1728649,1085,-5618,230,2,9,1,3
1728654,1126,-5367,248,2,8,2,3
1728659,1151,-5133,265,2,8,2,3
1728664,1171,-4914,276,2,9,3,3
1728669,1184,-4707,286,2,10,3,3
1728674,1204,-4512,295,2,10,4,3
1728679,1234,-4319,320,2,11,4,3
1728684,1270,-4126,352,1,11,4,3
1728689,1309,-3929,378,1,11,5,3
1728694,1352,-3726,408,1,12,5,3
1728699,1406,-3516,444,1,11,6,3
1728704,1464,-3303,477,1,10,6,3
1728709,1522,-3088,511,1,7,7,3
1728714,1573,-2880,544,0,4,8,3
1728719,1615,-2688,573,0,1,8,3
1728724,1639,-2506,592,0,-2,9,3
1728729,1624,-2338,593,0,-4,9,3
1728733,1592,-2183,581,0,-7,10,3
1728739,1552,-2049,563,0,-8,10,3
1728744,1515,-1929,546,-1,-9,11,3
1728749,1477,-1825,541,-1,-9,11,3
1728754,1445,-1744,533,-1,-9,12,3
1728759,1414,-1695,510,-1,-9,12,3
1728764,1392,-1682,471,-1,-8,13,3
1728769,1375,-1705,427,-1,-8,13,3
1728774,1363,-1764,387,-1,-7,14,3
1728779,1340,-1864,342,-1,-5,15,3
1728783,1306,-2009,304,-1,-3,16,3
1728789,1241,-2216,259,-1,-1,17,3
1728793,1118,-2494,216,-1,-1,17,3
1728798,900,-2852,190,-1,-2,18,3
1728804,621,-3298,185,-1,-3,18,3
1728808,316,-3837,199,-1,-1,18,3
1728814,-19,-4446,217,-1,-1,17,3
1728818,-471,-6151,-75,-1,-2,16,3
1728824,-2457,-5510,-96,21,33,19,3
1728829,-1326,-7063,233,0,142,17,3
1728834,-877,-7700,23,0,115,3,3
1728839,-388,-7989,-203,3,-15,-10,3
1728844,234,-9074,-508,3,-68,-10,3
1728849,135,-10118,-847,1,-65,-3,3
1728854,129,-10868,-346,-2,-26,2,3
1728859,106,-10666,-86,-6,18,2,3
1728864,362,-10730,390,-4,12,-2,3
1728868,399,-11331,761,-4,-21,-5,3
1728873,-131,-11824,940,-4,-27,-5,3
1728879,-416,-11804,1212,-4,-2,-7,3
1728884,-519,-11578,1197,-4,12,-7,3
1728889,-598,-11404,1062,-3,-1,-7,3
1728894,-583,-11260,899,-4,-8,-7,3
1728899,-504,-11046,627,-5,-5,-7,3
1728904,-422,-10728,508,-6,-4,-7,3
1728909,-370,-10350,481,-6,-5,-8,3
1728914,-293,-9931,512,-7,-3,-8,3
1728919,-218,-9448,564,-7,-3,-8,3
1728923,-84,-8899,525,-6,-6,-8,3
1728928,100,-8315,361,-6,-11,-8,3
1728933,222,-7713,144,-6,-19,-7,3
1728938,343,-7092,-54,-6,-22,-7,3
1728944,453,-6446,-200,-6,-18,-7,3
1728949,526,-5760,-275,-6,-13,-6,3
1728954,656,-5042,-343,-6,-8,-6,3
1728958,827,-4328,-450,-5,-4,-5,3
1728963,1002,-3643,-568,-4,-5,-4,3
1728968,1172,-3003,-708,-4,-8,-2,3
1728973,1275,-2420,-826,-4,-12,0,3
1728978,1313,-1889,-895,-3,-14,2,3
1728983,1288,-1420,-957,-3,-14,5,3
1728988,1347,-1007,-954,-2,-11,5,3
1728993,1636,-656,-925,-2,-6,5,3
1728998,2009,-373,-987,-1,-1,7,3
1729004,2126,-133,-1027,-1,-2,9,3
1729008,2078,100,-1062,0,-3,10,3
1729013,1843,305,-1090,0,-1,11,3
1729019,1522,488,-1039,0,-2,13,3
1729024,1252,639,-958,0,1,15,3
1729028,1165,734,-901,0,5,17,3
1729033,1165,777,-878,1,7,19,3
1729038,1013,-1673,-1351,3,7,20,3
1729043,-408,905,-275,34,59,23,3
1729048,390,360,24,4,150,9,3
1729053,312,-664,-447,2,60,-5,3
1729059,703,-1604,-658,5,-41,-16,3
1729064,1208,-2471,-802,6,0,-15,3
1729068,893,-3264,-839,4,30,-5,3
1729074,-100,-4001,-669,3,13,5,3
1729079,-613,-4643,-542,2,-9,7,3
1729083,-654,-5171,-174,1,-18,8,3
1729088,-642,-5616,138,1,-31,7,3
1729093,-563,-5982,92,1,-28,5,3
1729098,-269,-6291,152,1,-8,4,3
1729103,96,-6564,307,0,4,4,3
1729108,275,-6808,258,0,2,4,3
1729113,443,-7027,291,0,-1,3,3
1729118,562,-7210,453,0,-2,2,3
1729123,519,-7358,514,0,-5,1,3
1729128,442,-7484,604,0,-4,0,3
1729133,244,-7594,836,0,-3,1,3
1729138,-3,-7690,941,0,-5,1,3
1729143,-148,-7778,996,0,-5,2,3
1729148,-257,-7854,1056,0,-8,2,3
1729153,-306,-7916,1005,0,-10,2,3
1729158,-238,-7972,928,0,-9,2,3
1729163,-151,-8020,864,-1,-9,1,3
1729168,-87,-8060,788,-1,-7,1,3
1729173,-24,-8097,729,-2,-5,0,3
1729178,-8,-8128,700,-2,-3,-1,3
1729183,-68,-8153,701,-2,-1,-1,3
1729188,-180,-8175,688,-2,1,-1,3
1729193,-292,-8193,660,-2,2,-1,3
1729198,-361,-8211,622,-2,4,-1,3
1729203,-385,-8227,547,-2,5,0,3
1729208,-332,-8238,452,-2,5,0,3
1729213,-192,-8246,366,-2,6,0,3
1729218,-45,-8251,265,-2,5,0,3
1729223,76,-8253,201,-2,4,-1,3
1729228,197,-8254,179,-2,5,-1,3
1729233,242,-8252,158,-2,5,-2,3
1729238,233,-8255,171,-2,4,-2,3
1729243,196,-8256,181,-2,4,-2,3
1729248,135,-8260,158,-2,4,-1,3
1729253,101,-8265,133,-1,2,-1,3
1729258,101,-8270,80,-1,2,-1,3
1729263,147,-8276,8,-1,2,-1,3
1729268,245,-8283,-39,-1,2,-1,3
1729273,334,-8285,-89,-1,2,-1,3
1729278,419,-8288,-113,-2,1,-1,3
1729283,492,-8287,-93,-2,1,-1,3
1729288,497,-8287,-63,-2,0,-1,3
1729293,485,-8286,-15,-1,-1,-1,3
1729298,434,-8287,37,-1,-1,-1,3
1729303,361,-8290,57,-1,-1,-1,3
1729308,333,-8290,65,-1,-2,-1,3
1729313,307,-8290,48,-1,-1,0,3
1729318,317,-8292,-3,-1,0,0,3
1729323,381,-8294,-36,-1,1,-1,3
1729328,423,-8298,-57,-1,1,-1,3
1729333,460,-8298,-77,-1,1,-1,3
1729338,490,-8295,-63,-1,1,-1,3
1729343,458,-8293,-29,-1,2,-1,3
1729348,411,-8292,-8,-1,3,-1,3
1729353,355,-8290,19,-1,5,-1,3
1729358,301,-8290,22,-1,5,-1,3
1729363,284,-8289,-3,-1,5,-1,3
1729368,290,-8287,-17,-1,6,0,3
1729373,329,-8287,-57,-1,5,0,3
1729378,393,-8287,-87,-1,5,0,3
1729383,450,-8285,-88,-1,4,0,3
1729388,496,-8286,-89,-1,3,-1,3
1729393,518,-8285,-74,-1,3,-1,3
1729398,501,-8283,-33,-1,2,-1,3
1729403,456,-8283,-21,0,1,-1,3
1729408,407,-8285,-15,0,1,-1,3
1729413,362,-8286,-8,0,0,0,3
1729418,331,-8288,-42,0,0,0,3
1729423,331,-8291,-72,0,0,0,3
1729428,349,-8294,-95,0,0,0,3
1729433,375,-8295,-133,0,0,0,3
1729438,410,-8294,-143,0,0,0,3
1729443,421,-8296,-135,0,0,-1,3
1729448,406,-8296,-130,0,0,-1,3
1729453,382,-8294,-97,0,0,-1,3
1729458,339,-8295,-71,0,1,-1,3
1729463,307,-8298,-70,0,1,-1,3
1729468,290,-8297,-54,1,2,0,3
1729473,284,-8299,-62,1,2,0,3
1729478,311,-8299,-75,1,2,0,3
1729483,344,-8299,-68,0,2,0,3
1729488,371,-8301,-70,0,2,0,3
1729493,397,-8301,-59,0,2,-1,3
1729498,402,-8300,-17,0,3,-1,3
1729503,389,-8299,16,0,3,-1,3
1729508,363,-8296,54,0,3,-1,3
1729513,328,-8297,90,1,2,-1,3
1729518,298,-8294,98,1,2,-1,3
1729523,279,-8293,102,1,2,-1,3
1729528,277,-8295,102,1,3,0,3
1729533,294,-8294,83,1,3,-1,3
1729538,315,-8296,82,0,2,-1,3
1729543,343,-8293,94,0,1,-1,3
1729548,353,-8296,106,0,0,-1,3
1729553,354,-8295,146,0,-1,-1,3
1729558,345,-8293,184,0,-1,-1,3
1729563,319,-8291,203,0,-1,-1,3
1729568,295,-8291,228,0,-1,-1,3
1729573,271,-8293,232,0,0,-1,3
1729578,247,-8295,219,0,0,-1,3
1729583,240,-8294,221,0,0,-1,3
1729588,240,-8295,204,0,0,-1,3
1729593,243,-8296,198,0,0,-1,3
1729598,251,-8294,220,0,1,-1,3
1729603,259,-8292,239,0,1,-1,3
1729608,261,-8288,269,0,2,-1,3
1729613,263,-8289,309,0,2,-1,3
1729618,263,-8288,327,0,2,-1,3
1729623,260,-8290,338,0,1,-1,3
1729628,264,-8291,337,0,1,-1,3
1729633,276,-8292,318,0,0,-1,3
1729638,291,-8289,302,0,0,-1,3
1729643,318,-8288,288,-1,-1,-1,3
1729648,341,-8287,277,-1,-1,-1,3
1729653,358,-8287,285,-1,-1,-1,3
1729658,378,-8288,297,-1,-1,-1,3
1729663,383,-8289,300,-1,-2,-1,3
1729668,384,-8288,307,-1,-2,-1,3
1729673,386,-8291,304,-1,-2,-1,3
1729678,381,-8290,282,-1,-3,-1,3
1729683,379,-8287,268,-1,-3,-1,3
1729688,388,-8288,247,-1,-3,-1,3
1729693,386,-8288,213,-1,-3,-1,3
1729698,390,-8291,198,-1,-2,-1,3
1729703,398,-8292,177,-1,-1,-1,3
1729708,399,-8294,164,-1,-1,-1,3
1729713,408,-8296,166,-1,-1,-1,3
1729718,417,-8295,167,-1,0,-1,3
1729723,419,-8293,172,-1,-1,-1,3
1729728,430,-8293,177,-1,-1,-1,3
1729733,437,-8296,178,-1,-1,-1,3
1729738,440,-8294,179,-1,-1,-1,3
1729743,447,-8294,178,-1,-1,-1,3
1729748,445,-8293,166,-1,-2,-1,3
1729753,439,-8295,159,-1,-2,-1,3
1729758,434,-8295,154,-1,-2,-1,3
1729763,419,-8294,145,-1,-2,-1,3
1729768,404,-8294,143,-1,-2,-1,3
1729773,395,-8295,146,-1,-3,-1,3
1729778,381,-8294,153,-1,-3,-1,3
1729783,370,-8293,164,-1,-3,-1,3
1729788,363,-8295,165,-1,-3,-1,3
1729793,351,-8296,161,-1,-3,-1,3
1729798,348,-8294,158,-1,-3,-1,3
1729803,351,-8292,144,-1,-3,-1,3
1729808,348,-8290,129,-1,-3,-1,0
1729813,353,-8290,122,-1,-2,-1,0
1729818,361,-8288,113,-1,-2,-1,0
1729823,359,-8289,107,-1,-2,-1,0
1729828,364,-8289,113,-1,-1,-1,0
1729833,364,-8290,115,-1,-1,-1,0
1729838,359,-8291,116,-1,-2,-1,0
1729843,364,-8292,119,-1,-2,-1,0
1729848,364,-8296,114,-1,-2,-1,0
1729853,362,-8298,103,-1,-2,-1,0
1729858,371,-8300,95,-1,-2,-1,0
1729863,375,-8302,84,-1,-2,-1,0
1729868,378,-8302,64,-1,-3,-1,0
1729873,385,-8301,55,-1,-3,-1,0
1729878,384,-8300,46,-1,-3,-1,0
1729883,382,-8300,40,-1,-3,-1,0
1729888,384,-8299,44,-1,-3,-1,0
1729893,380,-8297,38,-1,-3,-1,0
1729898,380,-8294,35,-1,-3,-1,0
1729903,390,-8294,32,-1,-2,-1,0
1729908,395,-8294,17,-1,-2,-1,0
1729913,402,-8291,9,-1,-1,-1,0
1729918,415,-8294,0,-1,-1,-1,0
1729923,420,-8295,-10,-1,0,-1,0
1729928,425,-8294,-5,-1,0,-1,0
1729933,428,-8292,7,-1,0,-1,0
1729938,422,-8289,12,-1,-1,-1,0
1729943,418,-8289,23,-1,-1,-1,0
1729948,418,-8292,36,-1,-1,-1,0
1729953,418,-8291,38,-1,-1,-1,0
1729958,429,-8290,43,0,-2,-1,0
1729963,433,-8292,46,0,-2,0,0
1729968,440,-8291,39,0,-2,-1,0
1729973,452,-8290,39,0,-2,-1,0
1729978,456,-8294,35,0,-2,-1,0
1729983,452,-8295,35,-1,-2,-1,0
1729988,447,-8295,47,0,-2,-1,0
1729993,428,-8295,51,0,-2,-1,0
1729998,414,-8296,56,0,-1,-1,0
1730003,398,-8293,69,0,-1,-1,0
1730008,388,-8292,68,0,0,-1,0
1730013,387,-8292,73,0,0,-1,0
1730018,390,-8291,73,0,0,-1,0
1730023,390,-8291,72,0,0,-1,0
1730028,397,-8292,76,0,0,-1,0
1730033,401,-8291,88,0,0,-1,0
1730038,398,-8290,93,0,0,-1,0
1730043,395,-8292,108,0,0,-1,0
1730048,391,-8292,127,0,0,-1,0
1730053,384,-8294,133,0,-1,-1,0
1730058,380,-8292,132,-1,-1,-1,0
1730063,377,-8290,134,0,-1,-1,0
1730068,374,-8290,129,0,-1,-1,0
1730073,379,-8292,131,0,-1,-1,0
1730078,381,-8295,131,-1,-2,-1,0
1730083,382,-8295,129,-1,-2,-1,0
1730088,381,-8294,141,-1,-2,-1,0
1730093,376,-8294,148,-1,-2,-1,0
1730098,371,-8293,153,-1,-2,-1,0
1730103,366,-8292,164,-1,-3,-1,0
1730108,363,-8291,165,-1,-3,-1,0
1730113,361,-8292,163,-1,-3,-1,0
1730118,361,-8293,163,-1,-2,-1,0
1730123,362,-8296,146,-1,-2,-1,0
1730128,369,-8296,135,-1,-2,-1,0
1730133,378,-8297,125,-1,-1,-1,0
1730138,383,-8298,114,-1,-1,-1,0
1730143,383,-8298,116,-1,-1,-1,0
1730148,383,-8297,122,-1,0,-1,0
1730153,379,-8298,126,-1,0,-1,0
1730158,373,-8297,135,-1,0,-1,0
1730163,367,-8296,142,-1,-1,-1,0
1730168,363,-8295,134,-1,0,-1,0
1730173,362,-8295,133,-1,-1,-1,0
1730178,368,-8295,129,-1,-1,-1,0
1730183,373,-8295,126,-1,-1,-1,0
1730188,381,-8296,124,-1,-1,-1,0
1730193,385,-8295,121,-1,-1,-1,0
1730198,388,-8294,117,-1,-1,-1,0
1730203,387,-8292,122,-1,-1,-1,0
1730208,387,-8290,121,-1,-1,-1,0
1730213,385,-8291,122,-1,-1,-1,0
1730218,388,-8290,123,-1,-1,-1,0
1730223,394,-8290,118,-1,-1,-1,0
1730228,402,-8293,108,-1,-1,-1,0
1730233,412,-8296,102,-1,-1,-1,0
1730238,419,-8297,91,-1,-1,-1,0
1730243,422,-8298,82,-1,-1,-1,0
1730248,428,-8294,79,-1,0,-1,0
1730253,431,-8293,73,-1,0,-1,0
1730258,431,-8290,73,-1,0,-1,0
1730263,434,-8289,81,-1,0,-1,0
1730268,434,-8291,85,-1,0,-1,0
1730273,437,-8291,88,-1,-1,-1,0
1730278,444,-8293,92,-1,-1,-1,0
1730283,447,-8294,83,-1,-1,-1,0
1730288,454,-8294,80,-1,-2,-1,0
1730293,459,-8295,77,-1,-2,-1,0
1730298,454,-8296,66,-1,-2,-1,0
1730303,450,-8294,58,-1,-2,-1,0
1730308,438,-8293,56,-1,-1,-1,0
1730313,423,-8293,52,-1,-1,-1,0
1730318,407,-8295,58,-1,-1,-1,0
1730323,390,-8297,61,-1,-1,-1,0
1730328,377,-8297,66,-1,-1,-1,0
1730333,371,-8297,76,-1,-1,-1,0
1730338,368,-8299,84,-1,-1,-1,0
1730343,368,-8295,93,-1,-1,-1,0
1730348,369,-8294,98,0,-1,-1,0
1730353,368,-8293,92,0,-1,-1,0
1730358,366,-8291,90,-1,-2,-1,0
1730363,365,-8289,90,-1,-1,-1,0
1730368,361,-8288,89,-1,-2,-1,0
1730373,360,-8291,93,-1,-2,-1,0
1730378,362,-8292,103,-1,-2,-1,0
1730383,361,-8294,104,-1,-2,-1,0
1730388,370,-8295,107,-1,-2,-1,0
1730393,385,-8294,104,-1,-2,-1,0
1730398,399,-8294,98,-1,-2,-1,0
1730403,412,-8294,99,-1,-2,-1,0
1730408,418,-8294,95,-1,-2,-1,0
1730413,417,-8294,91,-1,-2,-1,0
1730418,412,-8297,98,-1,-3,-1,0
1730423,403,-8298,96,-1,-2,-1,0
1730428,395,-8297,95,-1,-2,-1,0
1730433,392,-8293,98,-1,-3,-1,0
1730438,392,-8294,93,-1,-3,-1,0
1730443,395,-8294,89,-1,-3,-1,0
1730448,402,-8293,86,-1,-2,-1,0
1730453,407,-8294,76,-1,-2,-1,0
1730458,410,-8293,63,-1,-2,-1,0
1730463,410,-8290,57,-1,-2,-1,0
1730468,405,-8291,57,-1,-2,-1,0
1730473,396,-8292,63,-1,-1,-1,0
1730478,385,-8293,76,-1,-1,-1,0
1730483,377,-8295,84,-1,-1,-1,0
1730488,373,-8296,93,-1,-1,-1,0
1730493,373,-8296,97,-1,-1,-1,0
1730498,375,-8296,93,-1,-1,-1,0
1730503,384,-8295,96,-1,-1,-1,0
1730508,395,-8295,90,-1,-1,-1,0
1730513,402,-8292,84,-1,-1,-1,0
1730518,406,-8291,80,-1,-1,-1,0
1730523,401,-8291,82,-1,-1,-1,0
1730528,393,-8290,84,-1,-1,-1,0
1730533,390,-8291,91,-1,-1,-1,0
1730538,384,-8291,95,-1,-1,-1,0
1730543,380,-8289,91,-1,-1,-1,0
1730548,383,-8287,85,-1,-1,-1,0
1730553,390,-8287,84,-1,0,-1,0
1730558,394,-8286,84,-1,0,-1,0
1730563,405,-8282,89,-1,0,-1,0
1730568,411,-8281,92,-1,0,-1,0
1730573,409,-8283,97,-1,0,-1,0
1730578,410,-8285,106,-1,0,-1,0
1730583,405,-8286,107,-1,0,-1,0
1730588,398,-8287,115,-1,0,-1,0
1730593,394,-8291,120,-1,-1,-1,0
1730598,390,-8296,120,-1,-1,-1,0
1730603,394,-8295,123,-1,-1,-1,0
1730608,398,-8294,123,-1,-1,-1,0
1730613,405,-8292,119,-1,-2,-1,0
1730618,413,-8295,117,-1,-2,-1,0
1730623,418,-8300,115,-1,-2,-1,0
1730628,420,-8298,113,-1,-2,-1,0
1730633,423,-8296,109,-1,-2,-1,0
1730638,423,-8296,106,-1,-2,-1,0
1730643,419,-8295,110,-1,-2,-1,0
1730648,416,-8293,115,-1,-2,-1,0
1730653,409,-8294,120,-1,-2,-1,0
1730658,404,-8290,118,-1,-2,-1,0
1730663,405,-8292,112,-1,-2,-1,0
1730668,406,-8292,108,-1,-2,-1,0
1730673,405,-8294,103,-1,-2,-1,0
1730678,402,-8295,104,-1,-2,-1,0
1730683,395,-8291,104,-1,-2,-1,0
1730688,393,-8288,99,-1,-2,-1,0
1730693,389,-8285,100,-1,-1,-1,0
1730698,389,-8286,98,-1,-1,-1,0
1730703,392,-8285,92,-1,-1,-1,0
1730708,394,-8285,88,-1,-2,-1,0
1730713,396,-8286,89,-1,-2,-1,0
1730718,397,-8287,89,-1,-2,-1,0
1730723,400,-8288,85,-1,-2,-1,0
1730728,405,-8289,75,-1,-2,-1,0
1730733,413,-8287,70,-1,-1,-1,0
1730738,421,-8287,65,-1,-1,-1,0
1730743,426,-8291,53,-1,-2,-1,0
1730748,435,-8292,43,-1,-1,-1,0
1730753,442,-8293,36,-1,-1,-1,0
1730758,448,-8292,25,-1,-1,-1,0
1730763,455,-8294,20,-1,-1,-1,0
1730768,457,-8294,15,-1,-1,-1,0
1730773,458,-8294,12,-1,-1,-1,0
1730778,461,-8294,19,-1,-1,-1,0
1730783,463,-8297,19,-1,-1,-1,0
1730788,463,-8300,21,-1,-2,-1,0
1730793,462,-8301,23,-1,-2,-1,0
1730798,458,-8300,20,-1,-2,-1,0
1730803,450,-8299,17,-1,-2,-1,0
1730808,442,-8301,20,-1,-2,-1,0
1730813,432,-8299,17,-1,-2,-1,0
1730818,421,-8297,11,-1,-2,-1,0
1730823,413,-8297,1,-1,-1,-1,0
1730828,404,-8297,-7,0,-1,-1,0
1730833,398,-8300,-18,0,0,-1,0
1730838,393,-8303,-24,0,0,-1,0
1730843,392,-8301,-28,0,0,-1,0
1730848,392,-8302,-29,0,1,-1,0
1730853,395,-8300,-22,0,1,-1,0
1730858,393,-8301,-21,0,1,-1,0
1730863,392,-8300,-15,0,0,-1,0
1730868,390,-8300,-11,0,0,-1,0
1730873,386,-8299,-5,0,0,-1,0
1730878,385,-8297,-1,0,0,-1,0
1730883,380,-8295,0,0,0,-1,0
1730888,381,-8297,2,0,0,-1,0
1730893,380,-8298,8,0,0,-1,0
1730898,381,-8297,15,0,0,-1,0
1730903,382,-8298,20,0,0,-1,0
1730908,387,-8296,25,0,0,-1,0
1730913,393,-8294,27,0,0,-1,0
1730918,400,-8295,31,0,0,-1,0
1730923,404,-8292,37,0,1,-1,0
1730928,409,-8291,35,0,1,-1,0
1730933,413,-8290,33,0,1,-1,0
1730938,418,-8291,32,0,1,-1,0
1730943,421,-8291,29,0,1,-1,0
1730948,425,-8291,35,0,1,-1,0
1730953,430,-8289,41,0,1,-1,0
1730958,433,-8288,46,0,2,-1,0
1730963,434,-8288,44,0,2,-1,0
1730968,435,-8290,44,0,2,-1,0
1730973,433,-8288,45,0,2,-1,0
1730978,433,-8287,48,0,2,-1,0
1730983,434,-8289,55,0,2,-1,0
1730988,433,-8291,60,0,1,-1,0
1730993,430,-8290,63,0,1,-1,0
1730998,430,-8293,69,0,1,-1,0
1731003,433,-8293,74,0,1,-1,0
1731008,438,-8294,73,0,1,-1,0
1731013,439,-8294,80,0,1,-1,0
1731018,436,-8292,85,0,1,-1,0
1731023,433,-8290,87,0,1,-1,0
1731028,425,-8290,88,0,1,-1,0
1731033,419,-8292,92,0,1,-1,0
1731038,416,-8293,93,0,1,-1,0
1731043,409,-8295,93,0,1,-1,0
1731048,405,-8295,95,0,1,-1,0
1731053,404,-8294,101,0,2,-1,0
1731058,400,-8294,110,0,1,-1,0
1731063,400,-8297,119,0,1,-1,0
1731068,404,-8297,122,0,1,-1,0
1731073,405,-8295,125,0,1,-1,0
1731078,407,-8298,127,0,1,-1,0
1731083,408,-8296,125,0,0,-1,0
1731088,409,-8293,128,0,0,-1,0
1731093,410,-8290,127,0,0,-1,0
1731098,407,-8288,130,0,0,-1,0
1731103,402,-8289,131,0,-1,-1,0
1731108,401,-8289,134,0,-1,-1,0
1731113,399,-8290,136,0,0,-1,0
1731118,399,-8293,132,0,-1,-1,0
1731123,399,-8293,138,0,0,-1,0
1731128,400,-8290,140,0,0,-1,0
1731133,405,-8291,137,0,0,-1,0
1731138,413,-8288,136,0,0,-1,0
1731143,423,-8287,137,-1,0,-1,0
1731148,435,-8284,140,-1,1,-1,0
1731153,449,-8285,139,-1,1,-1,0
1731158,466,-8287,137,-1,0,-1,0
1731163,481,-8289,140,-1,0,-1,0
1731168,490,-8290,148,-1,-1,-1,0
1731173,495,-8289,155,-1,-1,-1,0
1731178,505,-8288,160,-1,-2,-1,0
1731183,510,-8286,165,-1,-2,-1,0
1731188,517,-8285,155,-1,-2,-1,0
1731193,528,-8286,149,-1,-2,-1,0
1731198,536,-8289,142,-1,-3,-1,0
1731203,544,-8290,132,-1,-3,-1,0
1731208,549,-8289,122,-1,-3,-1,0
1731213,550,-8290,114,-1,-3,-1,0
1731218,547,-8288,109,-1,-3,-1,0
1731223,548,-8287,101,-1,-3,-1,0
1731228,540,-8285,95,-1,-3,-1,0
1731233,535,-8285,85,-1,-2,-1,0
1731238,531,-8285,71,-1,-2,-1,0
1731243,525,-8283,57,-1,-2,-1,0
1731248,520,-8281,49,-1,-2,-1,0
1731253,517,-8280,45,-1,-2,-1,0
1731258,513,-8282,42,-1,-2,-1,0
1731263,514,-8282,41,-1,-2,-1,0
1731268,512,-8283,46,-1,-2,-1,0
1731273,513,-8285,57,-1,-2,-1,0
1731278,514,-8285,66,-1,-1,0,0
1731283,521,-8283,73,-1,-1,-1,0
1731288,522,-8282,76,-1,-2,-1,0
1731293,520,-8283,77,-1,-2,-1,0
1731298,518,-8286,75,-1,-2,-1,0
1731303,510,-8287,72,-1,-2,0,0
1731308,507,-8286,69,-1,-2,0,0
1731313,500,-8287,73,-1,-2,-1,0
1731318,495,-8290,77,-1,-2,-1,0
1731323,491,-8289,86,-1,-2,-1,0
1731328,483,-8290,90,-1,-2,-1,0
1731333,471,-8289,94,-1,-2,-1,0
1731338,459,-8288,93,-1,-2,0,0
1731343,450,-8292,91,-1,-2,-1,0
1731348,444,-8293,87,-1,-2,-1,0
1731353,436,-8291,79,-1,-2,-1,0
1731358,433,-8293,72,-1,-2,-1,0
1731363,430,-8293,71,-1,-2,-1,0
1731368,431,-8294,65,-1,-1,-1,0
1731373,431,-8293,60,-1,-1,-1,0
1731378,432,-8294,67,-1,-1,-1,0
1731383,430,-8295,75,-1,-1,-1,0
1731388,430,-8294,75,-1,-1,-1,0
1731393,435,-8294,75,-1,-1,-1,0
1731398,441,-8295,71,-1,-1,-1,0
1731403,447,-8297,72,-1,-1,-1,0
1731408,452,-8298,70,-1,-1,-1,0
1731413,450,-8298,70,-1,-1,-1,0
1731418,451,-8297,70,-1,-1,-1,0
1731423,458,-8294,74,-1,-1,-1,0
1731428,465,-8293,78,-1,-1,-1,0
1731433,473,-8294,78,-1,-1,-1,0
1731438,481,-8295,75,-1,-2,0,0
1731443,484,-8293,76,-1,-2,-1,0
1731448,489,-8292,76,-1,-2,-1,0
1731453,497,-8291,74,-1,-2,-1,0
1731458,498,-8290,68,-1,-2,0,0
1731463,497,-8289,64,-1,-2,0,0
1731468,496,-8289,57,-1,-2,0,0
1731473,498,-8288,50,-1,-1,0,0
1731478,499,-8289,43,-1,-1,0,0
1731483,506,-8288,45,-1,-1,0,0
1731488,513,-8288,43,-1,-1,0,0
1731493,516,-8287,43,-1,-1,0,0
1731498,517,-8283,39,0,-1,0,0
1731503,513,-8285,37,0,-1,0,0
1731508,508,-8288,30,0,-1,0,0
1731513,503,-8287,23,0,-1,0,0
1731518,501,-8288,18,0,-1,0,0
1731523,498,-8289,13,0,-1,0,0
1731528,493,-8291,10,0,-1,0,0
1731533,489,-8291,15,0,-1,0,0
1731538,486,-8291,15,0,-1,0,0
1731543,482,-8291,12,0,-1,0,0
1731548,477,-8292,13,0,-1,0,0
1731553,476,-8293,13,0,-1,0,0
1731558,471,-8293,10,0,0,0,0
1731563,464,-8294,4,0,0,0,0
1731568,459,-8294,3,0,0,0,0
1731573,455,-8294,2,0,0,0,0
1731578,448,-8297,4,0,0,0,0
1731583,440,-8296,9,0,0,0,0
1731588,436,-8296,17,0,0,0,0
1731593,434,-8294,27,0,1,0,0
1731598,428,-8294,36,0,1,0,0
1731603,426,-8293,42,0,1,0,0
1731608,426,-8293,50,0,1,0,0
1731613,425,-8294,63,0,1,0,0
1731618,426,-8297,80,0,0,0,0
1731623,430,-8298,92,0,0,0,0
1731628,430,-8296,102,0,0,0,0
1731633,431,-8293,107,0,0,0,0
1731638,431,-8291,114,0,0,0,0
1731643,432,-8288,117,0,-1,0,0
1731648,434,-8287,115,0,-1,0,0
1731653,437,-8288,111,0,-1,0,0
1731658,439,-8288,109,0,-1,0,0
1731663,441,-8291,105,0,-1,0,0
1731668,439,-8294,103,0,-1,0,0
1731673,441,-8295,99,0,-1,-1,0
1731678,441,-8294,96,0,-1,0,0
1731683,440,-8293,92,0,-1,0,0
1731688,439,-8292,81,0,-1,-1,0
1731693,439,-8291,82,0,-1,-1,0
1731698,439,-8294,83,0,-1,0,0
1731703,439,-8293,79,0,-1,0,0
1731708,438,-8292,69,0,-1,-1,0
1731713,437,-8293,65,0,-1,0,0
1731718,438,-8294,68,0,0,-1,0
1731723,438,-8294,67,0,0,-1,0
1731728,438,-8294,64,0,0,0,0
1731733,443,-8292,62,0,0,-1,0
1731738,449,-8292,57,0,0,-1,0
1731743,454,-8292,62,0,0,-1,0
1731748,457,-8290,61,0,0,-1,0
1731753,453,-8292,59,0,1,-1,0
1731758,447,-8291,64,0,1,-1,0
1731763,441,-8292,71,0,1,-1,0
1731768,438,-8291,75,0,0,-1,0
1731773,433,-8292,79,0,0,-1,0
1731778,433,-8292,82,0,0,-1,0
1731783,432,-8293,85,0,0,-1,0
1731788,432,-8294,82,0,0,-1,0
1731793,435,-8293,80,0,0,-1,0
1731797,438,-8293,83,0,0,-1,0
1731802,441,-8292,81,0,0,-1,0
1731808,443,-8291,81,0,1,-1,0
1731813,440,-8290,89,0,0,-1,0
1731818,440,-8288,90,0,0,-1,0
1731823,440,-8286,96,0,0,-1,0
1731828,440,-8285,97,0,0,-1,0
1731832,442,-8286,101,0,0,-1,0
1731838,443,-8288,106,0,0,-1,0
1731843,446,-8292,104,0,0,-1,0
1731847,449,-8294,96,0,0,-1,0
1731853,451,-8294,91,0,0,-1,0
1731858,450,-8295,89,0,0,-1,0
1731863,449,-8293,94,0,0,-1,0
1731867,447,-8292,88,0,0,-1,0
1731873,445,-8291,85,0,0,-1,0
1731878,447,-8289,83,0,0,-1,0
1731882,452,-8291,76,0,1,-1,0
1731888,457,-8294,69,0,1,-1,0
1731893,460,-8294,64,0,1,-1,0
1731897,460,-8292,64,0,1,-1,0
1731903,461,-8291,67,0,1,-1,0
1731908,460,-8293,70,0,1,-1,0
1731912,454,-8294,72,0,2,-1,0
1731917,449,-8297,78,0,1,-1,0
1731923,443,-8297,84,0,1,-1,0
1731928,443,-8295,93,0,1,-1,0
1731933,448,-8293,92,0,1,-1,0
1731938,457,-8293,92,0,1,-1,0
1731942,466,-8293,90,0,1,-1,0
1731947,470,-8297,97,0,0,-1,0
1731953,476,-8298,101,0,0,-1,0
1731958,474,-8297,103,0,0,-1,0
1731963,470,-8297,107,0,0,0,0
1731967,466,-8295,109,0,0,-1,0
1731973,463,-8290,111,0,0,0,0
1731978,461,-8288,116,0,0,0,0
1731983,465,-8288,117,0,0,-1,0
1731988,465,-8287,115,0,0,0,0
1731992,472,-8287,108,0,0,0,0
1731997,476,-8288,107,0,0,-1,0
1732002,478,-8286,107,0,0,0,0
1732007,483,-8288,106,0,0,0,0
1732012,480,-8289,108,0,1,-1,0
1732018,476,-8290,111,0,1,-1,0
1732022,473,-8291,121,0,1,-1,0
1732028,468,-8293,122,0,1,0,0
1732033,468,-8294,127,0,1,-1,0
1732037,466,-8294,127,0,1,0,0
1732042,466,-8294,127,0,0,0,0
1732047,471,-8292,132,0,0,0,0
1732052,478,-8291,131,0,0,0,0
1732057,481,-8289,133,0,0,0,0
1732062,483,-8289,136,0,0,-1,0
1732067,481,-8291,130,0,0,0,0
1732072,478,-8291,128,0,0,0,0
1732077,474,-8291,123,0,0,-1,0
1732082,470,-8291,124,0,0,0,0
1732087,468,-8289,122,0,0,0,0
1732092,465,-8291,121,0,0,0,0
1732097,466,-8291,116,-1,0,0,0
1732102,471,-8290,113,0,0,0,0
1732107,473,-8290,110,0,0,0,0
1732112,475,-8292,108,0,0,-1,0
1732117,474,-8292,110,0,0,0,0
1732122,468,-8292,107,-1,0,0,0
1732127,464,-8291,108,-1,0,0,0
1732132,459,-8289,114,-1,0,-1,0
1732137,451,-8289,128,-1,0,0,0
1732142,448,-8290,139,-1,0,0,0
1732147,451,-8289,149,-1,-1,0,0
1732152,455,-8287,160,-1,-1,0,0
1732157,461,-8285,172,-1,-1,0,0
1732162,468,-8286,181,-1,-2,0,0
1732167,478,-8286,189,-1,-2,0,0
1732172,485,-8286,193,-1,-2,0,0
1732177,492,-8287,187,-1,-2,0,0
1732182,494,-8289,181,-1,-2,0,0
1732187,497,-8289,176,-1,-2,0,0
1732192,498,-8289,172,-1,-2,0,0
1732197,499,-8290,176,-1,-2,0,0
1732202,500,-8291,180,-1,-2,0,0
1732207,501,-8290,185,-1,-2,0,0
1732212,502,-8286,180,-1,-2,0,0
1732217,508,-8286,168,-1,-2,0,0
1732222,513,-8286,155,-1,-2,0,0
1732227,515,-8288,142,-1,-2,0,0
1732232,513,-8288,127,-1,-3,0,0
1732237,508,-8288,114,-1,-2,0,0
1732242,501,-8288,100,-1,-2,0,0
1732247,497,-8291,89,-1,-2,0,0
1732252,493,-8290,83,-1,-2,0,0
1732257,487,-8291,81,-1,-2,0,0
1732262,480,-8290,72,-1,-2,0,0
1732267,480,-8287,65,-1,-2,0,0
1732272,479,-8286,59,-1,-1,0,0
1732277,477,-8286,55,-1,-1,0,0
1732282,470,-8287,49,-1,-1,0,0
1732287,468,-8287,44,-1,-1,0,0
1732292,463,-8287,46,-1,-1,0,0
1732297,454,-8287,44,-1,-1,0,0
1732302,448,-8288,42,-1,-1,0,0
1732307,442,-8287,46,-1,0,0,0
1732312,431,-8288,48,-1,0,0,0
1732317,424,-8289,49,-1,-1,0,0
1732322,422,-8288,50,-1,-1,0,0
1732327,421,-8286,56,-1,-1,0,0
1732332,420,-8285,53,-1,-1,0,0
1732337,420,-8288,56,-1,-1,0,0
1732342,423,-8289,53,-1,-1,0,0
1732347,421,-8289,50,-1,-1,0,0
1732352,417,-8290,46,-1,-1,0,0
1732357,411,-8292,45,-1,-1,0,0
1732362,405,-8295,41,-1,-1,0,0
1732367,401,-8297,40,-1,0,0,0
1732372,395,-8297,35,-1,0,0,0
1732377,392,-8298,34,-1,0,0,0
1732382,391,-8298,31,-1,0,0,0
1732387,392,-8296,30,-1,0,0,0
1732392,396,-8297,29,-1,0,0,0
1732397,399,-8296,29,-1,0,0,0
1732402,403,-8298,31,-1,0,0,0
1732407,407,-8299,29,-1,0,0,0
1732412,403,-8299,29,-1,0,0,0
1732417,402,-8299,30,0,0,-1,0
1732422,397,-8300,31,0,0,0,0
1732427,390,-8300,31,0,-1,0,0
1732432,388,-8300,33,0,0,0,0
1732437,388,-8301,26,0,0,0,0
1732442,393,-8300,24,0,0,0,0
1732447,404,-8297,21,0,0,0,0
1732452,413,-8300,16,0,0,0,0
1732457,423,-8300,12,0,0,0,0
1732462,427,-8297,13,0,0,0,0
1732467,429,-8294,6,0,0,0,0
1732472,430,-8293,5,0,0,0,0
1732477,432,-8293,13,0,0,0,0
1732482,432,-8291,13,0,1,0,0
1732487,434,-8292,3,0,1,0,0
1732492,435,-8291,-4,0,1,0,0
1732497,436,-8289,-3,0,1,0,0
1732502,436,-8286,-7,0,1,0,0
1732507,434,-8286,-7,0,0,0,0
1732512,433,-8283,-6,0,0,0,0
1732517,433,-8281,-1,0,0,0,0
1732522,433,-8280,10,0,0,0,0
1732527,434,-8282,26,0,0,0,0
1732532,437,-8286,37,0,0,0,0
1732537,442,-8287,42,0,0,0,0
1732542,447,-8291,43,0,0,0,0
1732547,451,-8291,43,0,0,0,0
1732552,449,-8293,41,0,0,0,0
1732557,446,-8293,43,0,0,0,0
1732562,444,-8293,49,0,0,0,0
1732567,439,-8293,57,0,0,0,0
1732572,442,-8295,67,0,0,0,0
1732577,445,-8296,76,0,0,0,0
1732582,452,-8296,76,0,1,0,0
1732587,462,-8297,72,0,1,0,0
1732592,470,-8296,68,0,0,0,0
1732597,474,-8296,62,0,0,0,0
1732602,475,-8298,58,0,0,0,0
1732607,475,-8302,54,0,0,0,0
1732612,471,-8301,62,0,0,0,0
1732617,463,-8300,67,0,0,0,0
1732622,455,-8300,69,0,0,0,0
1732627,452,-8301,71,0,0,0,0
1732632,451,-8298,73,0,0,0,0
1732637,455,-8297,73,0,0,0,0
1732642,458,-8298,68,0,1,0,0
1732647,458,-8299,69,0,1,0,0
1732652,459,-8298,74,0,1,0,0
1732657,458,-8298,76,0,1,0,0
1732662,456,-8296,82,0,2,0,0
1732667,452,-8293,91,0,2,0,0
1732672,451,-8289,103,0,2,0,0
1732677,446,-8288,115,0,2,0,0
1732682,445,-8287,130,0,2,0,0
1732687,445,-8285,135,0,2,0,0
1732692,447,-8283,144,0,2,0,0
1732697,450,-8282,154,0,2,0,0
1732702,456,-8283,161,0,1,0,0
1732707,457,-8285,167,0,1,0,0
1732712,457,-8287,172,0,1,0,0
1732717,457,-8288,185,0,1,0,0
1732722,454,-8290,195,0,1,0,0
1732727,452,-8287,205,0,0,0,0
1732732,445,-8285,213,0,0,0,0
1732737,442,-8285,224,-1,0,0,0
1732742,438,-8283,233,-1,0,0,0
1732747,434,-8282,239,-1,0,0,0
1732752,432,-8282,235,-1,0,0,0
1732757,431,-8284,229,-1,0,0,0
1732762,433,-8284,223,-1,0,0,0
1732767,432,-8282,220,-1,0,0,0
1732772,432,-8284,225,-1,0,0,0
1732777,431,-8288,227,-1,0,0,0
1732782,430,-8289,230,-1,-1,0,0
1732787,431,-8291,231,-1,-1,0,0
1732792,438,-8290,233,-1,-1,0,0
1732797,442,-8288,229,-1,-1,0,0
1732802,448,-8288,226,-1,-2,0,0
1732807,451,-8290,222,-1,-2,0,0
1732812,450,-8293,212,-1,-2,0,0
1732817,446,-8295,199,-1,-2,0,0
1732822,444,-8297,186,-1,-2,0,0
1732827,441,-8298,181,-1,-2,0,0
1732832,435,-8296,171,-1,-2,0,0
1732837,433,-8294,161,-1,-2,0,0
1732842,431,-8293,152,-1,-2,0,0
1732847,431,-8295,146,-1,-2,0,0
1732852,433,-8294,138,-1,-2,0,0
1732857,435,-8294,129,-1,-2,0,0
1732862,436,-8293,121,-1,-2,0,0
1732867,434,-8292,111,-1,-2,0,0
1732872,434,-8292,99,-1,-2,0,0
1732877,431,-8293,85,-1,-2,0,0
1732882,428,-8291,74,-1,-2,0,0
1732887,426,-8290,65,-1,-2,0,0
1732892,427,-8291,60,-1,-2,0,0
1732897,425,-8290,61,-1,-2,0,0
1732902,428,-8291,57,-1,-2,0,0
1732907,428,-8291,53,-1,-2,0,0
1732912,428,-8291,52,-1,-2,0,0
1732917,431,-8293,52,-1,-2,0,0
1732922,427,-8294,41,-1,-2,0,0
1732927,423,-8294,35,-1,-2,0,0
1732932,422,-8290,31,-1,-2,0,0
1732937,421,-8288,28,-1,-2,0,0
1732942,419,-8290,27,-1,-2,0,0
1732947,416,-8290,23,-1,-2,0,0
1732952,417,-8290,22,-1,-2,0,0
1732957,420,-8291,23,-1,-2,0,0
1732962,420,-8292,19,-1,-2,0,0
1732967,420,-8292,18,-1,-2,0,0
1732972,421,-8291,18,-1,-2,0,0
1732977,422,-8290,8,-1,-2,0,0
1732982,420,-8287,3,-1,-2,0,0
1732987,421,-8287,2,-1,-2,0,0
1732992,424,-8289,0,-1,-2,0,0
1732997,429,-8291,-1,-1,-2,0,0
1733002,432,-8292,0,-1,-1,0,0
1733007,439,-8294,2,-1,-1,0,0
1733012,440,-8294,4,-1,-1,0,0
1733017,443,-8294,-2,-1,-1,0,0
1733022,445,-8295,-10,0,-1,0,0
1733027,445,-8296,-14,-1,-1,0,0
1733032,441,-8300,-17,0,-1,0,0
1733037,436,-8297,-21,0,-1,0,0
1733042,428,-8297,-19,0,-1,0,0
1733047,420,-8295,-13,0,-1,0,0
1733052,411,-8294,-7,0,-1,0,0
1733057,404,-8294,-2,0,-1,0,0
1733062,400,-8294,-1,0,0,0,0
1733067,398,-8295,-1,0,0,0,0
1733072,396,-8297,6,0,0,0,0
1733077,391,-8297,11,0,0,0,0
1733082,387,-8297,19,0,0,0,0
1733087,383,-8293,27,0,0,0,0
1733092,378,-8293,30,0,1,0,0
1733097,375,-8293,37,0,1,0,0
1733102,370,-8292,42,0,1,0,0
1733107,365,-8295,43,0,0,0,0
1733112,361,-8299,55,0,0,0,0
1733117,360,-8300,60,0,0,0,0
1733122,362,-8300,67,0,0,0,0
1733127,361,-8299,75,0,0,0,0
1733132,361,-8299,74,0,0,0,0
1733137,361,-8297,77,0,0,0,0
1733142,361,-8297,76,0,0,0,0
1733147,361,-8297,80,0,0,0,0
1733152,362,-8294,88,0,0,0,0
1733157,362,-8293,93,0,0,0,0
1733162,359,-8293,101,0,0,0,0
1733167,355,-8290,105,0,0,0,0
1733172,357,-8289,110,0,0,0,0
1733177,360,-8293,113,0,-1,0,0
1733182,361,-8293,109,0,-1,0,0
1733187,363,-8292,107,0,-1,0,0
1733192,363,-8295,105,0,0,0,0
1733197,362,-8295,103,-1,-1,0,0
1733202,362,-8298,104,-1,-1,0,0
1733207,363,-8297,101,-1,0,0,0
1733212,361,-8297,103,0,0,-1,0
1733217,364,-8298,109,-1,0,0,0
1733222,367,-8300,111,-1,0,0,0
1733227,372,-8300,111,-1,0,0,0
1733232,377,-8298,110,-1,-1,0,0
1733237,380,-8293,111,-1,-1,0,0
1733242,389,-8294,108,-1,-1,0,0
1733247,399,-8295,107,-1,-1,0,0
1733252,407,-8298,109,-1,-1,0,0
1733257,411,-8298,111,-1,-1,0,0
1733262,410,-8296,109,-1,-1,0,0
1733267,408,-8293,109,-1,-1,-1,0
1733272,406,-8291,114,-1,-1,0,0
1733277,403,-8290,112,-1,-1,0,0
1733282,400,-8288,104,-1,-1,0,0
1733287,399,-8288,91,-1,-2,0,0
1733292,400,-8288,83,-1,-2,0,0
1733297,399,-8288,70,-1,-2,0,0
1733302,397,-8285,63,-1,-2,0,0
1733307,400,-8284,59,-1,-2,0,0
1733312,398,-8283,55,-1,-2,0,0
1733317,396,-8282,52,-1,-2,0,0
1733322,394,-8284,48,-1,-1,0,0
1733327,395,-8289,43,-1,-1,0,0
1733332,395,-8291,41,-1,-1,0,0
1733337,394,-8290,38,-1,-1,0,0
1733342,395,-8287,31,-1,-1,0,0
1733347,400,-8287,28,-1,-2,0,0
1733352,400,-8290,29,-1,-2,0,0
1733357,402,-8290,30,-1,-2,0,0
1733362,404,-8291,34,-1,-1,0,0
1733367,407,-8293,32,-1,-2,0,0
1733372,407,-8296,25,0,-2,0,0
1733377,404,-8296,17,0,-2,0,0
1733382,400,-8297,3,0,-2,0,0
1733387,395,-8295,-12,0,-2,0,0
1733392,386,-8296,-32,0,-2,0,0
1733397,376,-8295,-47,0,-2,0,0
1733402,367,-8295,-58,0,-2,0,0
1733407,355,-8297,-68,0,-2,-1,0
1733412,344,-8296,-74,0,-1,0,0
1733417,333,-8295,-83,0,-1,-1,0
1733422,322,-8297,-96,0,-1,-1,0
1733427,312,-8298,-108,0,0,-1,0
1733432,304,-8298,-114,0,0,-1,0
1733437,299,-8298,-119,0,0,-1,0
1733442,297,-8298,-120,0,1,-1,0
1733447,299,-8298,-119,0,1,-1,0
1733452,298,-8299,-111,0,1,-1,0
1733457,297,-8297,-101,0,2,-1,0
1733462,299,-8295,-93,0,2,-1,0
1733467,305,-8295,-80,0,2,-1,0
1733472,310,-8294,-67,0,2,-1,0
1733477,318,-8292,-53,0,3,-1,0
1733482,325,-8289,-35,0,3,-1,0
1733487,333,-8290,-19,0,3,-1,0
1733492,345,-8292,-3,0,3,-1,0
1733497,358,-8296,9,0,3,-1,0
1733502,373,-8296,25,0,3,-1,0
1733507,383,-8294,41,0,3,-1,0
1733512,393,-8294,53,0,3,-1,0
1733517,403,-8291,70,0,3,-1,0
1733522,405,-8292,81,0,3,-1,0
1733527,406,-8292,95,0,2,-1,0
1733532,405,-8292,110,0,2,-1,0
1733537,405,-8295,131,0,2,-1,0
1733542,409,-8297,149,0,2,-1,0
1733547,414,-8295,164,0,2,-1,0
1733552,419,-8291,173,0,2,-1,0
1733557,422,-8288,184,0,1,-1,0
1733562,427,-8287,198,0,1,-1,0
1733567,433,-8288,212,0,0,-1,0
1733572,435,-8286,230,0,0,-1,0
1733577,439,-8288,245,0,0,-1,0
1733582,440,-8291,254,0,-1,-1,0
1733587,442,-8292,262,0,-1,-1,0
1733592,444,-8292,273,0,-1,-1,0
1733597,446,-8288,280,0,-1,-1,0
1733602,448,-8288,280,0,-2,-1,0
1733607,450,-8289,281,0,-2,-1,0
1733612,449,-8288,281,-1,-2,-1,0
1733617,447,-8287,281,-1,-2,-1,0
1733622,440,-8287,278,-1,-3,-1,0
1733627,431,-8287,275,-1,-3,-1,0
1733632,415,-8287,261,-1,-3,-1,0
1733637,398,-8289,249,-1,-3,-1,0
1733642,379,-8290,238,-1,-3,-1,0
1733647,366,-8290,224,-1,-3,-1,0
1733652,351,-8291,206,-1,-3,-1,0
1733657,339,-8292,188,-1,-3,-1,0
1733662,332,-8291,177,-1,-2,-1,0
1733667,331,-8291,172,-1,-2,-1,0
1733672,337,-8287,170,-1,-2,-1,0
1733677,342,-8284,169,-1,-2,-1,0
1733682,346,-8286,170,-1,-2,-1,0
1733687,354,-8291,173,-1,-2,-1,0
1733692,360,-8288,179,-1,-2,-1,0
1733697,368,-8287,178,-1,-3,-1,0
1733702,376,-8286,177,-1,-3,-1,0
1733707,384,-8286,175,-1,-3,-1,0
1733712,392,-8288,179,-1,-3,-1,0
1733717,400,-8288,185,-1,-4,-1,0
1733722,406,-8290,185,-1,-4,-1,0
1733727,414,-8290,188,-1,-4,-1,0
1733732,425,-8291,185,-1,-4,-1,0
1733737,435,-8291,174,-1,-4,-1,0
1733742,440,-8293,164,-1,-5,-1,0
1733747,441,-8293,145,-1,-5,-1,0
1733752,444,-8291,127,-1,-5,-1,0
1733757,446,-8288,112,-1,-5,-1,0
1733762,451,-8287,97,-1,-5,-1,0
1733767,451,-8289,85,-1,-5,-1,0
1733772,450,-8292,71,-1,-5,-1,0
1733777,447,-8292,59,-1,-5,-1,0
1733782,443,-8293,51,-1,-5,-1,0
1733787,437,-8295,44,-1,-5,-1,0
1733792,432,-8295,32,-1,-5,-1,0
1733797,430,-8295,20,-1,-4,-1,0
1733802,433,-8296,10,-1,-4,-1,0
1733807,438,-8295,2,-1,-4,-1,0
1733812,451,-8294,-6,-1,-4,-1,0
1733817,460,-8294,-9,-1,-3,-1,0
1733822,469,-8293,-17,0,-3,-1,0
1733827,480,-8294,-20,0,-3,-1,0
1733832,485,-8291,-21,0,-3,-1,0
1733837,487,-8290,-18,0,-3,-1,0
1733842,485,-8289,-16,0,-2,-2,0
1733847,479,-8288,-18,0,-2,-2,0
1733852,474,-8287,-16,0,-2,-2,0
1733857,477,-8287,-7,1,-2,-2,0
1733862,453,-8289,-39,1,-2,-1,0
1733867,394,-8292,-106,0,-3,-1,0
1733872,326,-8296,-178,0,-3,-1,0
1733877,272,-8299,-240,0,-3,-1,0
1733882,239,-8304,-276,0,-2,-1,0
1733887,241,-8300,-271,0,-1,-1,0
1733892,275,-8298,-236,0,0,-1,0
1733897,325,-8294,-184,0,0,-1,0
1733902,377,-8290,-131,0,1,-1,0
1733907,418,-8288,-86,0,1,-1,0
1733912,433,-8288,-69,1,0,-1,0
1733917,415,-8289,-78,1,0,-1,0
1733922,380,-8294,-98,1,0,-1,0
1733927,338,-8297,-126,1,0,-1,0
1733932,299,-8300,-153,1,1,-1,0
1733937,271,-8303,-167,0,1,-1,0
1733942,265,-8303,-157,0,2,-1,0
1733947,282,-8302,-136,0,3,-1,0
1733952,312,-8297,-98,0,3,-1,0
1733957,349,-8294,-55,1,2,-1,0
1733962,380,-8292,-20,1,2,-1,0
1733967,398,-8291,2,1,1,-1,0
1733972,401,-8291,7,1,1,-2,0
1733977,385,-8292,-4,1,1,-2,0
1733982,360,-8292,-18,1,1,-2,0
1733987,335,-8292,-29,1,1,-2,0
1733992,315,-8294,-39,1,2,-2,0
1733997,310,-8294,-35,1,2,-2,0
1734002,317,-8294,-20,1,3,-2,0
1734007,336,-8294,3,1,3,-2,0
1734012,366,-8291,26,1,3,-2,0
1734017,393,-8288,46,1,3,-2,0
1734022,411,-8287,56,1,3,-2,0
1734027,427,-8289,64,1,3,-2,0
1734032,434,-8288,65,1,2,-2,0
1734037,430,-8285,72,1,2,-2,0
1734042,428,-8285,77,1,2,-2,0
1734047,429,-8283,88,1,2,-2,0
1734052,433,-8283,105,1,1,-2,0
1734057,446,-8280,120,1,1,-2,0
1734062,468,-8282,141,1,0,-2,0
1734067,489,-8281,157,1,0,-2,0
1734072,507,-8280,166,1,0,-2,0
1734077,520,-8282,168,1,0,-2,0
1734082,530,-8285,169,1,0,-2,0
1734087,534,-8286,167,1,0,-2,0
1734092,532,-8287,166,1,0,-2,0
1734097,524,-8287,172,1,0,-2,0
1734102,520,-8287,175,1,0,-1,0
1734107,516,-8287,180,1,0,-1,0
1734112,519,-8287,184,1,0,-1,0
1734117,528,-8290,182,1,-1,-1,0
1734122,538,-8291,180,1,-1,-1,0
1734127,547,-8288,178,1,-1,-1,0
1734132,552,-8290,175,1,-2,-1,0
1734137,555,-8291,166,1,-2,-1,0
1734142,550,-8292,154,1,-2,-1,0
1734147,544,-8291,144,1,-2,-1,0
1734152,537,-8293,135,1,-2,-1,0
1734157,525,-8292,131,1,-2,-1,0
1734162,521,-8292,125,1,-2,-1,0
1734167,516,-8292,121,1,-2,-1,0
1734172,515,-8291,114,1,-1,-1,0
1734177,519,-8288,105,1,-1,-1,0
1734182,522,-8288,98,1,-1,-1,0
1734187,522,-8287,92,1,0,-1,0
1734192,524,-8285,85,1,0,-1,0
1734197,524,-8284,84,1,0,-1,0
1734202,524,-8286,88,1,0,-1,0
1734207,523,-8285,97,1,1,-1,0
1734212,522,-8287,107,1,1,-1,0
1734217,526,-8286,114,1,1,-1,0
1734222,532,-8286,121,1,1,-1,0
1734227,537,-8289,129,1,1,-1,0
1734232,543,-8289,135,1,1,-1,0
1734237,546,-8289,143,1,1,-1,0
1734242,543,-8287,155,1,1,-1,0
1734247,538,-8289,164,1,0,-1,0
1734252,532,-8289,176,1,0,-1,0
1734257,527,-8286,189,1,0,-1,0
1734262,523,-8283,202,1,0,-1,0
1734267,526,-8287,210,1,0,-1,0
1734272,533,-8289,214,1,0,-1,0
1734277,541,-8289,216,1,0,-1,0
1734282,551,-8292,220,1,0,-1,0
1734287,557,-8294,224,1,-1,-1,0
1734292,559,-8293,228,0,-1,-1,0
1734297,560,-8290,229,0,-1,-1,0
1734302,560,-8290,233,0,-1,-1,0
1734307,562,-8290,243,0,-1,-1,0
1734312,563,-8288,248,0,-1,-1,0
1734317,557,-8287,254,0,-1,-1,0
1734322,555,-8288,253,0,-1,-1,0
1734327,554,-8292,250,0,-1,-1,0
1734332,553,-8293,247,0,-1,-1,0
1734337,553,-8294,244,0,-1,-1,0
1734342,550,-8293,240,0,-2,-1,0
1734347,546,-8290,237,0,-2,-1,0
1734352,548,-8288,239,0,-2,-1,0
1734357,543,-8287,237,0,-2,-1,0
1734362,541,-8287,233,0,-2,-1,0
1734367,541,-8291,229,0,-2,-1,0
1734372,538,-8293,228,0,-2,-1,0
1734377,534,-8294,232,0,-2,-1,0
1734382,528,-8293,228,0,-2,-1,0
1734387,525,-8295,224,0,-2,-1,0
1734392,526,-8292,224,0,-2,-1,0
1734397,523,-8295,225,0,-1,-1,0
1734402,520,-8299,219,0,-1,-1,0
1734407,518,-8298,217,0,-1,-1,0
1734412,516,-8299,220,0,0,-1,0
1734417,520,-8299,223,0,0,-1,0
1734422,524,-8297,228,0,0,-1,0
1734427,534,-8293,236,0,0,-1,0
1734432,540,-8290,243,0,-1,-1,0
1734437,547,-8289,249,0,-1,-1,0
1734442,554,-8285,251,0,-1,-1,0
1734447,561,-8284,248,0,-1,-1,0
1734452,566,-8286,251,0,-1,-1,0
1734457,569,-8286,252,0,-2,-1,0
1734462,571,-8288,252,0,-2,-1,0
1734467,573,-8289,262,0,-3,-1,0
1734472,573,-8286,277,0,-3,-1,0
1734477,570,-8284,288,0,-3,-1,0
1734482,568,-8282,293,0,-4,-1,0
1734487,567,-8282,295,0,-4,0,0
1734492,566,-8284,290,0,-4,-1,0
1734497,561,-8285,281,0,-4,-1,0
1734502,553,-8287,268,0,-4,-1,0
1734507,547,-8287,258,0,-4,-1,0
1734512,537,-8288,245,0,-4,-1,0
1734517,530,-8291,243,0,-4,-1,0
1734522,527,-8293,240,0,-4,-1,0
1734527,525,-8293,241,0,-4,-1,0
1734532,523,-8293,245,0,-4,0,0
1734537,526,-8292,246,0,-3,0,0
1734542,530,-8293,243,0,-4,-1,0
1734547,530,-8293,234,0,-4,-1,0
1734552,530,-8292,230,0,-4,0,0
1734557,526,-8292,222,0,-3,-1,0
1734562,524,-8291,209,0,-3,-1,0
1734567,522,-8291,199,0,-3,0,0
1734572,520,-8293,194,0,-2,0,0
1734577,518,-8293,189,0,-2,0,0
1734582,517,-8293,191,0,-1,0,0
1734587,518,-8293,191,0,-1,0,0
1734592,519,-8292,187,0,-1,0,0
1734597,521,-8290,185,0,-1,-1,0
1734602,518,-8289,178,0,-1,0,0
1734607,517,-8287,172,0,-1,0,0
1734612,512,-8287,168,0,-1,0,0
1734617,503,-8289,166,0,-1,-1,0
1734622,498,-8290,168,0,0,-1,0
1734627,495,-8292,176,0,0,-1,0
1734632,489,-8292,178,0,-1,-1,0
1734637,489,-8290,178,0,-1,-1,0
1734642,491,-8288,177,0,-1,-1,0
1734647,490,-8286,181,0,0,-1,0
1734652,491,-8287,183,0,0,-1,0
1734657,493,-8289,184,0,0,-1,0
1734662,497,-8290,184,0,0,-1,0
1734667,496,-8289,187,0,-1,-1,0
1734672,495,-8289,183,0,0,-1,0
1734677,492,-8289,184,0,0,-1,0
1734682,490,-8290,188,0,0,-1,0
1734687,489,-8292,189,0,0,-1,0
1734692,492,-8293,188,0,0,-1,0
1734697,494,-8294,191,0,0,-1,0
1734702,498,-8295,192,0,0,-1,0
1734707,500,-8298,200,0,0,-1,0
1734712,502,-8296,201,0,0,-1,0
1734717,499,-8295,206,0,0,-1,0
1734722,493,-8295,210,0,0,-1,0
1734727,488,-8295,216,0,0,-1,0
1734732,487,-8296,222,0,0,-1,0
1734737,487,-8295,228,0,0,-1,0
1734742,492,-8295,232,0,0,-1,0
1734747,499,-8294,235,0,0,-1,0
1734752,508,-8292,240,0,0,-1,0
1734757,513,-8291,244,0,0,-1,0
1734762,515,-8294,251,0,0,-1,0
1734767,515,-8297,261,0,0,-1,0
1734772,513,-8297,270,0,0,-1,0
1734777,510,-8294,272,0,0,-1,0
1734782,507,-8294,273,0,0,-1,0
1734787,507,-8293,272,0,0,-1,0
1734792,510,-8293,270,0,0,-1,0
1734797,511,-8293,273,0,0,-1,0
1734802,509,-8292,276,0,0,-1,0
1734807,510,-8293,281,0,0,-1,0
1734812,507,-8296,283,0,0,-1,0
1734817,505,-8294,288,0,0,-1,0
1734822,500,-8294,287,0,1,-1,0
1734827,496,-8293,287,0,1,-1,0
1734832,494,-8294,282,0,1,-1,0
1734837,494,-8294,280,0,1,-1,0
1734842,498,-8292,285,-1,1,-1,0
1734847,501,-8291,291,-1,1,-1,0
1734852,506,-8289,295,-1,1,-1,0
1734857,517,-8289,298,-1,1,-1,0
1734862,527,-8286,299,-1,0,-1,0
1734867,535,-8287,305,-1,0,-1,0
1734872,542,-8288,304,-1,0,-1,0
1734877,545,-8292,303,-1,0,-1,0
1734882,545,-8293,306,-1,0,-1,0
1734887,544,-8293,307,-1,0,-1,0
1734892,546,-8291,307,-1,0,-1,0
1734897,551,-8289,307,-1,0,-1,0
1734902,559,-8289,305,-1,0,-1,0
1734907,563,-8288,302,-1,0,-1,0
1734912,563,-8289,298,-1,-1,-1,0
1734917,565,-8288,294,-1,-1,-1,0
1734922,562,-8288,292,-1,-1,-1,0
1734927,555,-8286,284,-1,-1,-1,0
1734932,549,-8284,271,-1,-1,-1,0
1734937,548,-8283,254,-1,-1,-1,0
1734942,544,-8287,240,-1,-1,-1,0
1734947,539,-8289,230,-1,-1,-1,0
1734952,537,-8291,224,-1,-1,-1,0
1734957,537,-8293,214,-1,-1,-1,0
1734962,535,-8295,201,-1,-1,-1,0
1734967,537,-8297,188,-1,-1,-1,0
1734972,539,-8298,180,-1,-1,-1,0
1734977,538,-8298,168,-1,-1,-1,0
1734982,540,-8298,162,-1,-1,-1,0
1734987,541,-8299,154,-1,0,-1,0
1734992,543,-8301,145,-1,0,-1,0
1734997,547,-8300,141,-1,0,-1,0
1735002,547,-8298,139,-1,0,-1,0
1735007,547,-8295,142,-1,0,-1,3
1735011,551,-8293,142,-1,0,-1,3
1735017,552,-8295,140,-1,0,-1,3
1735022,551,-8294,132,0,0,-1,3
1735027,553,-8292,130,0,1,-1,3
1735032,552,-8292,124,0,1,-1,3
1735037,550,-8295,124,0,1,0,3
1735042,550,-8296,122,0,1,-1,3
1735047,547,-8291,130,0,1,-1,3
1735052,546,-8294,135,0,1,-1,3
1735057,545,-8293,142,0,1,0,3
1735062,544,-8294,146,0,2,0,3
1735066,543,-8294,149,0,2,0,3
1735072,540,-8294,152,0,2,-1,3
1735077,541,-8295,157,0,2,0,3
1735082,543,-8296,167,0,2,0,3
1735087,543,-8293,169,0,2,0,3
1735091,541,-8295,177,0,2,0,3
1735097,543,-8296,186,0,1,0,3
1735102,546,-8297,196,0,1,0,3
1735107,550,-8296,205,0,1,0,3
1735112,551,-8298,212,0,1,0,3
1735116,550,-8299,212,0,1,0,3
1735122,550,-8296,213,0,1,0,3
1735127,552,-8293,208,0,0,0,3
1735132,554,-8291,207,0,0,0,3
1735137,553,-8287,209,0,0,0,3
1735141,552,-8287,211,0,0,0,3
1735147,552,-8289,212,0,0,0,3
1735151,552,-8291,216,0,0,0,3
1735156,553,-8294,211,0,0,0,3
1735162,550,-8292,205,0,0,0,3
1735166,550,-8289,198,0,0,0,3
1735172,549,-8289,196,0,0,0,3
1735176,544,-8292,195,0,0,0,3
1735181,541,-8292,191,0,0,0,3
1735186,536,-8293,187,0,0,0,3
1735191,527,-8289,186,0,0,0,3
1735196,521,-8288,184,0,1,0,3
1735201,518,-8287,184,0,1,0,3
1735206,516,-8287,187,0,1,0,3
1735211,514,-8288,189,0,1,0,3
1735216,512,-8288,194,0,1,0,3
1735221,512,-8287,200,0,1,0,3
1735226,512,-8290,204,0,1,0,3
1735232,515,-8292,209,0,1,0,3
1735236,517,-8290,213,0,1,0,3
1735241,518,-8291,217,0,1,0,3
1735247,522,-8294,221,0,1,0,3
1735251,522,-8294,228,0,0,0,3
1735256,526,-8292,236,0,0,0,3
1735261,531,-8293,244,0,0,0,3
1735266,540,-8293,247,0,0,0,3
1735272,542,-8295,245,0,0,0,3
1735276,543,-8297,246,0,0,0,3
1735281,543,-8298,242,0,0,0,3
1735287,545,-8297,241,0,0,0,3
1735291,539,-8294,236,0,0,0,3
1735297,537,-8293,234,0,0,0,3
1735301,535,-8295,227,0,0,0,3
1735306,532,-8291,222,0,0,0,3
1735311,530,-8291,224,0,0,0,3
1735316,529,-8291,226,0,0,0,3
1735321,529,-8293,222,0,0,0,3
1735326,529,-8291,221,0,0,0,3
1735331,528,-8288,215,0,0,0,3
1735336,531,-8291,212,0,0,0,3
1735341,531,-8290,211,0,0,0,3
1735346,532,-8287,212,0,0,0,3
1735352,532,-8287,218,0,0,0,3
1735356,533,-8286,221,0,0,0,3
1735361,532,-8286,224,0,0,0,3
1735366,529,-8287,221,0,0,0,3
1735371,523,-8289,217,0,0,0,3
1735376,519,-8291,214,0,0,0,3
1735381,519,-8287,210,0,0,0,3
1735386,515,-8287,205,0,0,0,3
1735391,513,-8288,203,0,0,0,3
1735396,514,-8289,201,0,0,0,3
1735401,513,-8290,202,0,0,0,3
1735406,514,-8291,207,0,0,0,3
1735411,512,-8290,207,0,0,0,3
1735416,507,-8292,211,0,0,0,3
1735421,507,-8294,211,0,0,0,3
1735426,507,-8294,208,0,0,0,3
1735431,503,-8292,208,0,0,0,3
1735436,502,-8290,214,0,0,0,3
1735441,504,-8288,214,0,0,0,3
1735446,505,-8287,214,0,0,0,3
1735451,504,-8287,216,0,0,0,3
1735456,508,-8284,217,0,0,0,3
1735461,511,-8285,217,0,0,0,3
1735466,511,-8282,217,0,0,0,3
1735471,510,-8280,219,0,1,0,3
1735476,510,-8281,218,0,1,0,3
1735481,512,-8285,216,0,0,0,3
1735486,512,-8286,215,0,0,0,3
1735491,514,-8289,221,-1,0,0,3
1735496,516,-8289,221,-1,0,0,3
1735501,515,-8288,218,0,0,0,3
1735506,515,-8287,214,0,0,0,3
1735511,517,-8287,216,0,0,0,3
1735516,515,-8290,220,0,0,0,3
1735521,513,-8290,226,0,0,-1,3
1735526,506,-8291,228,-1,0,-1,3
1735531,502,-8290,233,-1,0,-1,3
1735536,497,-8290,233,0,0,0,3
1735541,497,-8291,233,0,0,0,3
1735546,496,-8289,232,0,0,-1,3
1735551,496,-8289,228,0,0,0,3
1735556,496,-8294,220,0,0,0,3
1735561,501,-8297,213,0,0,0,3
1735566,508,-8294,207,0,1,0,3
1735571,515,-8294,205,0,1,0,3
1735576,519,-8291,203,0,1,0,3
1735581,521,-8290,201,-1,1,0,3
1735586,526,-8288,205,-1,1,-1,3
1735591,532,-8287,211,0,1,-1,3
1735596,538,-8291,213,0,1,0,3
1735601,543,-8291,213,0,1,0,3
1735606,553,-8293,211,0,2,0,3
1735611,571,-8292,206,0,2,0,3
1735616,594,-8293,202,0,3,0,3
1735621,627,-8295,194,0,4,0,3
1735626,659,-8297,191,0,5,0,3
1735631,690,-8298,202,-1,5,0,3
1735636,717,-8296,226,-1,3,0,3
1735641,738,-8295,260,-1,0,0,3
1735646,739,-8294,295,-1,-3,0,3
1735651,729,-8292,318,-1,-5,0,3
1735656,715,-8288,322,0,-8,1,3
1735661,685,-8289,310,0,-11,1,3
1735666,638,-8289,281,0,-14,1,3
1735671,568,-8293,239,0,-17,1,3
1735676,473,-8298,205,0,-19,1,3
1735681,350,-8304,191,-1,-20,0,3
1735686,201,-8377,224,-1,-21,0,3
1735691,26,-8745,313,-1,-21,0,3
1735696,-100,-9344,472,-1,-20,0,3
1735701,-218,-10009,640,-2,-16,-1,3
1735706,-346,-10661,777,-2,-13,-2,3
1735711,-515,-11270,900,-2,-14,-3,3
1735716,-770,-11843,997,-3,-15,-4,3
1735721,-1051,-12358,1071,-3,-14,-5,3
1735726,-1274,-12763,1126,-4,-10,-6,3
1735731,-1363,-13038,1159,-5,-4,-7,3
1735736,-1325,-13180,1179,-5,1,-8,3
1735741,-1222,-13189,1179,-5,4,-9,3
1735746,-1120,-13064,1163,-6,6,-10,3
1735751,-1056,-12818,1130,-6,7,-11,3
1735756,-996,-12465,1082,-6,9,-12,3
1735761,-890,-12019,1010,-6,10,-12,3
1735766,-700,-11499,916,-7,12,-12,3
1735771,-423,-10917,813,-7,12,-12,3
1735776,-104,-10271,706,-7,11,-12,3
1735781,192,-9564,595,-7,8,-12,3
1735786,440,-8810,473,-7,5,-11,3
1735791,659,-8018,335,-6,2,-10,3
1735796,884,-7206,189,-6,0,-9,3
1735801,1157,-6392,31,-6,-1,-8,3
1735806,1469,-5597,-117,-5,-2,-7,3
1735811,1783,-4838,-247,-5,-3,-6,3
1735816,2059,-4128,-351,-4,-4,-5,3
1735821,2270,-3475,-429,-4,-6,-4,3
1735826,2411,-2891,-473,-4,-9,-2,3
1735831,2515,-2379,-503,-3,-11,-1,3
1735836,2610,-1937,-539,-3,-12,1,3
1735841,2706,-1563,-583,-2,-13,3,3
1735846,2791,-1241,-635,-2,-12,4,3
1735851,2833,-961,-696,-2,-10,6,3
1735856,2829,-718,-757,-2,-7,7,3
1735861,2798,-508,-809,-1,-3,9,3
1735866,2737,-336,-848,-1,1,10,3
1735871,2652,-203,-872,0,4,12,3
1735876,2556,-110,-879,0,7,14,3
1735881,2449,-70,-878,1,8,16,3
1735886,2331,-95,-865,1,8,18,3
1735891,2180,-201,-835,1,5,20,3
1735896,2095,-407,-739,1,0,20,3
1735901,2135,-752,-599,1,-4,19,3
1735906,2220,-1274,-506,1,-10,20,3
1735911,2166,-2000,-398,2,-20,23,3
1735916,1938,-3176,-320,2,-33,24,3
1735921,-463,-5062,133,25,-18,25,3
1735926,-147,-6132,712,3,66,17,3
1735931,-203,-6026,955,1,76,5,3
1735936,-516,-5986,705,-1,-56,-8,3
1735941,-895,-7055,365,2,-115,-13,3
1735946,-2080,-8387,306,2,-89,-6,3
1735951,-2572,-9529,360,0,-28,-3,3
1735956,-2326,-10033,485,-3,48,-4,3
1735961,-2005,-10268,594,-4,65,-4,3
1735966,-1528,-10804,948,-4,19,-8,3
1735971,-1288,-11487,1365,-5,-16,-11,3
1735976,-1205,-11833,1682,-6,-17,-13,3
1735981,-1251,-11697,1939,-5,-2,-14,3
1735986,-1300,-11345,1814,-5,-4,-16,3
1735991,-1206,-11009,1539,-5,-9,-17,3
1735996,-1076,-10698,1315,-5,-9,-17,3
1736001,-1023,-10304,1036,-6,-7,-17,3
1736006,-957,-9749,740,-7,-3,-17,3
1736011,-867,-9088,494,-8,1,-17,3
1736016,-670,-8382,358,-8,5,-16,3
1736021,-266,-7672,300,-8,9,-17,3
1736026,183,-6973,257,-8,10,-16,3
1736031,589,-6261,172,-7,4,-16,3
1736036,991,-5513,21,-7,-1,-15,3
1736041,1277,-4734,-180,-6,-5,-14,3
1736046,1487,-3926,-404,-6,-10,-13,3
1736051,1726,-3109,-626,-5,-9,-11,3
1736056,1938,-2321,-813,-4,-8,-10,3
1736061,2180,-1592,-983,-4,-8,-8,3
1736066,2437,-938,-1132,-3,-5,-7,3
1736071,2565,-359,-1261,-2,-4,-5,3
1736076,2645,154,-1368,0,-4,-3,3
1736081,2716,601,-1465,0,-1,-1,3
1736086,2675,965,-1521,1,-1,1,3
1736091,2590,1246,-1543,2,-2,3,3
1736096,2453,1429,-1562,3,-1,5,3
1736101,2208,1494,-1552,4,-2,8,3
1736106,1975,1434,-1488,4,-5,7,3
1736111,2119,1213,-1508,5,-3,6,3
1736116,2129,827,-1489,5,1,9,3
1736121,1958,319,-1423,6,-6,9,3
1736126,794,-2066,423,39,2,12,3
1736131,1146,-3755,993,21,101,2,3
1736136,1131,-4730,1363,10,117,-9,3
1736141,652,-5234,793,1,-1,-15,3
1736146,-1409,-5757,247,7,-75,-16,3
1736151,-3548,-6204,54,9,-61,-4,3
1736156,-4440,-6494,-337,6,13,4,3
1736161,-3419,-6727,-85,3,73,2,3
1736166,-1261,-6980,-87,2,75,3,3
1736171,-375,-7182,31,2,49,11,3
1736176,-5,-7317,283,2,11,8,3
1736181,648,-7421,461,2,6,3,3
1736186,1456,-7512,737,2,21,-2,3
1736191,1904,-7586,1007,2,22,-3,3
1736196,1885,-7672,1088,2,15,-3,3
1736201,1713,-7758,1109,2,7,-4,3
1736206,1502,-7841,1065,2,-1,-5,3
1736211,1259,-7909,962,1,-4,-5,3
1736216,842,-7957,961,1,-4,-3,3
1736221,311,-8006,1112,1,-2,-2,3
1736226,-132,-8047,1227,1,3,0,3
1736231,-394,-8084,1303,1,5,1,3
1736236,-449,-8111,1370,2,3,2,3
1736241,-282,-8134,1336,1,1,3,3
1736246,35,-8155,1183,1,0,2,3
1736251,306,-8174,1057,0,-3,2,3
1736256,503,-8185,985,0,-6,1,3
1736261,658,-8199,917,-1,-5,0,3
1736266,801,-8213,861,-1,-4,0,3
1736271,866,-8217,867,-1,-3,-1,3
1736276,828,-8222,850,-1,-3,-1,3
1736281,737,-8234,829,-1,-1,-1,3
1736286,661,-8240,812,-1,0,-1,3
1736291,594,-8248,735,-1,1,-1,3
1736296,524,-8261,638,-1,1,0,3
1736301,498,-8268,557,-1,1,0,3
1736306,518,-8274,459,-1,1,0,3
1736311,569,-8277,386,-1,2,0,3
1736316,643,-8277,348,-1,2,0,3
1736321,726,-8278,302,-2,2,0,3
1736326,795,-8274,291,-1,3,0,3
1736331,817,-8273,291,-1,2,-1,3
1736336,811,-8275,269,-1,2,-1,3
1736341,783,-8275,259,-1,2,0,3
1736346,726,-8279,234,-1,1,0,3
1736351,696,-8286,185,-1,1,0,3
1736356,673,-8290,145,-1,1,0,3
1736361,645,-8295,106,-1,2,0,3
1736366,647,-8297,68,-1,3,0,3
1736371,638,-8297,54,-1,4,0,3
1736376,632,-8295,46,-1,4,0,3
1736381,638,-8293,54,-1,5,0,3
1736386,623,-8291,70,-1,6,0,3
1736391,627,-8291,85,-1,5,-1,3
1736396,623,-8291,99,-1,5,-1,3
1736401,585,-8291,120,-1,5,-1,3
1736406,566,-8293,132,-1,4,-1,3
1736411,543,-8297,146,-1,4,-1,3
1736416,524,-8300,152,-1,3,0,3
1736421,526,-8299,151,-1,2,-1,3
1736426,528,-8299,152,-1,2,0,3
1736431,535,-8296,152,-1,1,-1,3
1736436,554,-8296,150,-1,1,-1,3
1736441,562,-8299,155,-1,0,0,3
1736446,578,-8300,163,-1,0,-1,3
1736451,592,-8299,167,-1,0,-1,3
1736456,596,-8296,169,-1,0,-1,3
1736461,605,-8293,172,-1,-1,-1,3
1736466,614,-8290,169,-1,-1,-1,3
1736471,619,-8291,170,-1,-1,0,3
1736476,634,-8290,156,-1,-1,-1,3
1736481,653,-8290,138,-1,-2,0,3
1736486,668,-8287,122,-1,-2,0,3
1736491,685,-8286,101,-1,-2,0,3
1736496,704,-8285,87,-1,-3,0,3
1736501,712,-8287,83,-1,-3,0,3
1736506,725,-8286,78,-1,-3,0,3
1736511,735,-8286,90,-1,-4,0,3
1736516,734,-8288,93,-1,-4,0,3
1736521,745,-8288,87,0,-4,0,3
1736526,751,-8287,89,0,-4,0,3
1736531,744,-8287,78,0,-4,0,3
1736536,746,-8290,64,0,-4,0,3
1736541,731,-8291,45,0,-4,0,3
1736546,723,-8293,27,0,-3,0,3
1736551,724,-8295,20,0,-3,0,3
1736556,711,-8296,24,0,-2,0,3
1736561,712,-8297,25,0,-1,0,3
1736566,715,-8296,37,0,-1,0,3
1736571,705,-8297,52,0,0,0,3
1736576,711,-8297,56,0,0,0,3
1736581,710,-8297,61,0,0,0,3
1736586,701,-8295,60,0,0,0,3
1736591,702,-8294,56,0,1,0,3
1736596,698,-8294,65,0,1,0,3
1736601,692,-8295,74,0,1,0,3
1736606,694,-8295,76,0,2,0,3
1736611,688,-8295,96,0,2,0,3
1736616,681,-8292,110,0,3,0,3
1736621,682,-8291,121,0,3,0,3
1736626,674,-8292,148,0,3,0,3
1736631,668,-8289,152,0,3,0,3
1736636,668,-8285,162,0,4,0,3
1736641,661,-8285,182,0,4,0,3
1736646,660,-8285,182,0,4,0,3
1736651,665,-8284,194,0,4,0,3
1736656,658,-8285,211,0,3,0,3
1736661,656,-8283,219,0,4,0,3
1736666,658,-8281,238,0,4,0,3
1736671,650,-8280,250,0,4,0,3
1736676,650,-8281,250,0,4,0,3
1736681,646,-8282,263,0,4,0,3
1736686,635,-8282,265,0,4,0,3
1736691,635,-8284,266,0,4,0,3
1736696,628,-8286,283,0,4,0,3
1736701,623,-8289,287,-1,4,0,3
1736706,626,-8290,288,-1,4,0,3
1736711,616,-8290,299,-1,3,0,3
1736716,611,-8287,300,-1,3,0,3
1736721,608,-8286,302,-1,3,0,3
1736726,596,-8286,317,-1,3,0,3
1736731,591,-8288,318,-1,3,0,3
1736736,587,-8287,319,-1,3,0,3
1736741,581,-8289,334,-1,2,0,3
1736746,581,-8289,335,-1,2,0,3
1736751,583,-8286,345,-1,2,0,3
1736756,583,-8282,350,-1,1,0,3
1736761,584,-8283,339,-1,2,-1,3
1736766,585,-8282,338,-1,2,-1,3
1736771,582,-8283,331,-1,2,-1,3
1736776,583,-8284,317,-1,2,-1,3
1736781,585,-8286,314,-1,1,-1,3
1736786,587,-8286,315,-1,1,-1,3
1736791,592,-8286,307,-1,1,-1,3
1736796,594,-8287,315,-1,1,-1,3
1736801,597,-8287,314,-1,1,-1,3
1736806,607,-8286,308,-1,0,-1,3
1736811,609,-8288,310,-1,0,-1,3
1736816,613,-8289,298,-2,0,-1,3
1736821,621,-8291,287,-2,-1,-1,3
1736826,617,-8288,282,-2,-1,-1,3
1736831,618,-8290,264,-2,-1,-1,3
1736836,620,-8294,258,-2,-1,-1,3
1736841,616,-8296,259,-2,-1,-1,3
1736846,617,-8297,250,-2,-1,-1,3
1736851,618,-8297,247,-2,-1,-1,3
1736856,617,-8295,244,-2,-1,-1,3
1736861,625,-8294,224,-2,0,-1,3
1736866,627,-8296,209,-2,0,-1,3
1736871,634,-8298,195,-2,0,-1,3
1736876,644,-8298,175,-2,0,-1,3
1736881,647,-8297,162,-2,0,-1,3
1736886,655,-8297,154,-2,0,-1,3
1736891,666,-8292,147,-2,0,-1,3
1736896,673,-8288,146,-2,1,-1,3
1736901,682,-8289,144,-2,1,-1,3
1736906,695,-8291,137,-2,1,-1,3
1736911,700,-8291,139,-2,1,-1,3
1736916,699,-8291,124,-2,1,-1,3
1736921,702,-8293,107,-2,0,-1,3
1736926,697,-8293,93,-2,0,-1,3
1736931,694,-8293,85,-2,0,-1,3
1736936,697,-8295,78,-2,0,0,3
1736941,696,-8293,79,-1,0,0,3
1736946,703,-8293,73,-1,0,0,3
1736951,711,-8290,69,-1,1,-1,3
1736956,718,-8289,69,-1,1,0,3
1736961,725,-8290,59,-1,1,0,3
1736966,727,-8289,53,-1,0,0,3
1736971,725,-8289,46,-1,0,0,3
1736976,727,-8290,36,-1,0,0,3
1736981,723,-8290,31,-1,1,0,3
1736986,718,-8289,31,-1,1,0,3
1736991,719,-8288,20,-1,1,0,3
1736996,713,-8290,13,-1,1,0,3
1737001,711,-8289,8,-1,2,0,3
1737006,710,-8288,-3,-1,2,0,0
1737011,708,-8286,-2,-1,2,0,0
1737016,710,-8284,-2,-1,2,0,0
1737021,711,-8285,1,-1,2,0,0
1737026,708,-8288,7,-1,2,0,0
1737031,708,-8291,13,-1,2,0,0
1737036,709,-8290,15,-1,2,0,0
1737041,708,-8291,22,-1,2,0,0
1737046,706,-8291,21,-1,2,0,0
1737051,703,-8290,19,-1,2,0,0
1737056,702,-8291,21,-1,2,0,0
1737061,705,-8294,20,-1,2,0,0
1737066,703,-8296,22,-1,2,0,0
1737071,698,-8296,25,-1,2,0,0
1737076,696,-8297,25,-1,3,0,0
1737081,691,-8297,24,-1,3,0,0
1737086,688,-8298,26,-1,3,0,0
1737091,685,-8296,33,-1,4,0,0
1737096,679,-8296,37,-1,4,0,0
1737101,675,-8296,43,-1,3,0,0
1737106,670,-8294,46,-1,3,0,0
1737111,664,-8295,54,-1,2,0,0
1737116,660,-8294,65,-1,2,0,0
1737121,657,-8294,75,-1,2,0,0
1737126,658,-8293,88,-1,1,0,0
1737131,661,-8294,93,-1,1,0,0
1737136,662,-8293,93,-1,1,0,0
1737141,658,-8293,101,-1,1,0,0
1737146,654,-8294,102,-1,1,0,0
1737151,641,-8295,104,-1,1,0,0
1737156,625,-8298,107,-1,1,0,0
1737161,613,-8300,106,-1,1,0,0
1737166,600,-8300,109,-1,2,0,0
1737171,592,-8300,106,-1,2,0,0
1737176,590,-8298,102,-1,3,0,0
1737181,591,-8297,102,-1,3,0,0
1737186,595,-8296,106,-1,3,0,0
1737191,603,-8293,109,-1,4,0,0
1737196,608,-8290,117,-1,4,0,0
1737201,612,-8292,126,-1,4,0,0
1737206,618,-8290,134,-1,4,0,0
1737211,617,-8292,142,-1,4,0,0
1737216,620,-8291,149,-1,4,0,0
1737221,623,-8292,154,-1,4,0,0
1737226,628,-8292,163,-1,4,0,0
1737231,638,-8292,172,-1,3,0,0
1737236,646,-8292,175,-1,3,0,0
1737241,653,-8293,179,-1,3,0,0
1737246,661,-8293,177,-1,3,0,0
1737251,662,-8292,177,-1,2,0,0
1737256,662,-8287,180,-1,2,0,0
1737261,660,-8285,187,-1,2,0,0
1737266,658,-8281,192,-1,2,0,0
1737271,658,-8282,194,-1,2,0,0
1737276,655,-8281,198,-1,1,0,0
1737281,655,-8283,205,-1,1,0,0
1737286,655,-8284,208,-1,1,0,0
1737291,656,-8288,208,-1,1,0,0
1737296,658,-8287,209,-1,1,0,0
1737301,659,-8287,214,-1,0,0,0
1737306,659,-8287,208,-1,0,0,0
1737311,654,-8285,206,-1,0,0,0
1737316,651,-8286,206,-2,0,0,0
1737321,647,-8286,203,-2,0,0,0
1737326,640,-8285,199,-2,0,0,0
1737331,639,-8285,199,-2,-1,0,0
1737336,635,-8286,195,-2,-1,0,0
1737341,629,-8285,196,-2,-1,0,0
1737346,625,-8284,194,-2,-1,0,0
1737351,619,-8285,184,-2,-1,0,0
1737356,617,-8289,174,-2,-1,0,0
1737361,618,-8291,167,-2,0,0,0
1737366,619,-8293,154,-2,0,0,0
1737371,619,-8292,147,-2,0,0,0
1737376,619,-8290,136,-2,0,0,0
1737381,623,-8289,127,-2,0,0,0
1737386,628,-8289,128,-2,0,0,0
1737391,629,-8288,120,-2,1,0,0
1737396,632,-8287,111,-2,1,0,0
1737401,638,-8287,107,-2,1,0,0
1737406,644,-8283,98,-2,2,0,0
1737411,650,-8283,87,-2,1,0,0
1737416,658,-8281,85,-2,1,0,0
1737421,664,-8281,78,-2,1,0,0
1737426,665,-8278,75,-2,1,0,0
1737431,670,-8280,74,-2,1,0,0
1737436,673,-8278,70,-2,1,0,0
1737441,675,-8277,66,-2,1,0,0
1737446,673,-8277,60,-2,0,0,0
1737451,673,-8280,53,-2,1,0,0
1737456,673,-8284,43,-2,0,0,0
1737461,673,-8286,30,-2,1,0,0
1737466,666,-8287,24,-2,0,0,0
1737471,661,-8290,18,-2,0,0,0
1737476,659,-8294,13,-2,0,0,0
1737481,658,-8297,13,-2,1,0,0
1737486,660,-8294,17,-2,1,0,0
1737491,663,-8292,18,-2,1,0,0
1737496,664,-8289,13,-2,1,0,0
1737501,668,-8287,18,-2,1,0,0
1737506,669,-8286,15,-2,1,0,0
1737511,665,-8285,9,-2,1,0,0
1737516,664,-8285,9,-2,1,0,0
1737521,666,-8286,11,-2,1,0,0
1737526,665,-8287,16,-2,0,0,0
1737531,665,-8288,18,-2,0,0,0
1737536,665,-8288,21,-2,0,0,0
1737541,667,-8289,20,-2,0,0,0
1737546,670,-8290,21,-2,0,0,0
1737551,671,-8289,20,-2,0,0,0
1737556,671,-8289,22,-2,-1,0,0
1737561,668,-8288,23,-2,-1,0,0
1737566,665,-8287,22,-2,-1,0,0
1737571,657,-8284,27,-2,-1,0,0
1737576,649,-8285,31,-2,-1,0,0
1737581,642,-8283,36,-2,-1,0,0
1737586,636,-8282,40,-2,-1,0,0
1737591,632,-8282,44,-2,-1,0,0
1737596,623,-8282,45,-2,-1,0,0
1737601,616,-8282,45,-2,-1,0,0
1737606,612,-8282,44,-2,0,0,0
1737611,607,-8283,40,-2,0,0,0
1737616,605,-8284,39,-2,1,0,0
1737621,605,-8284,37,-2,1,0,0
1737626,604,-8284,34,-2,2,0,0
1737631,606,-8284,42,-2,2,0,0
1737636,605,-8285,52,-2,2,0,0
1737641,605,-8286,49,-2,3,0,0
1737646,605,-8286,54,-2,3,0,0
1737651,607,-8286,60,-2,3,0,0
1737656,611,-8287,68,-2,3,0,0
1737661,615,-8290,68,-2,3,0,0
1737666,621,-8291,65,-2,2,0,0
1737671,628,-8294,68,-2,2,0,0
1737676,631,-8294,75,-2,2,0,0
1737681,631,-8292,74,-2,1,0,0
1737686,629,-8291,73,-2,1,0,0
1737691,630,-8290,72,-2,1,0,0
1737696,631,-8288,65,-2,1,0,0
1737701,634,-8288,55,-2,0,0,0
1737706,635,-8287,41,-2,0,0,0
1737711,639,-8286,25,-2,0,0,0
1737716,643,-8286,14,-2,0,0,0
1737721,649,-8286,-4,-2,0,0,0
1737726,652,-8287,-22,-2,0,0,0
1737731,651,-8287,-33,-2,0,0,0
1737736,647,-8289,-40,-2,-1,0,0
1737741,639,-8290,-51,-2,-1,0,0
1737746,630,-8290,-54,-1,-1,0,0
1737751,621,-8291,-55,-1,-1,0,0
1737756,618,-8292,-57,-1,-2,0,0
1737761,610,-8296,-63,-1,-2,0,0
1737766,586,-8296,-82,-1,-2,0,0
1737771,547,-8296,-114,-1,-3,0,0
1737776,509,-8298,-154,-2,-3,0,0
1737781,478,-8297,-183,-2,-2,0,0
1737786,454,-8294,-190,-2,-1,0,0
1737791,443,-8292,-190,-2,0,0,0
1737796,443,-8289,-171,-2,1,0,0
1737801,455,-8283,-147,-2,2,0,0
1737806,468,-8282,-131,-2,3,-1,0
1737811,476,-8283,-127,-1,4,-1,0
1737816,482,-8286,-132,-1,4,-1,0
1737821,479,-8291,-153,-1,4,-1,0
1737826,473,-8290,-173,-1,4,-1,0
1737831,467,-8294,-185,-1,4,-1,0
1737836,454,-8294,-194,-1,4,-1,0
1737841,440,-8296,-192,-1,5,-1,0
1737846,430,-8295,-180,-2,5,-1,0
1737851,421,-8296,-165,-1,6,-1,0
1737856,415,-8297,-150,-1,6,-1,0
1737861,414,-8299,-138,-1,6,-1,0
1737866,412,-8302,-133,-1,7,-1,0
1737871,415,-8302,-126,-1,7,-1,0
1737876,414,-8302,-124,-1,6,-1,0
1737881,410,-8300,-120,-1,7,-2,0
1737886,406,-8299,-106,-1,7,-2,0
1737891,402,-8300,-90,-1,6,-2,0
1737896,397,-8301,-65,-1,6,-2,0
1737901,399,-8298,-43,-1,6,-2,0
1737906,404,-8296,-28,-1,6,-2,0
1737911,417,-8296,-16,-1,6,-2,0
1737916,434,-8295,-9,-1,6,-2,0
1737921,451,-8294,-8,-1,6,-2,0
1737926,470,-8292,-5,-1,6,-2,0
1737931,491,-8293,-1,-1,6,-2,0
1737936,514,-8292,-1,-2,5,-2,0
1737941,533,-8291,5,-2,5,-2,0
1737946,555,-8291,14,-2,5,-2,0
1737951,581,-8292,25,-2,4,-2,0
1737956,608,-8291,33,-2,4,-2,0
1737961,640,-8292,32,-2,3,-2,0
1737966,671,-8290,27,-2,3,-2,0
1737971,700,-8290,17,-2,3,-2,0
1737976,726,-8286,8,-2,2,-2,0
1737981,745,-8288,1,-2,2,-2,0
1737986,760,-8284,-3,-2,1,-1,0
1737991,768,-8281,-3,-2,1,-1,0
1737996,774,-8282,-1,-2,1,-1,0
1738001,775,-8280,1,-2,1,-1,0
1738006,776,-8279,-3,-2,1,-1,0
1738011,776,-8277,-8,-2,1,-1,0
1738016,777,-8273,-13,-2,1,-1,0
1738021,775,-8271,-20,-2,1,-1,0
1738026,775,-8274,-28,-2,1,-1,0
1738031,773,-8274,-40,-2,1,-1,0
1738036,766,-8275,-52,-2,1,-1,0
1738041,758,-8277,-57,-2,1,-1,0
1738046,748,-8278,-61,-2,1,-1,0
1738051,734,-8278,-59,-2,2,-1,0
1738056,721,-8277,-58,-2,2,-1,0
1738061,708,-8276,-59,-2,2,-1,0
1738066,695,-8279,-65,-2,2,-1,0
1738071,685,-8280,-75,-2,2,-1,0
1738076,681,-8278,-80,-2,2,-1,0
1738081,675,-8276,-86,-2,2,-1,0
1738086,670,-8277,-88,-2,2,-1,0
1738091,660,-8278,-84,-2,2,-1,0
1738096,646,-8278,-87,-2,2,-1,0
1738101,634,-8278,-86,-2,2,-1,0
1738106,621,-8278,-84,-2,2,-1,0
1738111,607,-8280,-90,-2,2,-1,0
1738116,599,-8281,-94,-2,3,-1,0
1738121,597,-8283,-102,-2,2,-1,0
1738126,595,-8282,-106,-2,2,-1,0
1738131,598,-8280,-104,-2,2,-1,0
1738135,602,-8284,-111,-2,2,-1,0
1738141,603,-8283,-117,-2,2,-1,0
1738146,603,-8283,-121,-2,2,-2,0
1738151,600,-8284,-124,-2,2,-1,0
1738156,597,-8285,-125,-2,2,-1,0
1738161,594,-8285,-128,-2,1,-1,0
1738166,595,-8287,-134,-2,1,-1,0
1738171,604,-8286,-143,-2,0,-1,0
1738176,617,-8286,-146,-2,0,-1,0
1738181,630,-8284,-154,-2,-1,-1,0
1738186,643,-8287,-172,-2,-2,-1,0
1738191,652,-8286,-189,-2,-2,-1,0
1738196,655,-8285,-213,-2,-3,-2,0
1738201,658,-8287,-245,-1,-3,-1,0
1738206,659,-8289,-276,-1,-3,-1,0
1738211,659,-8289,-305,-1,-3,-1,0
1738216,659,-8285,-333,-1,-3,-1,0
1738221,661,-8286,-359,-1,-3,-1,0
1738226,665,-8283,-381,-1,-3,-1,0
1738231,669,-8286,-405,-1,-2,-1,0
1738235,676,-8288,-421,-1,-1,-1,0
1738240,684,-8290,-429,-1,-1,-1,0
1738246,691,-8293,-432,-1,-1,-1,0
1738251,697,-8292,-435,-1,-1,-1,0
1738255,700,-8293,-435,0,0,-1,0
1738261,703,-8292,-431,0,0,-1,0
1738266,704,-8289,-423,0,0,-1,0
1738270,708,-8285,-412,0,0,-1,0
1738276,712,-8283,-396,0,0,-1,0
1738281,716,-8282,-383,0,0,-1,0
1738285,720,-8284,-368,0,-1,-1,0
1738290,723,-8285,-352,0,-1,-1,0
1738295,726,-8285,-334,0,-1,-1,0
1738301,729,-8285,-318,0,-1,-1,0
1738306,728,-8285,-298,0,-2,-1,0
1738311,728,-8285,-284,0,-3,-1,0
1738316,730,-8285,-270,0,-3,-1,0
1738321,733,-8283,-255,0,-4,-1,0
1738325,740,-8284,-244,0,-4,-1,0
1738330,748,-8284,-232,0,-4,-1,0
1738335,758,-8282,-232,0,-5,-1,0
1738341,766,-8284,-229,0,-5,-1,0
1738345,772,-8285,-227,0,-5,-1,0
1738350,780,-8285,-228,0,-6,-1,0
1738355,788,-8284,-232,0,-6,-1,0
1738361,798,-8280,-235,0,-6,-1,0
1738366,810,-8280,-232,0,-6,-1,0
1738371,823,-8283,-229,0,-6,-1,0
1738375,838,-8283,-229,0,-6,-1,0
1738380,850,-8284,-230,0,-7,-1,0
1738386,859,-8283,-225,0,-7,-1,0
1738391,869,-8281,-216,0,-7,-1,0
1738395,881,-8282,-206,1,-7,0,0
1738400,894,-8282,-198,1,-8,0,0
1738405,903,-8282,-192,1,-8,0,0
1738410,917,-8283,-185,1,-9,0,0
1738415,929,-8283,-181,1,-9,0,0
1738420,935,-8281,-177,1,-10,0,0
1738425,936,-8278,-176,1,-11,0,0
1738430,937,-8277,-174,1,-11,0,0
1738435,933,-8278,-169,1,-12,0,0
1738440,924,-8281,-169,1,-12,0,0
1738445,918,-8282,-177,1,-12,0,0
1738450,905,-8281,-183,1,-12,0,0
1738455,892,-8280,-184,1,-12,0,0
1738460,875,-8279,-189,1,-12,0,0
1738465,852,-8278,-190,1,-12,0,0
1738471,825,-8278,-191,1,-12,0,0
1738475,795,-8281,-190,1,-12,0,0
1738480,765,-8283,-195,1,-12,0,0
1738486,739,-8281,-188,1,-12,0,0
1738490,714,-8280,-186,1,-12,0,0
1738495,694,-8282,-188,1,-12,0,0
1738500,673,-8284,-191,1,-12,0,0
1738505,654,-8285,-196,1,-12,0,0
1738511,633,-8286,-207,1,-12,0,0
1738515,612,-8287,-213,1,-12,0,0
1738520,587,-8285,-221,1,-12,0,0
1738525,563,-8283,-222,1,-12,0,0
1738530,537,-8282,-214,1,-12,0,0
1738535,518,-8282,-210,1,-13,0,0
1738540,502,-8282,-211,1,-13,0,0
1738545,491,-8282,-206,1,-13,0,0
1738550,483,-8282,-205,1,-14,0,0
1738555,480,-8280,-200,1,-14,0,0
1738560,478,-8281,-205,1,-14,-1,0
1738565,475,-8286,-204,1,-15,-1,0
1738570,471,-8287,-210,1,-15,-1,0
1738575,466,-8288,-217,1,-15,-1,0
1738580,460,-8290,-225,2,-16,-1,0
1738585,451,-8288,-231,2,-17,-1,0
1738590,444,-8292,-234,2,-17,-1,0
1738595,435,-8292,-233,2,-18,-1,0
1738600,428,-8293,-233,2,-18,-1,0
1738605,422,-8293,-237,2,-18,-1,0
1738610,417,-8295,-240,2,-18,-1,0
1738615,412,-8296,-249,2,-17,-1,0
1738620,413,-8297,-263,2,-17,-1,0
1738625,413,-8301,-276,2,-16,-2,0
1738630,414,-8303,-285,2,-16,-2,0
1738635,419,-8303,-286,2,-15,-2,0
1738640,421,-8305,-280,2,-15,-2,0
1738645,426,-8303,-272,2,-14,-2,0
1738650,435,-8302,-263,2,-14,-2,0
1738655,455,-8301,-251,2,-13,-2,0
1738660,472,-8299,-249,2,-13,-2,0
1738665,496,-8298,-259,3,-12,-2,0
1738670,516,-8296,-268,3,-12,-2,0
1738675,535,-8296,-276,3,-12,-2,0
1738680,554,-8296,-277,3,-12,-2,0
1738685,571,-8295,-278,3,-11,-2,0
1738690,587,-8293,-266,3,-11,-2,0
1738695,607,-8291,-252,3,-11,-2,0
1738700,627,-8290,-233,3,-11,-2,0
1738705,649,-8289,-217,3,-10,-2,0
1738710,666,-8288,-209,3,-10,-2,0
1738715,684,-8288,-206,3,-10,-2,0
1738720,697,-8289,-202,3,-10,-2,0
1738725,708,-8293,-197,3,-9,-2,0
1738730,714,-8293,-182,3,-8,-2,0
1738735,720,-8294,-165,3,-8,-2,0
1738740,725,-8295,-141,3,-7,-2,0
1738745,726,-8293,-110,3,-7,-2,0
1738750,725,-8290,-78,3,-7,-2,0
1738755,725,-8285,-46,3,-6,-2,0
1738760,725,-8283,-20,3,-6,-2,0
1738765,725,-8282,-6,3,-7,-2,0
1738770,722,-8280,0,3,-7,-2,0
1738775,719,-8280,8,3,-6,-2,0
1738780,713,-8281,14,3,-6,-2,0
1738785,712,-8282,24,3,-6,-2,0
1738790,708,-8282,35,3,-6,-2,0
1738795,705,-8282,52,3,-6,-2,0
1738800,707,-8281,68,3,-7,-2,0
1738805,709,-8281,91,3,-7,-2,0
1738810,716,-8279,106,3,-8,-2,0
1738815,726,-8277,116,3,-8,-2,0
1738820,734,-8277,123,3,-8,-2,0
1738825,743,-8277,124,3,-9,-2,0
1738830,748,-8281,111,3,-8,-2,0
1738835,746,-8283,105,2,-8,-2,0
1738840,741,-8284,101,2,-7,-2,0
1738845,735,-8281,97,2,-6,-2,0
1738850,734,-8280,100,2,-6,-2,0
1738855,738,-8278,109,2,-6,-2,0
1738860,745,-8279,120,2,-6,-2,0
1738865,760,-8280,127,2,-6,-2,0
1738870,777,-8281,143,2,-6,-2,0
1738875,795,-8283,164,2,-6,-2,0
1738880,811,-8283,175,2,-7,-2,0
1738885,821,-8281,180,2,-7,-2,0
1738890,826,-8282,182,2,-8,-2,0
1738895,830,-8280,182,2,-8,-2,0
1738900,835,-8278,186,2,-8,-2,0
1738905,838,-8275,190,2,-8,-2,0
1738910,844,-8272,192,2,-8,-2,0
1738915,850,-8273,195,2,-8,-2,0
1738920,857,-8273,198,2,-8,-2,0
1738925,865,-8271,196,2,-8,-2,0
1738930,873,-8269,194,2,-8,-2,0
1738935,877,-8268,189,2,-8,-2,0
1738940,881,-8267,189,2,-8,-2,0
1738945,883,-8271,184,2,-8,-2,0
1738950,880,-8276,178,2,-7,-2,0
1738955,880,-8276,184,2,-7,-2,0
1738960,880,-8279,186,2,-7,-2,0
1738965,878,-8278,186,2,-7,-2,0
1738970,881,-8277,192,2,-7,-2,0
1738975,886,-8278,191,2,-6,-2,0
1738980,884,-8280,183,2,-6,-2,0
1738985,885,-8283,179,2,-6,-2,0
1738990,886,-8282,176,2,-5,-2,0
1738995,890,-8281,174,2,-5,-2,0
1739000,894,-8280,173,2,-5,-2,0
1739005,902,-8282,178,2,-4,-2,0
1739010,910,-8281,192,1,-4,-1,0
1739015,923,-8282,204,1,-3,-1,0
1739020,935,-8284,218,1,-3,-1,0
1739025,949,-8284,233,1,-4,-1,0
1739030,962,-8282,247,1,-4,-1,0
1739035,971,-8283,266,1,-5,-1,0
1739040,981,-8285,281,1,-6,-1,0
1739045,989,-8287,291,1,-6,-1,0
1739050,990,-8287,301,1,-7,-1,0
1739055,989,-8287,303,1,-7,-1,0
1739060,986,-8288,303,1,-7,-1,0
1739065,979,-8288,298,1,-7,-1,0
1739070,974,-8287,288,1,-7,-1,0
1739075,968,-8286,278,1,-7,-1,0
1739080,967,-8286,271,1,-7,-1,0
1739085,966,-8285,269,1,-7,-1,0
1739090,968,-8283,266,1,-7,-1,0
1739095,974,-8284,263,1,-7,0,0
1739100,975,-8285,257,1,-7,-1,0
1739105,976,-8286,252,1,-7,0,0
1739110,974,-8284,247,1,-7,0,0
1739115,971,-8283,239,1,-7,0,0
1739120,968,-8282,232,1,-7,0,0
1739125,965,-8282,231,1,-8,0,0
1739130,962,-8282,234,1,-8,0,0
1739135,957,-8280,237,1,-8,0,0
1739140,954,-8278,237,1,-8,0,0
1739145,947,-8276,235,1,-8,0,0
1739150,939,-8275,235,1,-9,0,0
1739155,929,-8273,233,1,-9,0,0
1739160,923,-8277,220,1,-8,0,0
1739165,915,-8279,206,1,-8,0,0
1739170,906,-8280,200,1,-8,0,0
1739175,896,-8281,193,1,-8,0,0
1739180,885,-8282,189,1,-8,0,0
1739185,878,-8279,188,1,-8,0,0
1739190,872,-8279,193,1,-7,0,0
1739195,866,-8278,197,1,-7,0,0
1739200,867,-8278,196,1,-7,0,0
1739205,868,-8280,186,1,-6,0,0
1739210,866,-8283,178,1,-6,0,0
1739215,864,-8285,170,1,-6,0,0
1739220,857,-8286,161,1,-5,0,0
1739225,847,-8288,158,1,-5,0,0
1739230,839,-8289,152,1,-5,0,0
1739235,829,-8290,156,1,-5,0,0
1739240,817,-8290,164,1,-4,0,0
1739245,812,-8290,171,1,-4,0,0
1739250,812,-8287,173,1,-4,0,0
1739255,812,-8287,177,1,-5,0,0
1739260,817,-8287,175,1,-5,0,0
1739265,818,-8286,175,1,-6,0,0
1739270,817,-8283,183,1,-6,0,0
1739275,816,-8287,188,1,-6,0,0
1739280,807,-8289,190,1,-6,0,0
1739285,796,-8289,187,1,-6,0,0
1739290,783,-8289,182,1,-6,0,0
1739295,771,-8286,177,1,-5,0,0
1739300,760,-8283,177,1,-5,0,0
1739305,753,-8282,174,1,-4,0,0
1739310,749,-8284,175,1,-3,0,0
1739315,749,-8286,174,1,-3,0,0
1739320,747,-8285,173,1,-3,0,0
1739325,747,-8284,171,1,-2,0,0
1739330,742,-8281,176,1,-2,0,0
1739335,735,-8277,181,1,-1,0,0
1739340,726,-8277,182,1,-1,0,0
1739345,718,-8277,186,1,-1,0,0
1739350,708,-8279,191,1,-1,0,0
1739355,702,-8279,200,1,-1,0,0
1739360,695,-8281,210,1,-1,0,0
1739365,689,-8285,226,1,-1,0,0
1739370,688,-8289,242,1,-1,0,0
1739375,686,-8289,258,1,-1,0,0
1739380,689,-8286,273,1,-1,0,0
1739385,689,-8285,287,1,-1,0,0
1739390,684,-8284,292,1,-1,0,0
1739395,678,-8282,300,1,-1,0,0
1739400,677,-8280,307,1,-1,-1,0
1739405,676,-8278,314,0,-1,-1,0
1739410,675,-8279,321,0,-1,-1,0
1739415,676,-8280,326,0,-1,-1,0
1739420,679,-8282,328,0,-1,-1,0
1739425,681,-8283,339,0,0,-1,0
1739430,684,-8280,349,0,0,-1,0
1739435,690,-8283,354,0,0,-1,0
1739440,693,-8281,360,0,0,-1,0
1739445,700,-8280,363,0,0,-1,0
1739450,704,-8280,368,0,-1,-1,0
1739455,711,-8280,370,0,-1,-1,0
1739460,716,-8281,373,0,-1,-1,0
1739465,724,-8280,371,0,-1,-1,0
1739470,731,-8280,370,0,-1,-1,0
1739475,736,-8281,367,0,-1,-1,0
1739480,742,-8282,368,0,-1,-1,0
1739485,751,-8282,360,0,-1,-1,0
1739490,755,-8283,352,0,-2,-1,0
1739495,761,-8283,349,0,-2,-1,0
1739500,767,-8286,351,0,-2,-1,0
1739505,774,-8289,355,0,-2,-1,0
1739510,778,-8289,363,0,-2,-1,0
1739515,781,-8286,366,0,-2,-1,0
1739520,792,-8283,361,0,-2,-1,0
1739525,800,-8282,355,0,-2,-1,0
1739530,809,-8282,346,0,-2,-1,0
1739535,818,-8283,334,0,-2,-1,0
1739540,827,-8285,324,0,-2,-1,0
1739545,833,-8287,318,0,-2,-1,0
1739550,840,-8288,313,-1,-2,-1,0
1739555,843,-8288,314,-1,-2,0,0
1739560,848,-8288,314,0,-2,0,0
1739565,855,-8287,318,0,-2,0,0
1739570,862,-8286,318,0,-3,0,0
1739575,866,-8284,314,0,-3,0,0
1739580,873,-8284,303,-1,-3,0,0
1739585,874,-8282,289,0,-3,0,0
1739590,872,-8280,277,-1,-3,0,0
1739595,870,-8279,265,-1,-3,0,0
1739600,868,-8276,254,-1,-3,0,0
1739605,863,-8278,247,-1,-4,0,0
1739610,856,-8282,247,-1,-3,0,0
1739615,852,-8286,243,-1,-3,0,0
1739620,847,-8286,240,0,-3,0,0
1739625,841,-8288,232,0,-3,0,0
1739630,836,-8286,221,0,-3,0,0
1739635,830,-8285,211,0,-3,0,0
1739640,820,-8284,202,0,-3,0,0
1739645,811,-8282,194,0,-3,0,0
1739650,801,-8277,188,0,-2,0,0
1739655,792,-8278,191,0,-2,0,0
1739660,784,-8281,190,0,-1,0,0
1739665,781,-8284,188,0,-1,0,0
1739670,778,-8284,183,0,-1,0,0
1739675,778,-8285,183,0,-1,0,0
1739680,776,-8283,185,0,-1,0,0
1739685,777,-8282,180,0,-1,0,0
1739690,778,-8283,176,0,-1,0,0
1739695,776,-8282,178,0,-1,0,0
1739700,771,-8281,182,0,0,0,0
1739705,767,-8281,186,0,0,0,0
1739710,761,-8281,188,0,0,0,0
1739715,756,-8281,192,0,0,0,0
1739720,752,-8281,197,0,-1,0,0
1739725,748,-8282,209,0,-1,0,0
1739730,744,-8282,217,0,-1,0,0
1739735,743,-8283,224,0,-1,0,0
1739740,743,-8284,228,0,-1,0,0
1739745,743,-8283,227,0,-1,0,0
1739750,743,-8286,228,0,-1,0,0
1739755,741,-8287,230,0,-2,0,0
1739760,739,-8289,226,0,-2,0,0
1739765,737,-8290,223,0,-1,0,0
1739770,732,-8291,223,0,-1,0,0
1739775,731,-8290,228,0,-1,0,0
1739780,728,-8289,227,0,-1,0,0
1739785,730,-8289,228,0,0,0,0
1739790,734,-8285,229,0,0,0,0
1739795,738,-8286,226,0,0,0,0
1739800,741,-8284,222,0,0,0,0
1739805,747,-8284,227,0,0,0,0
1739810,751,-8283,229,0,-1,0,0
1739815,751,-8280,236,0,-1,0,0
1739820,751,-8278,244,0,-1,0,0
1739825,746,-8279,245,0,-1,0,0
1739830,744,-8281,247,0,-1,0,0
1739835,742,-8284,244,0,-1,0,0
1739840,744,-8285,233,0,-1,0,0
1739845,747,-8286,226,0,-1,0,0
1739850,752,-8288,222,0,-1,0,0
1739855,758,-8288,221,0,-1,0,0
1739860,759,-8287,222,0,-1,0,0
1739865,758,-8289,223,0,-1,0,0
1739870,756,-8287,230,0,-1,0,0
1739875,756,-8284,230,0,-1,0,0
1739880,754,-8284,227,0,0,0,0
1739885,753,-8283,221,0,0,0,0
1739890,754,-8284,218,0,0,-1,0
1739895,754,-8284,224,0,0,0,0
1739900,755,-8280,232,0,-1,0,0
1739905,759,-8282,241,0,-1,0,0
1739910,763,-8283,253,0,-1,0,0
1739915,769,-8285,270,0,-1,0,0
1739920,773,-8284,278,0,-1,0,0
1739925,775,-8283,283,0,-1,0,0
1739930,774,-8287,285,0,-1,0,0
1739935,770,-8288,285,0,-1,0,0
1739940,769,-8287,284,0,-1,0,0
1739945,767,-8285,284,0,-1,0,0
1739950,766,-8289,280,0,-1,0,0
1739955,763,-8288,278,0,-1,0,0
1739960,763,-8287,279,0,-1,0,0
1739965,766,-8287,291,0,-1,0,0
1739970,762,-8288,297,0,-1,0,0
1739975,756,-8291,299,0,-2,0,0
1739980,749,-8292,299,0,-2,0,0
1739985,745,-8291,293,0,-2,0,0
1739990,740,-8290,290,0,-2,0,0
1739995,735,-8291,277,0,-1,-1,0
1740000,730,-8293,259,0,0,-1,0
1740005,728,-8291,248,0,0,-1,0
1740010,725,-8289,241,-1,0,-1,0
1740015,724,-8290,243,-1,0,-1,0
1740020,726,-8291,247,-1,0,-1,0
1740025,730,-8289,257,-1,0,-1,0
1740030,736,-8286,272,-1,0,-1,0
1740035,740,-8285,283,-1,0,-1,0
1740040,744,-8284,287,-1,0,-1,0
1740045,746,-8283,285,-1,0,-1,0
1740050,748,-8286,279,-1,0,-1,0
1740055,750,-8287,267,-1,-1,-1,0
1740060,749,-8287,262,-1,-1,-1,0
1740065,747,-8288,260,-1,-1,-1,0
1740070,747,-8287,261,-1,-1,-1,0
1740075,748,-8287,266,-1,-1,-1,0
1740080,747,-8286,268,-1,-1,-1,0
1740085,749,-8284,271,-1,-1,-1,0
1740090,752,-8285,268,-1,-1,-1,0
1740095,751,-8287,262,-1,-1,-1,0
1740100,751,-8287,251,-1,-1,-1,0
1740105,750,-8286,248,-1,-1,-1,0
1740110,750,-8288,247,-1,-1,-1,0
1740115,750,-8292,249,-1,-1,-1,0
1740120,750,-8293,246,-1,0,-1,0
1740125,748,-8292,246,-1,0,-1,0
1740130,750,-8293,242,-1,0,-1,0
1740135,749,-8292,243,-1,0,-1,0
1740140,749,-8292,245,-1,0,-1,0
1740145,750,-8294,242,-1,0,-1,0
1740150,754,-8291,244,-1,0,-1,0
1740155,761,-8290,243,-1,0,-1,0
1740160,768,-8288,241,-1,0,-1,0
1740165,771,-8286,240,-1,-1,-1,0
1740170,772,-8283,240,-1,-1,-1,0
1740175,771,-8283,236,-1,-1,-1,0
1740180,771,-8282,236,-1,-1,-1,0
1740185,771,-8285,237,-1,-1,-1,0
1740190,774,-8284,245,-1,-1,-1,0
1740195,781,-8284,246,-1,-1,-1,0
1740200,786,-8283,249,-1,-1,-1,0
1740205,792,-8283,248,-1,-1,-1,3
1740210,793,-8280,244,-1,0,-1,3
1740215,793,-8281,235,-1,0,-1,3
1740220,786,-8284,232,-1,0,-1,3
1740225,782,-8284,230,-1,0,-1,3
1740230,777,-8283,228,-1,0,-1,3
1740235,775,-8281,224,-1,0,-1,3
1740240,774,-8280,224,-1,0,-1,3
1740245,777,-8277,225,-1,0,-1,3
1740250,779,-8280,226,-1,0,-1,3
1740255,780,-8281,222,-1,0,-1,3
1740260,782,-8281,219,-1,-1,-1,3
1740265,780,-8283,216,-1,-1,-1,3
1740270,776,-8283,219,-1,-1,-1,3
1740275,772,-8283,223,-1,-1,-1,3
1740280,772,-8282,224,-1,-1,-1,3
1740285,771,-8283,230,-1,-1,-1,3
1740290,772,-8280,235,-1,-1,-1,3
1740295,774,-8278,228,-1,0,-1,3
1740300,776,-8277,220,-1,0,-1,3
1740305,780,-8279,219,-1,0,-1,3
1740310,781,-8278,216,-1,0,-1,3
1740315,781,-8278,209,-1,0,-1,3
1740320,778,-8278,210,-1,0,0,3
1740325,780,-8280,212,-1,0,-1,3
1740330,781,-8281,216,-1,0,-1,3
1740335,782,-8278,221,-1,0,0,3
1740340,783,-8276,223,-1,0,-1,3
1740345,787,-8277,222,0,0,-1,3
1740350,786,-8280,219,0,0,0,3
1740355,785,-8283,211,0,-1,0,3
1740360,784,-8283,201,0,-1,0,3
1740365,783,-8284,197,-1,-1,0,3
1740370,782,-8287,196,0,-1,0,3
1740375,783,-8287,199,-1,-1,0,3
1740380,783,-8288,206,0,-1,0,3
1740385,782,-8289,212,0,-1,0,3
1740390,778,-8288,214,0,-1,0,3
1740395,774,-8289,213,0,0,0,3
1740400,769,-8291,216,0,0,0,3
1740405,768,-8294,214,0,0,0,3
1740410,767,-8295,212,0,0,0,3
1740415,766,-8295,214,0,0,0,3
1740420,764,-8294,217,0,0,0,3
1740425,762,-8290,218,0,0,0,3
1740430,757,-8286,219,0,0,-1,3
1740435,755,-8288,218,0,0,-1,3
1740440,751,-8291,222,0,0,-1,3
1740445,749,-8295,222,0,0,0,3
1740450,750,-8293,222,0,0,0,3
1740455,750,-8290,230,0,0,0,3
1740460,754,-8288,232,0,0,-1,3
1740465,756,-8289,231,0,0,-1,3
1740470,759,-8289,235,0,0,-1,3
1740475,760,-8290,239,0,0,-1,3
1740480,761,-8290,242,0,0,-1,3
1740485,759,-8289,246,0,0,-1,3
1740490,757,-8288,246,0,0,-1,3
1740495,756,-8286,249,0,0,-1,3
1740500,757,-8285,251,0,0,-1,3
1740505,761,-8282,256,0,0,-1,3
1740510,764,-8279,260,0,0,0,3
1740515,764,-8279,261,0,0,-1,3
1740520,767,-8281,262,0,0,-1,3
1740525,771,-8277,261,0,0,0,3
1740530,772,-8278,261,-1,0,0,3
1740535,771,-8277,260,0,0,0,3
1740540,771,-8278,259,0,0,-1,3
1740545,769,-8282,259,-1,0,-1,3
1740550,768,-8283,262,0,0,-1,3
1740555,765,-8283,259,0,0,-1,3
1740560,761,-8285,254,-1,0,-1,3
1740565,759,-8289,253,0,0,-1,3
1740570,757,-8289,250,-1,0,-1,3
1740575,758,-8288,250,-1,0,-1,3
1740580,760,-8284,253,-1,0,-1,3
1740585,763,-8282,253,-1,0,-1,3
1740590,769,-8281,254,-1,0,-1,3
1740595,773,-8279,263,-1,0,0,3
1740600,778,-8278,263,-1,-1,-1,3
1740605,783,-8279,263,-1,-1,-1,3
1740610,783,-8281,261,-1,-1,0,3
1740615,780,-8280,256,-1,-1,-1,3
1740620,778,-8282,260,-1,-1,0,3
1740625,773,-8283,251,-1,-1,-1,3
1740630,771,-8285,248,-1,-1,0,3
1740635,773,-8287,244,-1,-1,0,3
1740640,775,-8289,241,-1,-1,0,3
1740645,776,-8286,238,-1,-1,-1,3
1740650,779,-8283,232,-1,-1,-1,3
1740655,778,-8283,221,-1,-1,0,3
1740660,778,-8285,217,-1,0,0,3
1740665,779,-8284,214,-1,0,0,3
1740670,779,-8283,209,-1,0,-1,3
1740675,780,-8283,206,-1,0,0,3
1740680,787,-8283,198,-1,0,0,3
1740685,795,-8282,203,-1,0,0,3
1740690,803,-8280,205,-1,0,0,3
1740695,809,-8278,201,-1,-1,0,3
1740700,816,-8279,200,0,-1,0,3
1740705,821,-8281,194,0,-1,0,3
1740710,821,-8283,187,0,-1,0,3
1740715,819,-8286,183,0,-1,0,3
1740720,814,-8287,178,0,-1,0,3
1740725,814,-8288,177,0,-1,0,3
1740730,814,-8287,177,0,-1,0,3
1740735,814,-8289,179,0,-1,0,3
1740740,818,-8290,181,0,-1,0,3
1740745,820,-8289,187,0,-1,0,3
1740750,822,-8290,188,0,-1,0,3
1740755,821,-8287,196,0,-1,0,3
1740760,818,-8286,199,0,-1,0,3
1740765,811,-8287,199,0,-1,0,3
1740770,803,-8289,198,0,-1,0,3
1740775,795,-8290,196,0,-1,0,3
1740780,787,-8288,198,0,-1,0,3
1740785,782,-8289,198,0,-1,0,3
1740790,775,-8286,199,0,-1,0,3
1740795,768,-8286,198,0,-1,0,3
1740800,764,-8286,195,0,-1,0,3
1740805,762,-8284,195,0,-1,0,3
1740810,761,-8281,194,0,-1,0,3
1740815,762,-8283,196,0,-1,0,3
1740820,761,-8284,206,0,-1,0,3
1740825,758,-8284,217,0,-1,0,3
1740830,764,-8285,220,0,0,0,3
1740835,777,-8284,226,0,0,0,3
1740840,804,-8285,239,0,0,0,3
1740845,849,-8287,248,0,-1,0,3
1740850,912,-8287,254,0,-1,0,3
1740855,990,-8288,252,0,-2,1,3
1740860,1087,-8289,235,0,-3,1,3
1740865,1191,-8290,203,0,-5,1,3
1740870,1290,-8288,154,0,-8,1,3
1740875,1364,-8289,82,0,-12,2,3
1740880,1404,-8288,1,1,-16,2,3
1740885,1402,-8288,-81,1,-19,2,3
1740890,1361,-8291,-168,1,-21,2,3
1740895,1285,-8296,-247,1,-22,3,3
1740900,1177,-8304,-314,1,-21,3,3
1740905,1036,-8310,-357,1,-21,3,3
1740910,855,-8320,-373,1,-19,2,3
1740915,650,-8467,-359,1,-16,2,3
1740920,442,-8843,-278,1,-11,2,3
1740925,222,-9334,-89,1,-5,1,3
1740930,-28,-9854,110,1,2,0,3
1740935,-308,-10364,324,1,7,-1,3
1740940,-612,-10847,489,1,8,-2,3
1740945,-921,-11286,604,1,9,-4,3
1740950,-1145,-11657,694,0,12,-5,3
1740955,-1240,-11930,780,-1,14,-6,3
1740960,-1214,-12084,877,-1,16,-7,3
1740965,-1121,-12123,957,-2,17,-7,3
1740970,-1013,-12058,1018,-2,18,-8,3
1740975,-913,-11902,1058,-2,19,-9,3
1740980,-827,-11658,1062,-2,18,-9,3
1740985,-725,-11351,1041,-3,18,-9,3
1740990,-584,-10982,1003,-3,18,-9,3
1740995,-403,-10561,957,-3,18,-9,3
1741000,-195,-10092,909,-4,20,-9,3
1741005,17,-9577,850,-4,21,-9,3
1741010,224,-9020,784,-4,22,-9,3
1741015,428,-8431,712,-4,22,-8,3
1741020,635,-7821,637,-4,21,-8,3
1741025,859,-7205,557,-4,18,-7,3
1741030,1089,-6598,478,-4,14,-6,3
1741035,1311,-6010,395,-4,10,-5,3
1741040,1519,-5449,313,-3,7,-4,3
1741045,1696,-4917,236,-3,3,-3,3
1741050,1839,-4406,166,-3,-1,-2,3
1741055,1952,-3925,91,-3,-4,-1,3
1741060,2035,-3479,11,-3,-6,1,3
1741065,2113,-3065,-76,-2,-7,2,3
1741070,2192,-2676,-165,-2,-7,3,3
1741075,2269,-2309,-243,-2,-6,4,3
1741080,2344,-1963,-318,-2,-5,5,3
1741085,2404,-1645,-386,-1,-3,6,3
1741090,2433,-1351,-457,-1,-2,8,3
1741095,2431,-1094,-526,0,-1,9,3
1741100,2410,-878,-589,0,1,10,3
1741105,2380,-716,-644,0,2,12,3
1741110,2338,-613,-688,1,4,13,3
1741115,2269,-565,-724,1,6,15,3
1741120,2164,-567,-726,2,7,17,3
1741125,2032,-630,-699,2,9,20,3
1741130,1828,-785,-648,3,9,22,3
1741135,1651,-3013,-952,3,7,23,3
1741140,588,-1064,-658,33,30,23,3
1741145,2221,-2155,48,4,114,11,3
1741150,2128,-3112,424,3,93,2,3
1741155,1631,-3868,369,2,-24,-7,3
1741160,1729,-4591,28,2,-69,-13,3
1741165,822,-6010,111,2,-49,-4,3
1741170,177,-7492,255,1,-37,3,3
1741175,230,-8447,457,-1,4,4,3
1741180,214,-8979,667,-3,19,7,3
1741185,531,-9475,1155,-3,8,3,3
1741190,606,-10120,1715,-3,-4,-1,3
1741195,352,-10786,1954,-4,-26,-4,3
1741200,-227,-11243,2104,-4,-36,-5,3
1741205,-823,-11386,2180,-5,-35,-6,3
1741210,-1304,-11339,2173,-6,-32,-7,3
1741215,-1673,-11232,2031,-6,-32,-7,3
1741220,-1791,-11086,1738,-7,-28,-7,3
1741225,-1637,-10882,1430,-8,-20,-8,3
1741230,-1494,-10577,1239,-9,-17,-8,3
1741235,-1375,-10175,1102,-9,-16,-9,3
1741240,-1190,-9688,977,-10,-11,-10,3
1741245,-1064,-9150,886,-9,-5,-10,3
1741250,-915,-8567,758,-9,-5,-10,3
1741255,-738,-7926,553,-8,-3,-10,3
1741260,-591,-7239,326,-8,-2,-10,3
1741265,-404,-6513,74,-7,-2,-9,3
1741270,-194,-5752,-180,-7,4,-9,3
1741275,-26,-4973,-373,-6,11,-8,3
1741280,177,-4187,-560,-5,17,-7,3
1741285,418,-3408,-736,-4,24,-6,3
1741290,608,-2657,-868,-3,28,-4,3
1741295,789,-1953,-995,-2,27,-2,3
1741300,1160,-1303,-1143,-1,28,-1,3
1741305,1646,-727,-1290,0,30,0,3
1741310,2086,-219,-1416,1,30,1,3
1741315,2285,252,-1455,1,28,2,3
1741320,2194,698,-1406,2,26,4,3
1741325,2033,1122,-1339,2,26,6,3
1741330,1893,1493,-1256,3,27,8,3
1741335,1857,1779,-1206,4,25,11,3
1741340,1980,1979,-1216,4,25,12,3
1741345,2075,2104,-1217,5,24,13,3
1741350,2051,2179,-1191,5,20,15,3
1741355,1810,-472,-1319,9,18,16,3
1741360,841,1935,-370,42,57,15,3
1741365,2238,2537,235,6,125,1,3
1741370,2401,1567,136,2,53,-7,3
1741375,1611,338,-590,3,-36,-21,3
1741380,967,-888,-1016,5,-55,-20,3
1741385,-834,-1941,-979,7,2,-7,3
1741390,-1398,-2871,-1112,5,43,1,3
1741395,-499,-3694,-973,3,72,5,3
1741400,79,-4357,-617,2,51,10,3
1741405,468,-4923,-494,1,-5,11,3
1741410,616,-5393,-339,1,-42,8,3
1741415,938,-5782,102,1,-45,4,3
1741420,1221,-6115,463,1,-28,2,3
1741425,1307,-6385,607,2,-14,1,3
1741430,1472,-6623,910,3,-10,0,3
1741435,1380,-6850,1063,4,-11,0,3
1741440,1100,-7059,975,4,-19,0,3
1741445,1010,-7241,975,5,-21,-1,3
1741450,804,-7391,877,5,-22,-1,3
1741454,578,-7527,672,4,-21,-1,3
1741460,485,-7645,605,4,-14,-1,3
1741465,269,-7741,525,3,-9,0,3
1741470,114,-7827,428,3,-9,0,3
1741475,65,-7899,436,3,-5,0,3
1741480,-51,-7957,395,2,-5,1,3
1741485,-37,-8001,386,2,-4,0,3
1741490,26,-8038,464,2,0,0,3
1741495,31,-8069,483,2,0,0,3
1741500,121,-8094,519,2,2,-1,3
1741505,170,-8113,563,2,5,-2,3
1741510,151,-8133,528,2,4,-2,3
1741515,164,-8156,510,2,7,-3,3
1741520,113,-8177,479,2,10,-3,3
1741525,53,-8197,410,2,10,-3,3
1741530,45,-8214,369,2,13,-3,3
1741535,27,-8227,346,2,14,-3,3
1741540,55,-8236,341,2,14,-3,3
1741545,122,-8243,377,2,16,-3,3
1741550,184,-8249,410,2,16,-3,3
1741555,261,-8251,456,2,16,-3,3
1741560,326,-8254,496,2,16,-3,3
1741565,369,-8256,524,2,15,-4,3
1741570,393,-8259,545,2,15,-4,3
1741575,381,-8263,535,2,16,-4,3
1741580,381,-8265,535,2,15,-4,3
1741585,385,-8266,549,1,15,-4,3
1741590,383,-8266,559,1,15,-4,3
1741595,424,-8262,586,1,15,-4,3
1741600,478,-8260,621,1,15,-3,3
1741605,525,-8259,644,1,16,-4,3
1741610,594,-8256,674,1,16,-4,3
1741615,656,-8254,687,1,16,-4,3
1741619,691,-8256,680,1,15,-4,3
1741625,724,-8256,677,1,13,-4,3
1741629,729,-8257,681,1,13,-4,3
1741634,729,-8257,688,0,13,-4,3
1741639,745,-8256,718,0,11,-3,3
1741644,744,-8257,751,0,11,-3,3
1741649,765,-8256,784,0,9,-3,3
1741654,809,-8252,837,0,8,-3,3
1741659,827,-8248,876,0,7,-3,3
1741664,875,-8249,906,0,6,-3,3
1741669,912,-8247,950,0,5,-3,3
1741674,911,-8248,968,-1,4,-3,3
1741680,923,-8254,985,-1,2,-3,3
1741685,919,-8254,1026,-1,2,-3,3
1741690,903,-8250,1051,-2,0,-3,3
1741694,912,-8247,1086,-2,0,-2,3
1741699,916,-8244,1137,-2,-1,-2,3
1741705,928,-8242,1157,-2,-2,-2,3
1741710,967,-8239,1167,-2,-3,-2,3
1741715,993,-8241,1171,-2,-3,-2,3
1741719,1020,-8245,1146,-3,-5,-2,3
1741724,1050,-8243,1124,-3,-6,-2,3
1741730,1057,-8242,1111,-3,-8,-2,3
1741735,1068,-8245,1089,-3,-10,-2,3
1741739,1076,-8247,1094,-4,-12,-1,3
1741744,1054,-8247,1090,-4,-13,-1,3
1741749,1049,-8249,1063,-4,-14,-1,3
1741755,1052,-8247,1049,-4,-14,-1,3
1741759,1036,-8247,994,-4,-15,-1,3
1741765,1045,-8250,916,-4,-15,-1,3
1741769,1061,-8251,859,-4,-15,-1,3
1741775,1067,-8255,786,-4,-15,-1,3
1741779,1081,-8255,718,-4,-15,-1,3
1741785,1085,-8254,684,-4,-14,0,3
1741789,1077,-8252,638,-4,-14,0,3
1741794,1075,-8255,602,-4,-13,0,3
1741800,1056,-8260,576,-4,-13,0,3
1741804,1035,-8264,519,-4,-12,0,3
1741809,1028,-8268,461,-4,-12,0,3
1741815,1017,-8272,410,-4,-12,0,3
1741819,1011,-8278,336,-4,-12,0,3
1741824,1010,-8277,282,-4,-11,0,3
1741829,1001,-8277,238,-4,-11,0,3
1741835,992,-8279,190,-4,-11,0,3
1741839,981,-8278,166,-4,-10,0,3
1741844,962,-8276,150,-4,-9,0,3
1741850,952,-8278,122,-4,-9,0,3
1741854,939,-8279,122,-4,-8,0,3
1741859,921,-8281,98,-3,-8,0,3
1741865,914,-8283,62,-3,-7,0,3
1741869,910,-8280,42,-3,-7,0,3
1741875,904,-8280,5,-3,-6,0,3
1741879,904,-8282,-28,-3,-5,0,3
1741884,897,-8282,-34,-3,-5,0,3
1741890,876,-8286,-51,-3,-5,0,3
1741895,861,-8288,-54,-3,-4,0,3
1741900,840,-8285,-43,-3,-4,0,3
1741904,816,-8284,-51,-3,-4,0,3
1741909,799,-8281,-58,-3,-3,0,3
1741915,779,-8283,-66,-2,-3,0,3
1741920,762,-8286,-96,-2,-3,0,3
1741925,750,-8288,-114,-2,-3,0,3
1741930,737,-8290,-130,-2,-3,0,3
1741934,716,-8296,-150,-2,-3,0,3
1741939,697,-8297,-153,-2,-3,0,3
1741944,674,-8299,-154,-2,-3,0,3
1741949,645,-8302,-164,-2,-2,0,3
1741955,614,-8301,-158,-2,-2,0,3
1741960,583,-8301,-163,-1,-1,0,3
1741964,555,-8301,-173,-1,0,-1,3
1741969,538,-8304,-174,-1,0,-1,3
1741974,525,-8305,-185,-1,1,-1,3
1741979,517,-8307,-187,-1,1,-1,3
1741984,520,-8307,-181,-1,2,-1,3
1741989,519,-8306,-175,-1,2,-1,3
1741994,519,-8303,-154,-1,3,-1,3
1741999,524,-8301,-123,-1,3,-1,3
1742004,513,-8302,-107,-1,3,-1,3
1742009,501,-8302,-93,0,4,-1,3
1742014,493,-8305,-89,0,4,-2,3
1742019,481,-8306,-95,0,4,-2,3
1742024,477,-8307,-94,0,4,-2,3
1742029,481,-8308,-102,0,5,-2,3
1742034,482,-8308,-111,0,5,-2,3
1742039,494,-8309,-107,0,6,-2,3
1742044,516,-8308,-93,0,7,-2,3
1742049,532,-8305,-78,0,7,-2,3
1742054,558,-8301,-58,0,8,-2,3
1742059,587,-8300,-28,0,8,-2,3
1742064,611,-8296,-5,0,8,-2,3
1742069,645,-8293,14,0,8,-2,3
1742074,672,-8291,33,0,8,-2,3
1742079,686,-8291,49,0,8,-2,3
1742084,708,-8292,66,0,7,-2,3
1742089,721,-8290,80,0,6,-2,3
1742094,726,-8290,90,0,6,-2,3
1742099,735,-8291,106,0,6,-2,3
1742104,737,-8290,121,1,5,-2,3
1742109,739,-8294,132,1,5,-2,3
1742114,747,-8293,144,1,5,-2,3
1742119,744,-8291,157,1,5,-2,3
1742124,750,-8287,171,1,5,-2,3
1742129,758,-8283,189,1,6,-2,3
1742134,757,-8282,205,0,7,-3,3
1742139,769,-8280,229,0,9,-3,3
1742144,791,-8277,254,0,9,-3,3
1742149,804,-8275,289,0,10,-3,3
1742154,824,-8274,324,0,10,-3,3
1742159,842,-8274,363,0,10,-2,3
1742164,856,-8272,395,0,10,-2,3
1742169,877,-8267,429,0,10,-2,3
1742174,896,-8264,461,0,10,-2,3
1742179,904,-8263,486,0,10,-2,3
1742184,923,-8263,506,0,10,-2,3
1742189,932,-8261,524,0,9,-2,3
1742194,933,-8263,533,0,9,-2,3
1742199,945,-8261,550,-1,9,-2,3
1742204,946,-8263,568,-1,8,-2,0
1742209,948,-8266,581,-1,7,-2,0
1742214,960,-8266,603,-1,7,-2,0
1742219,958,-8264,623,-1,5,-2,0
1742224,965,-8265,640,-1,4,-2,0
1742229,976,-8267,647,-1,4,-2,0
1742234,973,-8266,642,-1,3,-2,0
1742239,973,-8266,629,-1,2,-2,0
1742244,974,-8267,615,-1,1,-2,0
1742249,962,-8267,589,-1,0,-2,0
1742254,958,-8269,566,-2,0,-2,0
1742259,955,-8268,555,-2,-1,-1,0
1742264,949,-8268,543,-2,-1,-1,0
1742269,958,-8267,530,-2,-1,-1,0
1742274,968,-8266,523,-2,0,-1,0
1742279,974,-8266,501,-2,0,-1,0
1742284,995,-8264,478,-2,1,-1,0
1742289,1010,-8265,462,-2,1,-1,0
1742294,1021,-8267,442,-2,0,-1,0
1742299,1038,-8266,432,-2,0,-1,0
1742304,1042,-8264,428,-2,0,-1,0
1742309,1048,-8266,417,-2,0,-1,0
1742314,1059,-8268,419,-2,-1,-1,0
1742319,1060,-8268,419,-2,-1,-1,0
1742324,1062,-8269,399,-2,-1,-1,0
1742329,1071,-8269,383,-2,-1,-1,0
1742334,1072,-8268,355,-2,-2,0,0
1742339,1077,-8272,326,-2,-2,0,0
1742344,1083,-8270,311,-2,-3,0,0
1742349,1081,-8268,295,-2,-3,0,0
1742354,1077,-8268,286,-2,-3,0,0
1742359,1074,-8269,281,-2,-4,0,0
1742364,1062,-8271,268,-2,-4,0,0
1742369,1049,-8272,252,-2,-4,0,0
1742374,1035,-8269,241,-2,-4,0,0
1742379,1016,-8268,217,-2,-4,0,0
1742384,1002,-8269,193,-2,-4,0,0
1742389,988,-8268,169,-2,-4,0,0
1742394,972,-8268,131,-2,-4,0,0
1742399,963,-8271,103,-2,-3,0,0
1742404,952,-8273,89,-2,-3,0,0
1742409,936,-8277,82,-2,-3,0,0
1742414,926,-8277,90,-2,-3,0,0
1742419,915,-8277,100,-2,-3,0,0
1742424,901,-8275,95,-2,-3,0,0
1742429,890,-8277,91,-2,-2,0,0
1742434,876,-8280,73,-2,-2,0,0
