millis,ax,ay,az,gx,gy,gz,label
236985,319,-8190,-172,-2,-2,0,0
236990,316,-8191,-171,-2,-1,0,0
236996,317,-8194,-170,-2,-1,0,0
237001,314,-8197,-169,-2,-1,0,0
237006,312,-8196,-167,-2,-1,0,0
237012,313,-8197,-166,-2,-1,0,0
237018,311,-8196,-161,-2,-2,0,0
237022,310,-8196,-161,-2,-2,0,0
237027,310,-8195,-157,-2,-2,0,0
237033,310,-8193,-151,-2,-2,0,0
237039,310,-8192,-150,-2,-2,0,0
237044,309,-8192,-147,-2,-2,0,0
237050,308,-8194,-147,-2,-2,0,0
237056,305,-8195,-145,-2,-2,0,0
237060,303,-8196,-144,-2,-2,0,0
237066,303,-8198,-143,-2,-2,0,0
237072,302,-8199,-141,-2,-2,0,0
237077,301,-8200,-139,-2,-2,0,0
237082,302,-8200,-139,-2,-2,0,0
237087,305,-8200,-141,-2,-2,0,0
237093,310,-8200,-145,-2,-2,0,0
237098,314,-8199,-148,-2,-2,0,0
237104,319,-8198,-153,-2,-1,0,0
237109,325,-8195,-153,-2,-1,0,0
237115,331,-8196,-155,-2,-1,0,0
237120,333,-8194,-154,-2,-2,0,0
237126,333,-8193,-154,-2,-2,0,0
237132,329,-8194,-148,-2,-2,0,0
237137,325,-8195,-146,-2,-2,0,0
237142,321,-8195,-146,-2,-2,0,0
237148,318,-8195,-145,-2,-2,0,0
237153,319,-8194,-143,-2,-2,0,0
237158,322,-8193,-147,-2,-2,0,0
237162,325,-8194,-153,-2,-3,0,0
237168,328,-8194,-154,-2,-3,0,0
237174,326,-8197,-154,-2,-3,0,0
237180,324,-8195,-158,-2,-3,0,0
237185,323,-8196,-161,-2,-3,0,0
237190,318,-8196,-166,-2,-3,0,0
237196,312,-8198,-168,-2,-3,0,0
237201,308,-8198,-171,-2,-3,0,0
237206,307,-8196,-170,-2,-3,0,0
237212,308,-8193,-170,-2,-3,0,0
237218,313,-8192,-168,-2,-3,0,0
237222,319,-8190,-169,-2,-3,0,0
237228,326,-8190,-169,-2,-3,0,0
237234,331,-8192,-173,-2,-3,0,0
237239,333,-8193,-178,-2,-4,0,0
237245,332,-8194,-185,-2,-4,0,0
237250,330,-8194,-190,-2,-5,0,0
237256,328,-8193,-194,-2,-5,0,0
237261,324,-8195,-201,-2,-4,0,0
237266,322,-8198,-209,-2,-3,0,0
237272,323,-8197,-220,-2,-2,0,0
237278,324,-8195,-226,-2,-2,0,0
237282,321,-8196,-233,-2,-2,0,0
237288,318,-8196,-237,-2,-2,0,0
237293,313,-8198,-238,-2,-2,0,0
237299,306,-8197,-239,-2,-2,0,0
237304,299,-8194,-234,-2,-2,0,0
237310,294,-8194,-229,-2,-2,0,0
237315,292,-8193,-223,-2,-2,0,0
237320,297,-8192,-221,-2,-2,0,0
237326,300,-8193,-220,-2,-2,0,0
237332,304,-8191,-216,-2,-2,0,0
237337,308,-8191,-213,-2,-2,0,0
237341,311,-8192,-217,-2,-2,0,0
237347,311,-8191,-215,-2,-2,0,0
237353,306,-8192,-214,-2,-3,0,0
237358,299,-8195,-211,-2,-2,0,0
237363,293,-8198,-206,-2,-2,0,0
237368,289,-8198,-202,-2,-2,0,0
237374,290,-8196,-199,-2,-2,0,0
237380,291,-8197,-200,-2,-2,0,0
237385,293,-8194,-197,-2,-2,0,0
237390,295,-8193,-190,-2,-2,0,0
237396,298,-8193,-183,-2,-2,0,0
237401,299,-8192,-179,-2,-2,0,0
237406,299,-8192,-177,-2,-2,0,0
237411,298,-8195,-179,-2,-3,0,0
237416,293,-8195,-184,-2,-3,0,0
237421,288,-8196,-190,-2,-3,0,0
237426,287,-8195,-191,-2,-3,0,0
237432,285,-8194,-190,-2,-3,0,0
237438,282,-8198,-193,-2,-3,0,0
237443,283,-8198,-194,-2,-3,0,0
237448,285,-8194,-194,-2,-3,0,0
237454,287,-8191,-194,-2,-3,0,0
237459,289,-8195,-195,-2,-3,0,0
237464,287,-8195,-195,-2,-3,0,0
237470,283,-8195,-199,-2,-3,0,0
237475,275,-8195,-203,-2,-3,0,0
237480,267,-8193,-208,-2,-3,0,0
237486,259,-8191,-214,-2,-3,0,0
237491,252,-8190,-212,-2,-3,0,0
237497,249,-8190,-211,-2,-3,0,0
237501,251,-8192,-212,-2,-3,0,0
237507,255,-8193,-209,-2,-3,0,0
237513,260,-8193,-206,-2,-4,0,0
237519,265,-8192,-204,-2,-4,0,0
237523,268,-8192,-204,-2,-4,0,0
237529,272,-8191,-205,-2,-4,0,0
237535,275,-8192,-209,-2,-4,0,0
237540,276,-8191,-210,-2,-4,0,0
237546,275,-8188,-210,-2,-3,0,0
237552,274,-8188,-214,-2,-3,0,0
237557,270,-8187,-220,-2,-3,0,0
237562,267,-8188,-223,-2,-3,0,0
237567,266,-8190,-224,-2,-3,0,0
237573,271,-8189,-222,-2,-3,0,0
237579,272,-8193,-217,-2,-3,0,0
237583,271,-8194,-213,-2,-3,0,0
237589,271,-8195,-213,-2,-3,0,0
237594,267,-8192,-213,-2,-3,0,0
237600,261,-8191,-211,-2,-3,0,0
237605,253,-8194,-207,-2,-3,0,0
237611,245,-8192,-203,-2,-4,0,0
237617,238,-8193,-201,-2,-5,0,0
237622,231,-8194,-197,-2,-5,0,0
237627,229,-8198,-194,-2,-6,0,0
237633,227,-8197,-191,-2,-6,0,0
237638,229,-8196,-185,-2,-7,0,0
237643,236,-8194,-181,-2,-7,0,0
237649,239,-8193,-187,-2,-7,0,0
237654,239,-8190,-187,-2,-7,0,0
237660,242,-8190,-195,-2,-7,0,0
237666,250,-8190,-208,-2,-6,0,0
237672,255,-8193,-216,-2,-6,0,0
237676,255,-8193,-221,-2,-5,0,0
237681,264,-8194,-227,-2,-5,0,0
237687,276,-8195,-227,-2,-4,0,0
237692,283,-8196,-230,-2,-3,0,0
237698,287,-8198,-223,-2,-3,0,0
237702,288,-8199,-214,-2,-3,0,0
237708,290,-8198,-212,-2,-3,0,0
237714,286,-8198,-210,-2,-3,0,0
237720,282,-8198,-205,-2,-3,0,0
237725,278,-8200,-202,-2,-3,0,0
237731,275,-8199,-201,-2,-4,0,0
237736,276,-8199,-197,-2,-4,0,0
237741,275,-8199,-189,-2,-4,0,0
237745,276,-8200,-187,-2,-4,0,0
237751,278,-8200,-184,-2,-5,0,0
237756,280,-8200,-183,-2,-5,0,0
237761,283,-8197,-184,-2,-5,0,0
237766,286,-8197,-188,-2,-4,0,0
237772,286,-8200,-196,-2,-4,0,0
237776,289,-8200,-199,-2,-4,0,0
237780,292,-8201,-200,-2,-4,0,0
237784,297,-8201,-206,-2,-4,0,0
237788,300,-8199,-208,-2,-3,0,0
237793,304,-8199,-212,-2,-3,0,0
237797,309,-8198,-215,-2,-3,0,0
237801,312,-8198,-211,-2,-3,0,0
237805,312,-8198,-209,-2,-3,0,0
237809,315,-8200,-207,-2,-3,0,0
237813,315,-8197,-206,-2,-3,0,0
237818,314,-8198,-208,-2,-3,0,0
237822,311,-8196,-209,-2,-3,0,0
237826,307,-8196,-209,-2,-3,0,0
237830,301,-8198,-204,-2,-3,0,0
237834,295,-8198,-199,-2,-4,0,0
237838,292,-8198,-193,-2,-4,0,0
237842,292,-8197,-185,-2,-4,0,0
237846,292,-8193,-183,-2,-4,0,0
237850,291,-8192,-181,-2,-5,0,0
237854,283,-8192,-176,-2,-5,0,0
237858,277,-8193,-173,-2,-4,0,0
237862,273,-8190,-167,-2,-4,0,0
237866,269,-8192,-167,-2,-4,0,0
237870,268,-8196,-166,-2,-4,0,0
237874,270,-8198,-164,-2,-3,0,0
237878,274,-8196,-162,-2,-3,0,0
237882,279,-8196,-158,-2,-3,0,0
237886,284,-8198,-156,-2,-3,0,0
237890,285,-8197,-155,-2,-3,0,0
237894,286,-8198,-152,-2,-3,0,0
237898,283,-8198,-150,-2,-3,0,0
237902,278,-8197,-149,-2,-2,0,0
237906,274,-8196,-148,-2,-2,0,0
237910,272,-8199,-143,-2,-3,0,0
237914,272,-8200,-138,-2,-3,0,0
237918,269,-8199,-137,-2,-3,0,0
237922,269,-8198,-134,-2,-3,0,0
237926,273,-8197,-126,-2,-3,0,0
237930,278,-8196,-121,-2,-3,0,0
237934,278,-8195,-118,-2,-4,0,0
237938,283,-8193,-117,-2,-4,0,0
237942,288,-8193,-119,-2,-4,0,0
237946,282,-8192,-124,-2,-4,0,0
237950,286,-8193,-124,-2,-3,0,0
237954,293,-8193,-132,-2,-3,0,0
237958,299,-8194,-135,-2,-4,0,0
237962,304,-8191,-143,-2,-4,0,0
237966,311,-8191,-156,-2,-4,0,0
237970,314,-8189,-169,-2,-4,0,0
237974,315,-8190,-184,-2,-3,0,0
237978,317,-8192,-194,-2,-3,0,0
237982,319,-8193,-202,-2,-3,0,0
237986,321,-8194,-208,-2,-3,0,0
237990,323,-8193,-213,-2,-3,0,0
237994,322,-8192,-222,-2,-3,0,0
237998,316,-8194,-225,-2,-3,0,0
238002,313,-8194,-221,-2,-3,0,0
238006,312,-8194,-221,-2,-4,0,0
238010,311,-8193,-216,-2,-4,0,0
238014,311,-8196,-214,-2,-4,0,0
238018,308,-8197,-213,-2,-4,0,0
238022,309,-8198,-207,-2,-4,0,0
238026,312,-8198,-198,-2,-4,0,0
238031,311,-8197,-192,-2,-4,0,0
238036,308,-8193,-191,-2,-4,0,0
238041,302,-8192,-190,-2,-4,0,0
238046,300,-8190,-197,-2,-3,0,0
238051,296,-8186,-206,-2,-3,0,0
238056,291,-8187,-205,-2,-3,0,0
238061,289,-8187,-208,-2,-2,0,0
238067,289,-8189,-215,-2,-2,0,0
238072,287,-8189,-215,-2,-2,0,0
238077,287,-8190,-218,-2,-2,0,0
238082,291,-8191,-214,-2,-2,0,0
238088,291,-8189,-206,-2,-2,0,0
238093,285,-8188,-197,-2,-2,0,0
238098,278,-8188,-189,-2,-3,0,0
238102,264,-8191,-182,-2,-4,0,0
238108,248,-8192,-176,-2,-4,0,0
238113,238,-8196,-166,-2,-5,0,0
238119,230,-8195,-157,-2,-5,0,0
238124,223,-8194,-148,-2,-6,0,0
238129,222,-8195,-140,-2,-6,0,0
238135,223,-8196,-136,-2,-6,0,0
238140,229,-8196,-128,-2,-7,0,0
238145,233,-8197,-123,-2,-7,0,0
238150,233,-8195,-123,-2,-7,0,0
238155,229,-8194,-122,-2,-8,0,0
238159,223,-8194,-122,-2,-8,0,0
238163,212,-8198,-121,-2,-8,0,0
238169,195,-8198,-122,-2,-8,0,0
238174,183,-8199,-123,-2,-8,0,0
238179,175,-8197,-128,-2,-7,0,0
238184,174,-8196,-130,-2,-7,0,0
238190,181,-8196,-130,-2,-7,0,0
238195,192,-8195,-128,-2,-7,0,0
238200,202,-8194,-123,-2,-7,0,0
238205,210,-8193,-124,-2,-6,0,0
238210,212,-8193,-125,-2,-6,0,0
238216,212,-8195,-121,-2,-7,0,0
238221,203,-8194,-120,-2,-7,0,0
238226,193,-8194,-120,-2,-7,0,0
238232,184,-8194,-114,-2,-7,0,0
238237,181,-8193,-110,-2,-7,0,0
238242,181,-8191,-111,-2,-6,0,0
238247,189,-8189,-111,-2,-6,0,0
238252,202,-8188,-117,-2,-6,0,0
238257,211,-8184,-124,-2,-6,0,0
238262,218,-8188,-129,-2,-6,0,0
238267,220,-8192,-138,-2,-6,0,0
238273,214,-8190,-142,-2,-7,0,0
238278,207,-8190,-147,-2,-7,0,0
238283,195,-8187,-154,-2,-7,0,0
238289,190,-8185,-154,-2,-6,0,0
238294,187,-8186,-157,-2,-6,0,0
238299,187,-8186,-166,-2,-6,0,0
238304,187,-8187,-173,-2,-6,0,0
238309,195,-8189,-183,-2,-5,0,0
238314,201,-8188,-185,-2,-5,0,0
238320,204,-8185,-190,-2,-5,0,0
238325,206,-8185,-190,-2,-5,0,0
238331,205,-8188,-187,-2,-5,0,0
238336,201,-8191,-191,-2,-5,0,0
238340,199,-8190,-196,-2,-4,0,0
238345,195,-8191,-204,-2,-4,0,0
238351,193,-8190,-214,-2,-3,0,0
238355,199,-8188,-221,-2,-3,0,0
238360,205,-8184,-232,-2,-2,0,0
238366,213,-8185,-245,-2,-2,0,0
238371,219,-8185,-251,-2,-2,0,0
238376,223,-8184,-255,-2,-1,0,0
238381,224,-8183,-256,-2,-1,0,0
238386,223,-8183,-255,-2,-1,0,0
238391,220,-8185,-256,-2,-1,0,0
238396,218,-8185,-256,-2,-1,0,0
238401,216,-8185,-256,-2,-1,0,0
238406,215,-8185,-255,-2,0,0,0
238410,216,-8184,-257,-2,1,0,0
238414,222,-8182,-262,-2,1,0,0
238420,229,-8185,-264,-2,2,0,0
238424,241,-8185,-263,-2,2,0,0
238429,250,-8185,-260,-2,2,0,0
238435,257,-8184,-258,-2,2,0,0
238439,262,-8186,-250,-2,3,0,0
238444,262,-8191,-245,-2,3,0,0
238449,254,-8192,-236,-2,3,0,0
238454,246,-8193,-225,-2,3,0,0
238459,239,-8191,-218,-2,3,0,0
238463,230,-8191,-208,-2,3,0,0
238468,223,-8193,-201,-2,4,0,0
238473,223,-8193,-190,-2,4,0,0
238478,228,-8193,-187,-2,4,0,0
238483,239,-8195,-187,-2,3,0,0
238488,243,-8193,-193,-2,3,0,0
238492,255,-8194,-197,-2,2,0,0
238496,259,-8192,-199,-2,1,0,0
238501,250,-8191,-205,-2,1,0,0
238506,248,-8189,-204,-2,2,0,0
238511,246,-8188,-211,-2,2,0,0
238516,240,-8188,-212,-2,3,0,0
238521,231,-8187,-214,-2,3,0,0
238526,227,-8187,-215,-2,3,0,0
238532,223,-8189,-211,-2,3,0,0
238536,215,-8189,-206,-2,3,0,0
238541,212,-8188,-197,-2,2,0,0
238546,207,-8189,-185,-2,2,0,0
238552,204,-8193,-177,-2,2,0,0
238556,204,-8197,-159,-2,2,0,0
238561,203,-8196,-150,-2,2,0,0
238567,202,-8195,-139,-2,2,0,0
238572,200,-8197,-130,-2,1,0,0
238576,193,-8197,-121,-2,1,0,0
238581,186,-8196,-111,-2,1,0,0
238586,182,-8195,-106,-2,1,0,0
238591,180,-8195,-98,-2,1,0,0
238596,175,-8198,-86,-2,1,0,0
238601,177,-8195,-79,-2,0,0,0
238605,181,-8196,-74,-2,0,0,0
238610,186,-8198,-70,-2,-1,0,0
238615,193,-8199,-71,-2,-1,0,0
238621,196,-8199,-72,-2,-2,0,0
238626,198,-8200,-77,-3,-2,0,0
238631,196,-8200,-79,-3,-2,0,0
238636,199,-8198,-85,-3,-2,0,0
238641,203,-8196,-97,-3,-2,0,0
238647,203,-8195,-108,-3,-2,0,0
238652,205,-8195,-118,-3,-3,0,0
238657,212,-8195,-131,-3,-3,0,0
238662,221,-8194,-145,-3,-3,0,0
238667,225,-8196,-160,-3,-3,0,0
238673,228,-8194,-171,-3,-3,0,0
238677,233,-8193,-177,-3,-3,0,0
238681,235,-8195,-187,-3,-3,0,0
238686,239,-8196,-197,-3,-3,0,0
238692,238,-8196,-204,-3,-3,0,0
238697,235,-8195,-205,-3,-3,0,0
238702,229,-8193,-210,-3,-3,0,0
238707,227,-8195,-211,-3,-3,0,0
238712,230,-8195,-211,-3,-3,0,0
238717,233,-8195,-209,-3,-3,0,0
238722,239,-8194,-203,-3,-3,0,0
238728,244,-8195,-197,-2,-3,0,0
238734,249,-8194,-194,-3,-3,0,0
238739,254,-8195,-191,-3,-3,0,0
238744,259,-8194,-185,-3,-3,0,0
238749,264,-8197,-192,-2,-3,0,0
238754,265,-8198,-200,-2,-3,0,0
238759,264,-8200,-206,-3,-3,1,0
238763,262,-8202,-213,-3,-2,1,0
238768,259,-8205,-215,-3,-2,1,0
238774,259,-8204,-221,-3,-2,1,0
238779,259,-8202,-221,-3,-2,1,0
238783,267,-8198,-213,-3,-2,1,0
238789,279,-8193,-213,-3,-2,1,0
238794,289,-8193,-206,-3,-2,1,0
238799,294,-8192,-203,-3,-2,1,0
238804,299,-8193,-203,-3,-2,1,0
238809,308,-8196,-203,-3,-1,1,0
238814,317,-8197,-198,-3,-2,1,0
238819,324,-8195,-195,-3,-2,1,0
238824,324,-8194,-194,-3,-2,1,0
238829,321,-8189,-197,-2,-2,1,0
238835,320,-8187,-200,-3,-2,1,0
238839,317,-8185,-199,-3,-2,1,0
238844,315,-8183,-202,-2,-2,1,0
238849,304,-8182,-205,-2,-3,1,0
238854,285,-8183,-213,-2,-3,1,0
238859,276,-8183,-214,-2,-3,1,0
238863,260,-8183,-215,-3,-3,1,0
238869,253,-8182,-217,-3,-3,1,0
238874,257,-8187,-208,-3,-3,2,0
238879,274,-8188,-197,-3,-2,2,0
238884,303,-8189,-190,-3,-2,2,0
238889,326,-8188,-179,-3,-1,2,0
238894,345,-8187,-168,-3,-2,2,0
238899,349,-8184,-156,-3,-2,2,0
238904,345,-8186,-140,-3,-2,2,0
238909,333,-8186,-125,-3,-2,2,0
238914,311,-8188,-116,-3,-3,2,0
238920,292,-8190,-103,-3,-3,2,0
238924,272,-8190,-93,-3,-3,2,0
238928,259,-8188,-81,-3,-4,2,0
238933,251,-8185,-68,-3,-4,2,0
238938,246,-8184,-55,-3,-4,2,0
238943,248,-8185,-41,-3,-5,2,0
238948,247,-8185,-24,-3,-5,2,0
238953,246,-8185,-12,-3,-5,2,0
238958,243,-8187,4,-3,-6,2,0
238963,237,-8189,12,-3,-6,2,0
238968,231,-8190,24,-4,-6,2,0
238973,225,-8188,30,-4,-7,2,0
238978,221,-8190,39,-4,-8,2,0
238983,216,-8190,47,-4,-9,2,0
238988,208,-8189,57,-4,-10,2,0
238993,203,-8186,70,-4,-11,2,0
238998,195,-8190,84,-4,-12,2,0
239003,187,-8192,101,-4,-13,2,0
239008,180,-8195,121,-4,-15,2,0
239013,176,-8195,141,-4,-16,2,0
239018,173,-8197,158,-4,-17,2,0
239023,171,-8198,169,-5,-18,2,0
239028,169,-8197,181,-5,-19,2,0
239033,162,-8194,187,-5,-21,2,0
239039,155,-8193,192,-5,-22,2,0
239043,144,-8193,194,-5,-23,2,0
239046,136,-8195,191,-5,-24,2,0
239050,129,-8193,188,-5,-25,2,0
239054,123,-8190,177,-5,-26,2,0
239058,121,-8190,162,-5,-28,2,0
239062,117,-8187,147,-5,-29,2,0
239066,115,-8186,126,-6,-30,2,0
239070,113,-8186,107,-6,-31,2,0
239075,108,-8188,84,-6,-31,2,0
239080,101,-8191,59,-6,-32,2,0
239085,92,-8192,35,-6,-33,2,0
239090,81,-8191,7,-6,-34,2,0
239095,71,-8190,-25,-6,-34,2,0
239100,62,-8189,-59,-6,-35,2,0
239105,53,-8187,-95,-6,-35,2,0
239110,45,-8187,-137,-6,-36,2,0
239115,38,-8184,-176,-6,-36,2,0
239120,36,-8182,-219,-6,-36,2,0
239125,31,-8181,-260,-6,-36,2,0
239130,16,-8180,-296,-6,-36,2,0
239135,-2,-8180,-329,-5,-36,2,0
239140,-20,-8176,-363,-5,-35,2,0
239145,-39,-8176,-393,-5,-35,2,0
239150,-54,-8175,-426,-5,-35,2,0
239155,-71,-8175,-456,-5,-35,2,0
239160,-89,-8176,-487,-5,-35,2,0
239165,-107,-8172,-515,-5,-35,2,0
239170,-122,-8172,-537,-5,-35,2,0
239175,-135,-8176,-560,-5,-34,2,0
239180,-149,-8176,-583,-5,-34,2,0
239185,-164,-8178,-606,-5,-34,2,0
239190,-176,-8178,-626,-4,-34,2,0
239195,-190,-8180,-646,-4,-33,2,0
239200,-200,-8180,-664,-4,-33,2,0
239205,-205,-8180,-677,-4,-32,2,0
239210,-211,-8175,-690,-4,-31,2,0
239215,-217,-8175,-698,-4,-30,2,0
239220,-225,-8175,-701,-4,-30,2,0
239225,-234,-8175,-701,-4,-29,2,0
239230,-246,-8173,-700,-3,-29,1,0
239235,-259,-8172,-695,-3,-28,1,0
239240,-269,-8175,-689,-3,-27,1,0
239245,-282,-8177,-680,-3,-27,1,0
239250,-293,-8178,-668,-3,-27,1,0
239255,-303,-8178,-658,-3,-26,1,0
239260,-311,-8178,-650,-3,-26,1,0
239265,-317,-8180,-640,-3,-26,1,0
239270,-322,-8181,-625,-3,-26,1,0
239275,-328,-8183,-608,-3,-26,1,0
239280,-332,-8186,-596,-3,-26,1,0
239285,-342,-8188,-585,-2,-26,1,0
239290,-351,-8190,-574,-2,-26,1,0
239295,-358,-8192,-571,-2,-26,1,0
239300,-367,-8192,-568,-2,-26,0,0
239305,-377,-8190,-559,-2,-26,0,0
239310,-388,-8188,-548,-2,-25,0,0
239315,-398,-8186,-538,-2,-25,0,0
239320,-406,-8187,-529,-2,-24,0,0
239325,-411,-8190,-522,-2,-24,0,0
239330,-412,-8191,-510,-2,-24,0,0
239335,-414,-8191,-498,-2,-24,0,0
239340,-417,-8193,-492,-2,-24,0,0
239345,-419,-8194,-484,-2,-24,0,0
239351,-422,-8194,-477,-2,-24,-1,0
239356,-424,-8195,-467,-2,-24,-1,0
239362,-428,-8194,-466,-2,-24,-1,0
239368,-429,-8194,-461,-2,-24,-1,0
239374,-426,-8194,-457,-2,-23,-1,0
239379,-419,-8193,-456,-2,-23,-1,0
239384,-408,-8194,-456,-2,-23,-1,0
239390,-402,-8192,-457,-2,-23,-1,0
239395,-394,-8192,-457,-1,-23,-1,0
239401,-382,-8190,-457,-1,-23,-1,0
239407,-368,-8190,-460,-1,-22,-1,0
239411,-359,-8190,-456,-1,-22,-1,0
239415,-347,-8188,-446,-1,-22,-2,0
239420,-341,-8188,-437,-1,-21,-2,0
239424,-335,-8186,-430,-1,-20,-2,0
239431,-324,-8186,-421,-1,-20,-2,0
239437,-316,-8185,-411,-1,-19,-2,0
239442,-312,-8186,-403,-1,-19,-2,0
239448,-307,-8188,-398,-1,-19,-2,0
239453,-299,-8190,-395,-1,-18,-2,0
239459,-295,-8193,-392,-1,-18,-2,0
239465,-292,-8196,-388,-1,-18,-2,0
239471,-286,-8195,-382,-1,-18,-2,0
239477,-277,-8191,-375,-1,-19,-2,0
239482,-268,-8188,-368,-1,-19,-2,0
239488,-257,-8188,-363,-1,-19,-2,0
239494,-242,-8186,-354,-1,-18,-2,0
239500,-232,-8186,-346,-1,-17,-2,0
239505,-214,-8185,-339,-1,-17,-2,0
239510,-197,-8186,-333,-1,-16,-2,0
239516,-184,-8188,-330,-1,-15,-2,0
239522,-172,-8187,-329,-1,-15,-2,0
239528,-163,-8187,-324,-1,-14,-2,0
239534,-155,-8187,-322,-1,-14,-2,0
239539,-151,-8188,-317,-1,-13,-2,0
239544,-151,-8187,-311,-1,-12,-2,0
239550,-148,-8188,-299,-1,-11,-2,0
239556,-138,-8188,-297,-1,-10,-2,0
239562,-130,-8189,-297,-1,-9,-2,0
239568,-123,-8188,-300,-1,-9,-2,0
239574,-115,-8184,-302,-1,-8,-2,0
239580,-108,-8187,-301,-1,-6,-2,0
239585,-91,-8187,-306,-1,-5,-2,0
239592,-72,-8185,-310,-1,-5,-2,0
239597,-59,-8184,-304,-1,-5,-2,0
239603,-51,-8183,-293,-1,-6,-2,0
239608,-45,-8183,-281,-1,-6,-2,0
239615,-44,-8182,-268,-1,-6,-2,0
239620,-39,-8183,-257,-1,-5,-2,0
239625,-36,-8186,-239,-1,-5,-2,0
239631,-29,-8186,-221,-1,-5,-2,0
239637,-21,-8188,-199,-1,-6,-2,0
239643,-12,-8188,-186,-1,-6,-2,0
239648,-1,-8189,-175,-1,-7,-2,0
239654,7,-8188,-167,-1,-7,-2,0
239659,19,-8186,-161,-1,-8,-2,0
239664,28,-8188,-151,-1,-8,-2,0
239669,36,-8189,-145,-1,-8,-2,0
239674,46,-8188,-140,-1,-8,-2,0
239679,58,-8184,-140,-2,-7,-2,0
239683,65,-8180,-145,-2,-7,-2,0
239689,72,-8181,-150,-2,-7,-2,0
239695,79,-8184,-156,-2,-7,-2,0
239700,83,-8188,-161,-2,-6,-2,0
239705,91,-8190,-169,-2,-6,-2,0
239710,98,-8191,-174,-2,-6,-2,0
239716,102,-8191,-176,-2,-6,-2,0
239721,106,-8193,-175,-2,-5,-2,0
239726,109,-8192,-180,-2,-5,-2,0
239731,112,-8188,-189,-2,-5,-2,0
239737,115,-8187,-196,-2,-4,-2,0
239743,114,-8182,-205,-2,-4,-2,0
239748,114,-8181,-213,-2,-3,-2,0
239753,113,-8180,-221,-2,-3,-2,0
239758,111,-8182,-228,-2,-2,-2,0
239762,115,-8185,-240,-2,-1,-2,0
239766,115,-8186,-244,-2,-1,-2,0
239772,114,-8186,-252,-2,-1,-2,0
239777,115,-8186,-254,-2,-1,-2,0
239782,118,-8186,-251,-2,0,-1,0
239788,117,-8186,-244,-2,0,-1,0
239793,120,-8186,-234,-2,0,-1,0
239799,123,-8185,-223,-2,0,-1,0
239804,121,-8185,-216,-2,0,-1,0
239809,119,-8182,-203,-2,0,-1,0
239815,115,-8181,-191,-2,0,-1,0
239820,108,-8181,-180,-2,0,-1,0
239825,101,-8183,-165,-2,0,-1,0
239830,95,-8184,-155,-2,0,-1,0
239835,90,-8184,-148,-2,0,-1,0
239840,79,-8184,-143,-2,0,-1,0
239845,77,-8186,-137,-2,0,-1,0
239850,76,-8190,-138,-2,0,-1,0
239855,75,-8190,-139,-2,1,-1,0
239860,77,-8190,-142,-2,1,-1,0
239865,82,-8189,-144,-2,1,-1,0
239869,90,-8189,-145,-2,1,-1,0
239874,98,-8189,-145,-2,1,-1,0
239880,103,-8188,-147,-2,2,-1,0
239884,108,-8186,-145,-2,2,-1,0
239889,111,-8187,-145,-2,3,-1,0
239895,115,-8189,-146,-2,3,-1,0
239899,110,-8186,-146,-2,3,-1,0
239904,95,-8186,-150,-2,3,-1,0
239909,80,-8185,-152,-2,3,-1,0
239914,61,-8184,-154,-2,3,-1,0
239919,43,-8187,-158,-2,3,-1,0
239924,32,-8188,-160,-2,3,-1,0
239929,22,-8189,-163,-2,4,-1,0
239934,27,-8191,-168,-2,4,-1,0
239939,35,-8191,-173,-2,4,-1,0
239944,46,-8192,-182,-2,3,-1,0
239949,53,-8194,-197,-2,3,-1,0
239954,55,-8195,-215,-2,2,-1,0
239959,51,-8192,-236,-2,2,-1,0
239964,44,-8193,-254,-2,2,-1,0
239969,34,-8192,-270,-2,2,-1,0
239974,24,-8191,-281,-2,2,-1,0
239979,17,-8191,-289,-2,2,-1,0
239984,13,-8193,-295,-2,2,-1,0
239989,11,-8193,-299,-2,3,-1,0
239994,14,-8195,-297,-2,3,-1,0
240000,19,-8194,-295,-2,3,-1,0
240004,20,-8194,-292,-2,3,-1,0
240010,18,-8192,-291,-2,4,-1,0
240015,7,-8191,-288,-2,3,-1,0
240020,-6,-8190,-285,-2,3,-1,0
240025,-24,-8191,-280,-2,3,-1,0
240031,-42,-8192,-278,-2,2,-1,0
240036,-56,-8194,-268,-2,2,-1,0
240042,-64,-8195,-255,-2,1,-1,0
240047,-62,-8196,-241,-2,0,-1,0
240053,-60,-8197,-222,-2,-1,-1,0
240058,-57,-8197,-202,-2,-2,-1,0
240063,-51,-8197,-187,-2,-2,-2,0
240069,-50,-8199,-176,-2,-2,-2,0
240075,-56,-8199,-166,-2,-3,-2,0
240080,-61,-8201,-158,-2,-3,-2,0
240085,-67,-8200,-151,-2,-3,-2,0
240091,-75,-8197,-143,-2,-3,-2,0
240096,-79,-8195,-136,-2,-3,-2,0
240101,-77,-8194,-133,-2,-2,-2,0
240106,-73,-8198,-132,-2,-2,-2,0
240111,-62,-8199,-130,-2,-2,-2,0
240117,-51,-8199,-134,-2,-2,-2,0
240122,-34,-8199,-142,-2,-2,-2,0
240128,-15,-8195,-148,-2,-2,-2,0
240134,7,-8194,-158,-2,-2,-2,0
240139,33,-8193,-169,-2,-2,-2,0
240144,54,-8193,-179,-2,-1,-2,0
240149,74,-8191,-188,-3,-1,-2,0
240155,91,-8191,-196,-3,0,-2,0
240159,96,-8191,-204,-3,0,-2,0
240163,98,-8191,-206,-3,0,-2,0
240167,101,-8190,-213,-2,-1,-2,0
240172,103,-8189,-223,-3,0,-2,0
240178,113,-8190,-232,-3,0,-2,0
240183,131,-8188,-241,-3,1,-2,0
240188,152,-8188,-247,-3,1,-2,0
240193,174,-8189,-259,-3,1,-2,0
240199,195,-8188,-271,-2,1,-2,0
240204,212,-8189,-285,-2,1,-2,0
240209,223,-8187,-300,-2,2,-2,0
240214,234,-8187,-320,-2,2,-2,0
240219,246,-8187,-339,-2,2,-1,0
240224,257,-8183,-364,-2,2,-1,0
240230,268,-8183,-382,-2,3,-1,0
240235,280,-8183,-398,-2,3,-1,0
240240,295,-8182,-409,-2,4,-1,0
240245,309,-8181,-420,-2,4,-1,0
240250,322,-8181,-427,-2,4,-1,0
240255,329,-8179,-433,-2,5,-1,0
240260,333,-8177,-440,-2,5,-1,0
240265,331,-8176,-449,-2,5,-1,0
240270,321,-8176,-457,-2,5,-1,0
240276,311,-8177,-465,-2,6,-1,0
240280,303,-8177,-462,-2,6,0,0
240284,295,-8179,-453,-2,7,0,0
240288,288,-8177,-440,-2,7,0,0
240292,287,-8177,-427,-2,8,0,0
240296,283,-8180,-412,-1,8,0,0
240299,282,-8179,-401,-1,9,0,0
240303,278,-8179,-390,-1,9,0,0
240307,273,-8180,-382,-1,9,0,0
240311,264,-8178,-376,-1,9,0,0
240315,254,-8179,-363,-1,9,0,0
240319,243,-8182,-351,-1,10,0,0
240323,229,-8183,-330,-1,10,0,0
240327,216,-8185,-310,-1,10,0,0
240331,201,-8183,-293,-1,11,0,0
240335,186,-8183,-278,-1,11,0,0
240339,172,-8184,-267,-1,11,0,0
240343,155,-8185,-251,-1,12,0,0
240347,142,-8184,-239,-1,12,0,0
240351,135,-8186,-226,-1,12,0,0
240355,134,-8191,-214,-2,12,0,0
240359,135,-8192,-198,-2,12,0,0
240363,135,-8194,-181,-2,11,0,0
240367,139,-8191,-164,-2,10,0,0
240371,139,-8189,-149,-2,9,0,0
240375,133,-8189,-138,-2,8,0,0
240379,125,-8189,-128,-2,8,0,0
240383,118,-8188,-125,-2,7,0,0
240387,107,-8189,-122,-2,6,0,0
240391,96,-8187,-119,-2,6,0,0
240395,90,-8187,-111,-2,5,0,0
240399,86,-8188,-101,-2,5,0,0
240403,85,-8187,-91,-2,5,0,0
240407,90,-8190,-84,-2,5,0,0
240411,94,-8191,-78,-2,4,0,0
240415,98,-8191,-82,-2,4,0,0
240419,97,-8191,-85,-2,4,0,0
240423,99,-8191,-90,-2,4,0,0
240427,99,-8192,-98,-2,4,0,0
240431,92,-8190,-107,-2,4,0,0
240435,93,-8188,-113,-2,4,0,0
240439,95,-8186,-126,-2,5,0,0
240443,97,-8185,-141,-2,5,0,0
240447,99,-8185,-162,-2,6,0,0
240451,102,-8186,-181,-2,6,0,0
240455,102,-8185,-196,-2,6,0,0
240459,93,-8187,-220,-2,5,0,0
240463,88,-8189,-237,-2,5,0,0
240467,86,-8187,-247,-2,5,0,0
240471,82,-8187,-256,-2,4,0,0
240475,80,-8190,-254,-2,3,0,0
240479,77,-8192,-255,-2,4,0,0
240484,77,-8194,-252,-2,4,0,0
240489,74,-8192,-250,-2,4,0,0
240494,68,-8188,-251,-2,4,0,0
240499,64,-8187,-251,-2,4,0,0
240504,57,-8189,-248,-2,3,0,0
240509,56,-8192,-242,-2,3,0,0
240514,55,-8193,-240,-2,2,0,0
240519,52,-8193,-237,-2,2,0,0
240524,56,-8193,-233,-2,1,0,0
240529,57,-8193,-230,-2,0,0,0
240534,60,-8194,-232,-2,0,0,0
240539,71,-8193,-232,-2,0,0,0
240544,78,-8194,-233,-2,0,0,0
240549,81,-8196,-237,-2,-1,-1,0
240554,78,-8198,-243,-2,-1,-1,0
240559,73,-8198,-246,-2,-1,-1,0
240564,67,-8197,-253,-2,-1,-1,0
240569,62,-8197,-261,-2,-1,-1,0
240574,59,-8193,-264,-2,-1,-1,0
240579,57,-8190,-275,-2,-1,-1,0
240584,60,-8188,-279,-2,-1,-1,0
240589,65,-8191,-284,-2,-1,-1,0
240594,69,-8194,-288,-2,-1,-1,0
240600,72,-8193,-287,-2,-1,-1,0
240605,69,-8191,-286,-2,-1,-1,0
240610,59,-8192,-288,-2,-1,-1,0
240616,49,-8196,-294,-2,-1,-1,0
240622,42,-8198,-296,-2,-1,-1,0
240627,44,-8195,-298,-2,-1,-1,0
240632,51,-8193,-300,-2,-1,-1,0
240638,61,-8193,-296,-2,-1,-1,0
240643,71,-8193,-293,-2,-1,-1,0
240648,82,-8192,-295,-2,0,-1,0
240653,90,-8189,-294,-2,0,-1,0
240658,95,-8188,-296,-2,0,-1,0
240664,93,-8185,-295,-2,0,-1,0
240669,87,-8185,-297,-2,0,-1,0
240674,80,-8184,-304,-2,0,-1,0
240679,75,-8185,-307,-2,1,-1,0
240683,79,-8185,-306,-2,1,-1,0
240687,86,-8185,-305,-2,2,-1,0
240691,94,-8185,-296,-2,2,-1,0
240695,101,-8185,-291,-2,2,-1,0
240699,103,-8187,-289,-2,2,-1,0
240703,102,-8190,-283,-2,2,-1,0
240708,96,-8193,-280,-2,2,-1,0
240714,89,-8193,-278,-2,2,-1,0
240719,83,-8195,-270,-2,2,-1,0
240724,73,-8194,-262,-2,2,-1,0
240730,64,-8194,-257,-2,2,-1,0
240735,56,-8195,-249,-2,2,-1,0
240740,48,-8197,-242,-2,2,-1,0
240745,44,-8197,-235,-2,2,-1,0
240750,39,-8201,-233,-2,2,-1,0
240756,38,-8201,-230,-2,1,-1,0
240761,37,-8200,-226,-2,0,-1,0
240766,40,-8198,-226,-2,-1,-1,0
240771,46,-8197,-221,-2,-1,-1,0
240777,52,-8198,-221,-2,-2,-1,0
240781,60,-8199,-219,-2,-2,-1,0
240786,71,-8200,-219,-2,-3,-1,0
240791,85,-8200,-222,-2,-3,-1,0
240796,94,-8200,-225,-2,-3,-1,0
240802,103,-8201,-228,-2,-2,-1,0
240807,109,-8200,-229,-2,-2,-1,0
240813,109,-8197,-232,-2,-2,-1,0
240818,97,-8198,-238,-2,-2,-1,0
240824,83,-8195,-241,-2,-2,-1,0
240829,69,-8195,-242,-2,-2,-1,0
240835,53,-8192,-240,-2,-2,-1,0
240841,38,-8190,-237,-2,-2,-1,0
240846,31,-8192,-236,-2,-2,-1,0
240852,35,-8193,-227,-2,-2,-1,0
240857,46,-8196,-218,-2,-2,-1,0
240862,67,-8195,-206,-2,-2,-1,0
240868,87,-8193,-192,-2,-2,-1,0
240873,105,-8191,-178,-2,-3,-1,0
240879,116,-8193,-168,-2,-2,-1,0
240884,121,-8191,-165,-2,-2,-1,0
240890,122,-8190,-165,-2,-2,-1,0
240895,126,-8190,-169,-2,-1,-1,0
240899,135,-8191,-175,-2,-1,-1,0
240904,148,-8193,-192,-2,-1,-1,0
240908,166,-8196,-208,-2,0,-1,0
240913,191,-8197,-226,-2,0,-1,0
240918,211,-8194,-243,-2,0,-1,0
240923,226,-8194,-256,-2,0,-1,0
240929,231,-8198,-274,-2,0,-1,0
240934,229,-8198,-292,-2,0,-1,0
240940,223,-8199,-311,-2,1,-1,0
240945,213,-8198,-334,-2,1,-1,0
240950,209,-8200,-349,-2,1,-1,0
240956,207,-8197,-355,-2,1,-1,0
240961,207,-8197,-361,-2,1,-1,0
240965,212,-8198,-359,-2,1,-1,0
240971,218,-8195,-349,-2,1,-1,0
240976,233,-8191,-336,-2,2,0,0
240980,249,-8188,-323,-2,3,0,0
240985,264,-8185,-316,-2,3,0,0
240990,277,-8184,-310,-2,3,0,0
240995,282,-8188,-305,-2,4,0,0
241000,286,-8187,-310,-2,4,0,0
241005,286,-8185,-306,-2,4,0,0
241009,280,-8188,-300,-2,4,0,0
241015,270,-8191,-293,-2,4,0,0
241020,258,-8189,-281,-2,4,0,0
241024,243,-8188,-283,-2,5,0,0
241030,225,-8190,-275,-2,6,0,0
241035,207,-8190,-268,-2,6,0,0
241040,189,-8188,-261,-2,7,0,0
241045,176,-8191,-252,-2,8,0,0
241050,167,-8194,-240,-2,8,0,0
241055,159,-8195,-227,-2,7,0,0
241061,152,-8197,-210,-2,7,0,0
241065,147,-8197,-194,-2,7,0,0
241070,139,-8198,-176,-2,8,0,0
241076,132,-8199,-162,-2,8,0,0
241081,121,-8199,-153,-2,8,0,0
241086,107,-8199,-146,-2,7,0,0
241091,94,-8199,-139,-2,8,0,0
241096,87,-8200,-134,-2,8,0,0
241102,80,-8198,-127,-2,8,0,0
241107,77,-8197,-117,-2,9,0,0
241112,77,-8199,-108,-2,9,0,0
241117,73,-8198,-98,-2,9,0,0
241123,68,-8195,-95,-2,8,0,0
241128,55,-8195,-90,-2,8,0,0
241134,43,-8197,-88,-2,8,0,0
241139,26,-8197,-87,-2,8,0,0
241144,12,-8195,-90,-3,8,0,0
241150,1,-8195,-89,-3,8,0,0
241155,-4,-8194,-90,-3,8,0,0
241160,-8,-8192,-98,-3,7,0,0
241165,-3,-8193,-98,-3,7,-1,0
241171,6,-8195,-101,-3,6,-1,0
241177,15,-8194,-104,-3,6,-1,0
241181,25,-8193,-109,-3,6,-1,0
241186,37,-8191,-118,-3,5,-1,0
241192,45,-8190,-127,-3,5,-1,0
241197,51,-8187,-137,-3,5,-1,0
241203,53,-8187,-138,-3,4,-1,0
241208,55,-8190,-142,-3,4,-1,0
241213,55,-8192,-149,-3,5,-1,0
241219,58,-8191,-154,-3,5,-1,0
241224,59,-8189,-156,-3,5,-1,0
241230,67,-8191,-156,-3,5,-1,0
241235,77,-8191,-157,-3,5,-1,0
241241,87,-8191,-158,-3,5,-1,0
241246,96,-8192,-160,-3,4,-1,0
241251,109,-8191,-156,-3,4,-1,0
241257,122,-8190,-157,-3,3,-1,0
241262,129,-8189,-155,-3,3,-1,0
241267,136,-8189,-161,-3,2,-1,0
241272,142,-8190,-168,-3,2,-1,0
241278,144,-8192,-178,-3,2,-1,0
241284,145,-8191,-186,-3,2,-1,0
241289,152,-8189,-197,-3,2,-1,0
241294,160,-8191,-208,-3,2,-1,0
241300,172,-8189,-218,-3,3,-1,0
241305,185,-8190,-230,-3,2,-1,0
241310,195,-8191,-238,-3,2,-1,0
241316,206,-8190,-243,-3,2,-1,0
241322,215,-8186,-249,-3,3,-1,0
241326,223,-8185,-261,-3,3,-1,0
241332,227,-8184,-270,-3,3,-1,0
241337,226,-8186,-275,-3,2,-1,0
241343,222,-8186,-283,-3,3,-1,0
241347,216,-8185,-291,-3,3,0,0
241353,211,-8188,-296,-3,3,0,0
241358,202,-8187,-301,-3,3,0,0
241363,196,-8187,-300,-3,3,0,0
241368,196,-8187,-302,-3,3,0,0
241373,193,-8191,-302,-3,3,0,0
241378,189,-8192,-304,-3,2,0,0
241384,183,-8191,-308,-3,2,0,0
241389,180,-8192,-309,-3,2,0,0
241394,173,-8189,-311,-3,1,0,0
241400,168,-8189,-316,-3,1,0,0
241405,164,-8191,-319,-3,1,0,0
241410,163,-8193,-319,-3,1,0,0
241415,161,-8194,-319,-3,0,0,0
241421,162,-8193,-320,-3,0,0,0
241426,164,-8192,-321,-3,0,0,0
241431,166,-8195,-325,-3,0,0,0
241437,167,-8194,-329,-3,0,0,0
241441,167,-8193,-336,-3,0,0,0
241446,166,-8190,-338,-3,0,0,0
241452,159,-8189,-339,-3,0,0,0
241457,149,-8193,-339,-3,0,0,0
241461,137,-8193,-339,-3,0,0,0
241466,124,-8194,-336,-3,0,0,0
241471,113,-8196,-336,-3,0,0,0
241477,107,-8196,-332,-3,0,0,0
241481,101,-8197,-328,-3,0,-1,0
241486,97,-8198,-325,-3,0,-1,0
241492,95,-8197,-324,-3,0,-1,0
241497,93,-8199,-324,-3,0,-1,0
241501,93,-8201,-326,-3,-1,-1,0
241505,95,-8202,-326,-3,-1,-1,0
241510,92,-8202,-330,-3,-1,-1,0
241516,89,-8200,-335,-3,-1,-1,0
241521,88,-8200,-335,-3,-1,-1,0
241526,83,-8200,-337,-3,-1,-1,0
241532,76,-8198,-341,-3,-1,-1,0
241537,78,-8197,-349,-3,-1,-1,0
241541,82,-8194,-350,-3,-1,-1,0
241546,83,-8195,-356,-3,-1,-1,0
241550,86,-8196,-355,-3,-1,-1,0
241554,92,-8193,-352,-3,-1,-1,0
241560,95,-8196,-353,-3,-1,-1,0
241565,90,-8199,-354,-3,-2,-1,0
241571,85,-8200,-357,-3,-2,-1,0
241576,86,-8200,-359,-3,-1,-1,0
241581,85,-8199,-363,-3,-2,-1,0
241585,84,-8200,-362,-3,-2,-1,0
241589,84,-8202,-362,-3,-2,-1,0
241593,93,-8200,-362,-3,-1,-1,0
241598,107,-8200,-357,-3,-1,-1,0
241602,125,-8197,-351,-3,-1,-1,0
241606,139,-8196,-347,-3,-2,-1,0
241610,151,-8196,-346,-3,-2,-1,0
241615,161,-8197,-346,-3,-2,-1,0
241619,167,-8197,-348,-3,-2,-1,0
241623,172,-8195,-351,-3,-2,-1,0
241627,176,-8194,-352,-3,-2,-1,0
241631,176,-8193,-354,-3,-1,-1,0
241636,178,-8193,-361,-3,-1,-1,0
241640,183,-8192,-371,-3,-1,-1,0
241644,192,-8191,-379,-3,-1,-1,0
241648,199,-8188,-388,-3,-1,-1,0
241652,204,-8186,-394,-3,-1,-1,0
241656,209,-8185,-401,-2,0,-1,0
241660,208,-8185,-407,-2,0,-1,0
241664,209,-8188,-415,-2,0,-1,0
241668,209,-8189,-425,-2,0,-1,0
241672,211,-8191,-432,-2,0,-1,0
241676,212,-8191,-436,-2,1,-1,0
241680,216,-8189,-442,-2,1,0,0
241684,225,-8191,-445,-2,1,0,0
241688,234,-8190,-445,-2,2,0,0
241692,241,-8190,-442,-2,2,0,0
241696,246,-8189,-439,-2,2,0,0
241700,251,-8184,-437,-2,2,0,0
241704,252,-8184,-434,-2,2,0,0
241708,251,-8186,-428,-2,2,0,0
241712,247,-8188,-417,-2,1,0,0
241716,241,-8187,-411,-2,1,0,0
241720,235,-8186,-402,-2,1,0,0
241724,230,-8187,-393,-2,1,0,0
241728,228,-8186,-388,-2,1,0,0
241732,224,-8186,-384,-2,1,0,0
241737,217,-8187,-387,-2,0,0,0
241742,211,-8187,-400,-2,0,0,0
241747,209,-8186,-409,-2,0,0,0
241752,209,-8183,-416,-2,0,0,0
241757,205,-8183,-427,-2,0,0,0
241762,205,-8183,-440,-2,0,0,0
241767,202,-8182,-443,-2,0,0,0
241772,198,-8182,-449,-2,1,0,0
241777,194,-8184,-450,-2,2,0,0
241782,194,-8180,-449,-2,3,0,0
241787,195,-8180,-449,-2,3,0,0
241792,192,-8183,-445,-2,4,0,0
241797,188,-8183,-437,-2,4,0,0
241802,183,-8183,-427,-2,4,0,0
241807,177,-8181,-410,-2,5,0,0
241812,167,-8182,-385,-2,5,0,0
241817,160,-8182,-364,-2,5,0,0
241822,154,-8184,-346,-2,6,0,0
241827,148,-8182,-328,-2,6,0,0
241833,140,-8181,-319,-2,6,0,0
241838,136,-8180,-309,-2,6,0,0
241843,128,-8182,-301,-2,5,0,0
241847,122,-8183,-295,-2,5,0,0
241852,118,-8187,-297,-2,5,0,0
241857,115,-8188,-300,-2,4,0,0
241862,111,-8190,-304,-2,4,0,0
241867,110,-8190,-313,-2,4,0,0
241872,106,-8189,-320,-2,4,0,0
241877,104,-8189,-327,-2,4,0,0
241882,102,-8190,-335,-2,4,0,0
241887,100,-8190,-342,-2,4,0,0
241892,95,-8191,-348,-2,4,0,0
241897,92,-8190,-350,-2,4,0,0
241902,85,-8188,-343,-2,4,0,0
241907,80,-8187,-336,-2,4,0,0
241912,77,-8190,-326,-2,4,0,0
241917,76,-8190,-315,-2,3,0,0
241922,78,-8191,-304,-2,3,0,0
241927,84,-8191,-291,-2,3,0,0
241932,84,-8191,-277,-2,3,0,0
241937,82,-8192,-266,-2,2,-1,0
241942,81,-8193,-257,-2,2,-1,0
241947,78,-8193,-247,-2,1,-1,0
241953,75,-8192,-243,-2,1,-1,0
241958,70,-8191,-245,-2,1,-1,0
241963,67,-8191,-242,-2,1,-1,0
241968,68,-8190,-245,-2,1,-1,0
241973,74,-8190,-252,-2,1,-1,0
241978,80,-8192,-253,-2,1,-1,0
241983,90,-8193,-255,-2,1,-1,0
241987,101,-8193,-253,-2,1,-1,0
241993,107,-8191,-253,-2,1,-1,0
241997,112,-8191,-259,-2,1,-1,0
242003,116,-8194,-266,-2,0,-1,0
242007,117,-8197,-269,-2,0,-1,0
242013,119,-8201,-270,-2,0,-1,0
242018,123,-8200,-270,-2,0,-1,0
242024,127,-8199,-268,-3,-1,-1,0
242029,130,-8198,-271,-3,-1,-1,0
242034,134,-8199,-273,-3,-1,-1,0
242040,141,-8197,-277,-2,-1,-1,0
242045,147,-8197,-283,-2,-1,-1,0
242051,154,-8193,-293,-2,-2,-1,0
242057,163,-8192,-310,-2,-2,-1,0
242063,173,-8191,-324,-2,-2,-1,0
242068,184,-8189,-343,-2,-1,-1,0
242074,195,-8188,-362,-2,-1,-1,0
242079,207,-8186,-382,-2,-1,-1,0
242085,217,-8187,-397,-2,-1,-1,0
242090,226,-8189,-403,-2,-1,-1,0
242095,232,-8190,-412,-2,0,-1,0
242101,234,-8191,-419,-2,0,-1,0
242106,233,-8190,-426,-2,0,-1,0
242111,235,-8187,-429,-2,1,0,0
242116,231,-8187,-436,-2,1,0,0
242121,227,-8187,-442,-2,1,0,0
242126,225,-8185,-447,-2,1,0,0
242131,225,-8185,-444,-2,2,0,0
242136,226,-8188,-439,-2,2,0,0
242141,230,-8192,-434,-2,1,0,0
242146,232,-8191,-424,-2,1,0,0
242151,229,-8189,-417,-2,1,0,0
242157,225,-8188,-408,-2,1,0,0
242162,218,-8184,-400,-2,1,0,0
242166,209,-8185,-391,-2,1,0,0
242172,203,-8185,-386,-2,1,0,0
242177,197,-8187,-376,-2,1,0,0
242181,190,-8186,-367,-2,1,0,0
242185,188,-8187,-359,-2,2,0,4
242189,190,-8192,-348,-2,2,0,4
242194,189,-8197,-340,-2,2,0,4
242199,187,-8196,-334,-2,2,0,4
242204,184,-8196,-332,-2,1,0,4
242209,183,-8197,-331,-2,1,0,4
242213,179,-8199,-333,-2,1,0,4
242218,174,-8199,-332,-2,1,0,4
242224,169,-8197,-335,-2,1,0,4
242228,166,-8197,-337,-2,1,0,4
242232,165,-8195,-338,-2,0,0,4
242237,164,-8196,-340,-2,0,0,4
242242,162,-8196,-337,-2,0,0,4
242246,156,-8197,-337,-2,0,0,4
242251,151,-8197,-334,-2,0,0,4
242257,146,-8199,-333,-2,0,0,4
242262,142,-8200,-333,-2,-1,0,4
242267,139,-8200,-333,-2,-1,0,4
242272,133,-8199,-337,-2,-1,0,4
242277,131,-8197,-340,-2,-1,0,4
242282,135,-8197,-342,-2,-1,0,4
242287,139,-8197,-347,-2,-1,0,4
242293,143,-8193,-357,-2,-1,0,4
242298,145,-8191,-365,-2,-1,0,4
242303,145,-8192,-372,-2,-1,0,4
242308,148,-8194,-382,-2,-1,0,4
242312,148,-8193,-395,-2,-1,0,4
242316,148,-8193,-403,-2,-1,0,4
242320,147,-8191,-409,-2,-1,0,4
242324,148,-8191,-411,-2,-1,0,4
242328,146,-8193,-412,-2,-1,0,4
242332,144,-8194,-412,-2,-1,0,4
242337,149,-8192,-412,-2,-1,0,4
242342,153,-8188,-416,-2,-1,0,4
242347,156,-8186,-420,-2,-1,0,4
242352,159,-8184,-420,-2,-1,0,4
242357,160,-8186,-420,-2,-2,0,4
242363,161,-8185,-420,-2,-2,0,4
242368,163,-8190,-417,-2,-2,0,4
242373,166,-8192,-419,-2,-2,0,4
242379,163,-8192,-420,-2,-2,0,4
242385,164,-8191,-423,-2,-2,0,4
242390,164,-8193,-427,-2,-2,0,4
242395,160,-8194,-431,-2,-2,0,4
242401,160,-8196,-437,-2,-2,0,4
242406,164,-8196,-440,-2,-2,0,4
242411,168,-8196,-437,-2,-2,0,4
242417,171,-8194,-436,-2,-2,0,4
242423,173,-8192,-435,-2,-2,0,4
242427,172,-8188,-432,-2,-2,0,4
242433,176,-8186,-427,-2,-1,0,4
242439,177,-8184,-423,-2,-1,0,4
242444,176,-8182,-417,-2,-1,0,4
242449,173,-8184,-416,-2,-1,0,4
242455,167,-8187,-415,-2,-1,0,4
242461,163,-8187,-413,-2,0,0,4
242466,158,-8190,-408,-2,0,0,4
242471,153,-8192,-400,-2,1,0,4
242476,148,-8192,-390,-2,1,0,4
242481,148,-8191,-381,-2,1,0,4
242486,149,-8192,-371,-1,1,0,4
242491,148,-8194,-365,-1,1,0,4
242496,150,-8194,-366,-2,2,0,4
242499,155,-8191,-361,-1,2,0,4
242503,157,-8191,-355,-1,2,0,4
242507,159,-8189,-350,-1,2,0,4
242513,160,-8190,-349,-1,1,0,4
242518,161,-8189,-349,-1,1,0,4
242524,161,-8190,-344,-1,1,0,4
242528,158,-8188,-335,-2,1,0,4
242534,160,-8187,-328,-2,1,0,4
242540,158,-8186,-323,-2,1,0,4
242545,159,-8186,-318,-2,1,0,4
242549,158,-8188,-309,-2,1,0,4
242555,156,-8187,-300,-2,1,0,4
242560,154,-8183,-294,-2,1,0,4
242566,152,-8185,-289,-2,1,0,4
242571,149,-8187,-280,-2,1,0,4
242577,145,-8189,-271,-2,0,0,4
242582,145,-8191,-267,-2,0,0,4
242587,147,-8190,-265,-2,0,0,4
242592,153,-8189,-262,-2,0,0,4
242597,163,-8187,-260,-2,-1,0,4
242603,167,-8186,-257,-2,-1,0,4
242608,167,-8185,-255,-2,-1,0,4
242614,167,-8185,-258,-2,-1,0,4
242619,167,-8189,-259,-2,-1,0,4
242625,163,-8190,-260,-2,-1,0,4
242630,161,-8188,-268,-2,-1,0,4
242635,157,-8189,-274,-2,-1,0,4
242640,157,-8192,-277,-2,-1,0,4
242645,158,-8193,-280,-2,-1,0,4
242651,155,-8194,-282,-2,-1,0,4
242657,157,-8195,-282,-2,-1,0,4
242662,157,-8195,-282,-2,-1,0,4
242667,159,-8195,-280,-2,-1,0,4
242673,156,-8197,-282,-2,-1,0,4
242679,151,-8195,-279,-2,-2,0,4
242683,147,-8194,-278,-2,-2,0,4
242687,139,-8196,-280,-2,-2,0,4
242692,134,-8198,-283,-2,-2,0,4
242697,131,-8195,-285,-2,-2,0,4
242701,133,-8195,-290,-2,-2,0,4
242705,133,-8198,-298,-2,-2,0,4
242709,136,-8198,-305,-2,-2,0,4
242713,142,-8200,-318,-2,-2,0,4
242717,143,-8196,-323,-2,-2,0,4
242721,143,-8195,-329,-2,-2,0,4
242725,142,-8191,-329,-2,-2,0,4
242729,139,-8189,-330,-2,-2,0,4
242733,141,-8189,-337,-2,-2,0,4
242737,141,-8191,-344,-2,-2,0,4
242741,146,-8190,-350,-2,-2,0,4
242745,149,-8190,-353,-2,-2,0,4
242749,150,-8188,-352,-2,-2,0,4
242753,151,-8188,-352,-2,-2,0,4
242757,149,-8191,-350,-2,-2,0,4
242761,149,-8191,-347,-2,-2,0,4
242766,146,-8190,-342,-2,-1,0,4
242771,142,-8192,-350,-2,-1,0,4
242776,136,-8192,-352,-2,-1,0,4
242781,129,-8190,-355,-2,-1,-1,4
242786,124,-8190,-347,-2,-1,0,4
242791,121,-8192,-331,-2,-1,0,4
242796,120,-8194,-318,-2,-1,-1,4
242801,125,-8192,-308,-2,-2,-1,4
242806,133,-8192,-303,-2,-2,0,4
242811,137,-8191,-305,-2,-2,-1,4
242816,140,-8190,-310,-2,-1,-1,4
242821,142,-8190,-314,-2,-1,-1,4
242826,142,-8192,-313,-2,-1,-1,4
242831,142,-8193,-315,-2,-1,-1,4
242836,140,-8194,-322,-2,-1,-1,4
242841,139,-8192,-319,-2,0,-1,4
242846,141,-8192,-321,-2,1,-1,4
242851,140,-8193,-320,-2,1,0,4
242856,143,-8195,-318,-2,2,-1,4
242861,149,-8195,-318,-2,2,0,4
242866,150,-8195,-310,-2,3,0,4
242871,146,-8195,-310,-2,5,0,4
242876,145,-8193,-307,-2,6,0,4
242881,155,-8190,-302,-2,8,0,4
242886,171,-8189,-302,-2,8,0,4
242891,169,-8189,-303,-2,9,0,4
242896,175,-8188,-302,-2,11,0,4
242901,186,-8188,-295,-3,14,0,4
242906,183,-8191,-285,-3,16,0,4
242911,171,-8193,-275,-3,18,0,4
242916,141,-8193,-276,-3,20,0,4
242921,98,-8196,-281,-3,23,0,4
242926,34,-8198,-285,-3,28,0,4
242931,-50,-8200,-290,-3,36,0,4
242936,-145,-8200,-297,-3,47,0,4
242941,-251,-8201,-298,-3,60,0,4
242946,-357,-8199,-305,-4,76,0,4
242951,-460,-8199,-326,-4,94,1,4
242956,-554,-8197,-359,-4,113,1,4
242961,-637,-8200,-410,-4,133,1,4
242966,-725,-8202,-479,-4,154,1,4
242971,-816,-8205,-557,-4,175,1,4
242976,-930,-8204,-650,-4,200,1,4
242981,-1109,-8206,-721,-4,227,2,4
242986,-1358,-8210,-779,-5,261,2,4
242991,-1634,-8215,-780,-5,299,2,4
242996,-2174,-8216,-839,-5,349,2,4
243001,-2717,-8223,-752,-5,420,1,4
243006,-3129,-8227,-604,-7,491,2,4
243011,-3601,-8230,-480,-8,561,3,4
243016,-3945,-8230,-169,-9,627,5,4
243021,-4296,-8233,133,-9,701,6,4
243026,-4736,-8238,527,-10,793,6,4
243031,-5336,-8244,1005,-11,912,7,4
243036,-6100,-8247,1457,-12,1051,7,4
243041,-7002,-8251,1889,-12,1198,7,4
243046,-7731,-8270,2256,-12,1329,10,4
243051,-7899,-8295,2803,-13,1430,15,4
243056,-7274,-8251,3795,-17,1430,20,4
243061,-6049,-8221,5170,-18,1430,21,4
243066,-4243,-8237,6772,-23,1430,18,4
243071,-2555,-8161,8144,-28,1236,22,4
243076,-936,-8176,9321,-27,1011,25,4
243081,200,-8198,10329,-23,835,24,4
243086,1185,-8218,10264,-19,689,15,4
243091,1782,-8246,8844,-21,544,6,4
243096,2242,-8242,7338,-25,398,0,4
243101,2546,-8239,5944,-24,302,0,4
243106,2663,-8234,4755,-20,265,3,4
243111,2656,-8235,4018,-15,269,5,4
243116,2565,-8251,3459,-12,284,5,4
243121,2481,-8262,3109,-8,290,6,4
243126,2348,-8270,3042,-4,277,8,4
243131,2096,-8264,2774,-2,241,7,4
243136,1981,-8256,2293,-2,190,5,4
243141,1941,-8252,1850,-1,138,3,4
243146,1923,-8248,1366,-2,84,2,4
243151,1873,-8242,1045,-2,33,2,4
243156,1765,-8235,889,-3,-8,2,4
243161,1679,-8225,813,-2,-33,1,4
243166,1651,-8218,897,-1,-50,0,4
243171,1654,-8211,1009,0,-66,0,4
243176,1667,-8210,1018,0,-83,0,4
243181,1660,-8210,998,1,-102,-1,4
243186,1596,-8208,891,1,-121,-2,4
243191,1501,-8206,745,1,-139,-2,4
243196,1341,-8209,634,0,-151,-3,4
243201,1142,-8211,528,0,-159,-3,4
243206,963,-8212,487,0,-162,-3,4
243211,800,-8212,448,0,-163,-3,4
243216,679,-8212,403,0,-164,-3,4
243221,602,-8213,353,0,-166,-3,4
243226,564,-8211,259,0,-169,-3,4
243231,558,-8206,169,0,-174,-3,4
243236,562,-8206,71,0,-179,-4,4
243241,585,-8204,-1,0,-186,-4,4
243246,604,-8201,-17,0,-192,-4,4
243251,628,-8198,-1,-1,-201,-4,4
243256,680,-8196,72,0,-212,-5,4
243262,740,-8195,173,0,-230,-5,4
243267,822,-8197,289,0,-253,-6,4
243272,936,-8199,433,0,-284,-6,4
243277,1070,-8202,593,0,-322,-7,4
243281,1235,-8206,794,0,-365,-8,4
243286,1424,-8206,1009,1,-413,-9,4
243291,1642,-8207,1230,1,-466,-10,4
243296,1831,-8200,1480,2,-520,-11,4
243301,1949,-8198,1619,2,-566,-11,4
243306,2030,-8194,1716,3,-602,-12,4
243311,2050,-8198,1778,3,-628,-12,4
243316,2080,-8208,1831,2,-650,-12,4
243321,2164,-8213,1987,2,-678,-12,4
243326,2239,-8220,2257,1,-717,-12,4
243331,2327,-8220,2672,1,-760,-12,4
243336,2413,-8217,3171,1,-802,-13,4
243341,2492,-8216,3666,1,-841,-14,4
243346,2538,-8217,4096,1,-879,-14,4
243350,2521,-8212,4440,2,-911,-14,4
243355,2410,-8207,4656,3,-939,-14,4
243361,2099,-8203,4666,4,-954,-14,4
243365,1570,-8196,4509,5,-944,-13,4
243371,891,-8182,4173,6,-893,-12,4
243376,250,-8184,3749,5,-786,-9,4
243381,-1487,-8209,3894,2,-635,-8,4
243386,-3322,-8257,3655,-2,-510,-13,4
243392,-4484,-8313,3741,0,-418,-13,4
243397,-5087,-8353,3906,3,-338,-9,4
243402,-5188,-8298,3235,2,-284,-4,4
243407,-4861,-8246,2490,2,-244,-3,4
243412,-4439,-8228,1992,2,-220,-3,4
243418,-3951,-8233,1588,1,-229,-2,4
243423,-3231,-8221,1177,0,-263,-2,4
243429,-2580,-8218,892,-1,-298,-3,4
243435,-2024,-8219,761,-2,-329,-4,4
243441,-1536,-8217,714,-2,-348,-5,4
243446,-1146,-8209,761,-2,-351,-6,4
243452,-1080,-8205,821,-2,-338,-6,4
243457,-1091,-8198,802,-1,-320,-6,4
243462,-1156,-8193,710,-1,-293,-5,4
243468,-1407,-8198,528,0,-263,-4,4
243473,-1573,-8199,201,0,-235,-3,4
243478,-1682,-8201,-139,0,-201,-2,4
243484,-1774,-8208,-461,-1,-168,-1,4
243489,-1690,-8206,-730,-2,-136,-1,4
243496,-1525,-8204,-888,-2,-105,0,4
243501,-1353,-8200,-972,-2,-81,-1,4
243506,-1128,-8196,-999,-2,-64,-1,4
243512,-857,-8191,-973,-2,-50,-1,4
243518,-714,-8187,-935,-1,-37,0,4
243524,-617,-8185,-901,-1,-27,0,4
243529,-492,-8182,-898,-1,-16,0,4
243535,-448,-8184,-883,-1,-6,0,4
243541,-411,-8186,-851,-1,0,0,4
243546,-366,-8188,-821,-2,2,0,4
243552,-345,-8188,-746,-2,1,0,4
243557,-322,-8188,-645,-2,0,0,4
243563,-295,-8188,-540,-2,1,0,4
243568,-266,-8190,-416,-2,3,0,4
243573,-226,-8192,-309,-2,6,0,4
243579,-207,-8193,-221,-2,8,0,4
243584,-189,-8192,-162,-2,9,0,4
243589,-172,-8192,-140,-2,9,0,4
243595,-191,-8192,-127,-2,8,0,4
243600,-199,-8192,-114,-2,7,0,4
243605,-197,-8189,-111,-2,6,0,4
243610,-206,-8189,-94,-2,7,0,4
243615,-181,-8186,-80,-2,7,0,4
243621,-146,-8185,-76,-2,8,0,4
243627,-120,-8186,-73,-2,9,0,4
243633,-73,-8186,-91,-2,9,0,4
243639,-31,-8189,-117,-2,11,0,4
243644,-12,-8194,-137,-2,12,0,4
243649,19,-8196,-166,-3,13,0,4
243654,33,-8198,-184,-3,15,0,4
243659,34,-8197,-195,-3,15,0,4
243664,49,-8195,-204,-3,16,0,4
243669,40,-8196,-206,-3,17,0,4
243674,40,-8198,-208,-3,17,0,4
243680,51,-8198,-214,-3,18,0,4
243685,46,-8199,-206,-3,19,0,4
243690,54,-8198,-201,-3,19,0,4
243695,63,-8195,-195,-3,19,0,4
243700,54,-8197,-175,-3,20,0,4
243706,56,-8194,-162,-3,22,0,4
243710,59,-8191,-142,-3,23,0,4
243715,49,-8190,-123,-3,23,0,4
243720,48,-8192,-120,-3,22,0,4
243726,46,-8195,-116,-3,22,0,4
243730,35,-8196,-121,-3,21,0,4
243735,37,-8193,-135,-3,21,0,4
243741,43,-8190,-151,-3,22,0,4
243746,49,-8188,-175,-3,22,0,4
243751,57,-8186,-196,-3,22,0,4
243756,58,-8185,-214,-3,21,0,4
243762,62,-8185,-228,-3,21,0,4
243767,73,-8184,-250,-3,20,0,4
243771,82,-8185,-276,-3,19,0,4
243777,89,-8185,-309,-3,19,0,4
243782,97,-8187,-344,-3,20,0,4
243787,112,-8185,-381,-3,22,0,4
243793,128,-8187,-408,-3,22,0,4
243798,141,-8188,-427,-3,22,0,4
243803,157,-8190,-431,-3,21,0,4
243808,157,-8190,-413,-3,21,0,4
243813,154,-8186,-388,-3,20,0,4
243818,153,-8185,-363,-3,19,0,4
243823,141,-8187,-338,-3,18,0,4
243828,140,-8188,-332,-3,17,0,4
243834,141,-8189,-332,-3,16,0,4
243839,135,-8190,-333,-3,15,0,4
243844,143,-8191,-338,-3,13,0,4
243848,153,-8189,-339,-3,10,0,4
243853,155,-8189,-325,-3,8,0,4
243858,166,-8190,-313,-3,5,0,4
243863,161,-8191,-295,-3,3,0,4
243868,150,-8193,-285,-3,2,0,4
243873,149,-8193,-284,-3,2,0,4
243879,137,-8192,-289,-3,2,0,4
243883,125,-8190,-299,-3,1,0,4
243887,125,-8191,-319,-3,0,0,4
243890,112,-8194,-332,-3,-1,0,4
243894,104,-8197,-345,-3,-2,0,4
243900,103,-8196,-350,-3,-2,0,4
243905,99,-8198,-347,-3,-1,0,4
243909,107,-8196,-352,-3,-2,0,4
243914,119,-8195,-356,-3,-2,0,4
243920,118,-8193,-363,-3,-3,0,4
243925,122,-8190,-379,-3,-2,0,4
243929,129,-8192,-392,-3,-2,0,4
243934,128,-8194,-404,-3,-1,0,4
243938,136,-8193,-413,-3,-1,0,4
243942,142,-8190,-419,-3,-1,0,4
243948,139,-8188,-422,-2,-2,0,4
243952,140,-8189,-424,-2,-3,0,4
243956,134,-8191,-433,-2,-2,0,4
243960,125,-8189,-438,-2,-2,0,4
243964,126,-8190,-446,-2,-1,0,4
243968,121,-8190,-446,-2,-1,0,4
243972,112,-8188,-443,-2,-1,0,4
243977,114,-8185,-439,-2,-1,0,4
243982,106,-8183,-430,-2,-1,0,4
243987,98,-8181,-422,-2,-2,0,4
243993,88,-8182,-414,-2,-2,0,4
243998,71,-8182,-405,-2,-2,0,4
244004,59,-8182,-403,-2,-2,0,4
244009,48,-8181,-401,-2,-1,0,4
244013,33,-8183,-395,-2,0,0,4
244018,26,-8185,-390,-2,0,0,4
244024,23,-8184,-387,-2,0,0,4
244028,14,-8182,-386,-2,1,0,4
244032,13,-8180,-385,-2,1,0,4
244036,15,-8180,-381,-2,2,0,4
244040,12,-8182,-375,-2,3,0,4
244044,15,-8184,-377,-2,3,0,4
244048,19,-8181,-381,-2,4,0,4
244052,24,-8182,-387,-2,4,0,4
244056,32,-8185,-391,-2,4,0,4
244060,39,-8186,-397,-2,3,0,4
244064,42,-8185,-402,-2,3,0,4
244068,42,-8184,-404,-2,3,0,4
244072,41,-8185,-397,-2,4,0,4
244076,37,-8186,-386,-2,4,0,4
244080,31,-8185,-376,-2,4,0,4
244084,27,-8185,-368,-2,4,0,4
244088,24,-8183,-360,-2,4,0,4
244092,21,-8180,-351,-2,4,0,4
244096,22,-8180,-348,-2,3,0,4
244100,21,-8181,-340,-2,3,0,4
244105,22,-8185,-333,-2,2,0,4
244110,26,-8190,-330,-2,1,0,4
244115,35,-8190,-324,-2,0,0,4
244120,38,-8191,-329,-2,-1,0,4
244125,39,-8193,-330,-2,-1,0,4
244130,44,-8193,-329,-2,-1,0,4
244135,47,-8190,-332,-2,-1,0,4
244140,44,-8190,-334,-2,-1,0,4
244145,37,-8191,-340,-2,-1,0,4
244150,31,-8191,-344,-2,-1,0,4
244155,23,-8189,-350,-2,0,0,4
244160,18,-8190,-356,-2,1,0,4
244165,16,-8188,-358,-2,2,0,4
244170,15,-8188,-361,-2,2,0,4
244175,20,-8189,-369,-2,2,0,0
244180,25,-8186,-376,-2,3,0,0
244185,32,-8185,-383,-2,3,0,0
244190,37,-8187,-387,-2,3,0,0
244195,40,-8189,-397,-2,2,0,0
244200,37,-8190,-399,-2,2,0,0
244205,33,-8192,-398,-2,2,0,0
244210,26,-8192,-398,-2,2,0,0
244215,25,-8194,-394,-2,2,0,0
244220,21,-8195,-394,-2,3,0,0
244225,17,-8196,-393,-2,3,0,0
244230,19,-8195,-392,-2,3,0,0
244235,24,-8192,-400,-2,3,0,0
244240,28,-8192,-403,-2,3,0,0
244245,31,-8191,-406,-2,2,0,0
244250,32,-8191,-409,-2,2,0,0
244255,33,-8190,-407,-2,2,0,0
244260,33,-8189,-408,-2,2,0,0
244265,34,-8187,-406,-2,2,0,0
244270,30,-8187,-407,-2,2,0,0
244275,29,-8187,-412,-2,2,0,0
244280,26,-8188,-414,-2,2,0,0
244285,25,-8189,-423,-2,2,0,0
244290,26,-8186,-428,-2,1,0,0
244295,26,-8188,-435,-2,1,0,0
244300,28,-8189,-434,-2,1,0,0
244305,32,-8190,-430,-2,1,0,0
244310,36,-8191,-427,-2,1,0,0
244315,42,-8191,-427,-2,1,0,0
244320,46,-8192,-423,-2,1,0,0
244325,45,-8193,-426,-2,1,0,0
244330,48,-8191,-430,-2,0,0,0
244335,48,-8191,-432,-2,0,0,0
244340,43,-8192,-431,-2,0,0,0
244345,41,-8192,-424,-2,0,0,0
244350,38,-8190,-420,-2,0,0,0
244355,33,-8189,-414,-2,0,0,0
244360,32,-8190,-414,-2,0,0,0
244365,30,-8190,-417,-2,0,0,0
244370,30,-8187,-416,-2,-1,0,0
244375,33,-8186,-428,-2,-1,0,0
244380,29,-8187,-431,-2,-2,0,0
244385,29,-8186,-431,-2,-2,0,0
244390,32,-8187,-431,-2,-2,0,0
244396,34,-8190,-425,-2,-2,0,0
244400,36,-8190,-423,-2,-2,0,0
244405,40,-8188,-422,-2,-2,0,0
244410,43,-8190,-425,-2,-1,0,0
244415,51,-8192,-430,-2,-1,0,0
244420,58,-8190,-436,-2,0,0,0
244425,60,-8191,-441,-2,0,0,0
244429,64,-8194,-440,-2,0,0,0
244435,69,-8194,-436,-1,0,0,0
244440,69,-8192,-430,-1,1,0,0
244445,74,-8190,-424,-1,2,0,0
244450,78,-8192,-413,-1,2,0,0
244455,79,-8192,-407,-1,3,0,0
244460,83,-8193,-403,-1,3,0,0
244465,84,-8193,-397,-1,3,0,0
244470,79,-8192,-395,-1,2,0,0
244475,78,-8190,-391,-1,2,0,0
244480,75,-8191,-389,-1,2,0,0
244484,72,-8190,-385,-1,2,0,0
244490,79,-8188,-377,-1,1,0,0
244495,83,-8187,-364,-1,0,0,0
244499,88,-8189,-360,-1,0,0,0
244504,93,-8189,-360,-1,-1,0,0
244509,97,-8189,-361,-1,-1,0,0
244515,102,-8188,-362,-1,-1,0,0
244520,104,-8188,-364,-1,-1,0,0
244526,102,-8189,-366,-1,-1,0,0
244530,99,-8190,-366,-1,-2,0,0
244536,96,-8189,-370,-1,-1,0,0
244542,90,-8187,-368,-1,-1,0,0
244547,91,-8190,-370,-1,-1,0,0
244552,94,-8189,-376,-1,0,0,0
244557,101,-8188,-381,-1,0,0,0
244562,108,-8186,-387,-1,-1,0,0
244567,111,-8187,-391,-1,-1,0,0
244572,111,-8187,-391,-1,-2,0,0
244578,112,-8187,-387,-1,-2,0,0
244583,112,-8188,-381,-1,-2,0,0
244589,102,-8190,-374,-1,-2,0,0
244594,92,-8191,-368,-1,-2,0,0
244600,80,-8188,-363,-1,-2,0,0
244606,67,-8191,-365,-1,-2,0,0
244611,58,-8190,-366,-1,-2,0,0
244616,49,-8189,-361,-1,-1,0,0
244622,44,-8190,-361,-1,-1,0,0
244628,47,-8189,-360,-1,-2,0,0
244633,49,-8188,-355,-1,-2,0,0
244639,48,-8189,-348,-1,-2,0,0
244645,48,-8190,-340,-1,-2,0,0
244650,46,-8187,-334,-1,-2,0,0
244655,38,-8186,-329,-1,-1,0,0
244660,32,-8187,-326,-1,-1,0,0
244665,27,-8188,-324,-1,-1,0,0
244670,25,-8190,-324,-1,-1,0,0
244676,25,-8194,-319,-1,0,0,0
244682,26,-8198,-314,-1,0,0,0
244687,31,-8197,-312,-1,0,0,0
244691,40,-8196,-305,-1,0,0,0
244697,48,-8195,-296,-1,1,0,0
244702,57,-8195,-289,-1,1,0,0
244708,68,-8195,-279,-1,1,0,0
244712,76,-8191,-274,-1,1,0,0
244718,83,-8187,-272,-1,1,0,0
244723,87,-8187,-263,-1,1,0,0
244728,90,-8186,-258,-1,1,0,0
244733,90,-8188,-251,-2,1,0,0
244739,91,-8187,-242,-2,1,0,0
244744,90,-8186,-237,-2,0,0,0
244750,89,-8186,-234,-2,0,0,0
244755,93,-8186,-228,-2,0,0,0
244760,99,-8185,-229,-2,-1,0,0
244766,103,-8184,-230,-2,-1,0,0
244770,103,-8182,-232,-2,-1,0,0
244776,104,-8182,-235,-2,-2,0,0
244782,106,-8183,-239,-2,-2,0,0
244787,99,-8183,-246,-2,-3,0,0
244792,90,-8182,-249,-2,-3,0,0
244798,82,-8182,-256,-2,-3,0,0
244803,70,-8185,-254,-2,-2,0,0
244809,62,-8189,-247,-2,-2,0,0
244814,55,-8191,-239,-2,-2,0,0
244819,51,-8190,-235,-2,-2,0,0
244824,50,-8189,-232,-2,-3,1,0
244829,46,-8188,-228,-2,-3,1,0
244835,44,-8188,-227,-2,-3,0,0
244840,41,-8188,-231,-2,-3,0,0
244845,35,-8189,-235,-2,-3,0,0
244850,29,-8187,-237,-2,-3,0,0
244856,22,-8187,-242,-2,-3,0,0
244862,10,-8187,-247,-2,-3,0,0
244867,-1,-8186,-252,-2,-3,0,0
244872,-8,-8185,-257,-2,-3,1,0
244878,-13,-8183,-259,-2,-3,0,0
244884,-14,-8182,-263,-2,-3,0,0
244889,-7,-8182,-259,-2,-4,0,0
244895,-8,-8179,-266,-2,-4,0,0
244901,-7,-8180,-274,-2,-4,0,0
244907,-9,-8180,-283,-2,-5,0,0
244912,-18,-8179,-289,-2,-5,0,0
244917,-26,-8181,-296,-2,-5,0,0
244923,-34,-8182,-305,-2,-5,0,0
244929,-42,-8182,-311,-2,-6,0,0
244934,-50,-8185,-319,-2,-6,0,0
244941,-57,-8184,-319,-2,-6,0,0
244946,-65,-8183,-318,-2,-6,0,0
244951,-71,-8180,-318,-2,-6,0,0
244957,-73,-8181,-313,-2,-5,0,0
244963,-75,-8182,-307,-2,-5,0,0
244969,-76,-8183,-311,-2,-5,0,0
244975,-77,-8184,-313,-2,-5,0,0
244980,-76,-8183,-317,-2,-6,0,0
244985,-74,-8183,-323,-2,-5,0,0
244989,-72,-8182,-328,-2,-5,0,0
244994,-71,-8182,-333,-2,-5,0,0
244999,-75,-8184,-334,-2,-5,0,0
245003,-76,-8186,-336,-2,-5,0,0
245008,-76,-8187,-339,-2,-5,0,0
245012,-76,-8183,-343,-2,-5,0,0
245016,-75,-8183,-351,-2,-5,0,0
245020,-78,-8180,-365,-2,-5,0,0
245024,-78,-8182,-381,-2,-5,0,0
245028,-79,-8182,-394,-2,-5,0,0
245033,-79,-8183,-404,-2,-5,0,0
245037,-77,-8182,-414,-2,-5,0,0
245041,-78,-8180,-419,-2,-5,0,0
245045,-79,-8178,-422,-2,-5,0,0
245049,-81,-8178,-428,-1,-5,0,0
245054,-84,-8181,-436,-1,-5,0,0
245058,-86,-8181,-445,-1,-5,0,0
245062,-87,-8181,-454,-1,-4,0,0
245066,-87,-8181,-460,-1,-4,0,0
245071,-86,-8182,-464,-1,-4,0,0
245075,-87,-8183,-464,-1,-4,0,0
245079,-84,-8183,-462,-1,-3,0,0
245083,-80,-8187,-461,-1,-3,0,0
245087,-76,-8189,-458,-1,-2,0,0
245091,-72,-8187,-458,-1,-2,0,0
245096,-65,-8184,-457,-1,-1,0,0
245100,-61,-8182,-457,-1,-1,0,0
245104,-58,-8181,-461,-1,-1,0,0
245108,-53,-8182,-457,-1,-1,0,0
245112,-52,-8179,-450,-1,0,0,0
245116,-44,-8177,-448,-1,0,0,0
245121,-39,-8178,-439,-1,0,0,0
245127,-34,-8177,-429,-1,0,0,0
245132,-29,-8177,-417,-1,0,0,0
245137,-29,-8179,-407,-1,0,0,0
245142,-30,-8181,-405,-1,0,0,0
245147,-32,-8181,-401,-1,0,0,0
245152,-35,-8181,-391,-1,0,0,0
245157,-38,-8183,-377,-1,-1,0,0
245163,-40,-8182,-358,-1,-1,0,0
245168,-44,-8179,-341,-1,-1,0,0
245173,-52,-8181,-329,-1,0,0,0
245178,-51,-8182,-323,-1,0,0,0
245183,-48,-8182,-321,-1,0,0,0
245189,-42,-8181,-315,-1,0,0,0
245194,-37,-8182,-313,-1,-1,0,0
245200,-35,-8180,-308,-1,-1,0,0
245205,-32,-8179,-305,-1,-1,0,0
245210,-28,-8179,-296,-1,0,0,0
245215,-28,-8182,-287,-1,0,0,0
245220,-27,-8186,-281,-1,0,0,0
245226,-30,-8186,-277,-1,1,0,0
245230,-35,-8187,-269,-1,1,0,0
245236,-37,-8188,-262,-1,2,0,0
245241,-37,-8188,-256,-1,2,0,0
245246,-40,-8187,-249,-1,2,0,0
245250,-39,-8187,-243,-1,2,0,0
245254,-38,-8186,-234,-1,2,0,0
245258,-38,-8187,-219,-1,2,-1,0
245262,-37,-8188,-207,-1,2,-1,0
245267,-39,-8191,-199,-1,1,-1,0
245271,-46,-8187,-192,-1,1,-1,0
245275,-48,-8187,-182,-1,0,-1,0
245280,-51,-8187,-167,-1,0,-1,0
245284,-55,-8189,-159,-1,0,-1,0
245288,-55,-8191,-156,-1,0,-1,0
245292,-55,-8192,-153,-1,0,-1,0
245296,-55,-8190,-148,-1,0,-1,0
245301,-57,-8188,-145,-1,0,-1,0
245305,-58,-8189,-145,-1,0,-1,0
245309,-55,-8191,-149,-1,0,-1,0
245313,-50,-8190,-151,-1,0,-1,0
245317,-45,-8190,-151,-1,0,-1,0
245322,-37,-8186,-152,-1,0,-1,0
245326,-26,-8185,-152,-1,0,-1,0
245330,-18,-8185,-153,-1,0,-1,0
245334,-9,-8185,-154,-1,0,-1,0
245339,-1,-8186,-158,-1,0,-1,0
245344,6,-8187,-163,-1,0,-1,0
245348,11,-8186,-168,-1,0,-1,0
245353,15,-8187,-171,-1,0,-1,0
245358,23,-8185,-179,-1,0,-1,0
245363,30,-8184,-184,-1,0,-1,0
245368,36,-8181,-188,-1,-1,0,0
245373,48,-8182,-190,-1,-1,-1,0
245378,59,-8182,-191,-1,-1,0,0
245383,68,-8179,-196,-1,-1,0,0
245388,75,-8180,-206,-1,-1,0,0
245393,81,-8179,-213,-1,-1,0,0
245398,83,-8179,-224,-1,-1,0,0
245403,86,-8178,-237,-1,-1,0,0
245408,88,-8178,-247,-1,-1,0,0
245413,90,-8178,-257,-1,-1,0,0
245418,95,-8176,-270,-1,-1,0,0
245423,97,-8177,-278,-1,0,0,0
245428,98,-8177,-285,-1,0,0,0
245433,102,-8180,-293,-1,1,0,0
245438,105,-8181,-297,-1,2,0,0
245443,106,-8180,-301,-1,3,0,0
245448,104,-8180,-309,-1,3,0,0
245453,102,-8178,-316,-1,4,0,0
245458,98,-8176,-320,-1,5,0,0
245463,92,-8178,-323,-1,6,0,0
245468,88,-8177,-316,-1,6,0,0
245473,83,-8175,-312,-1,6,0,0
245479,77,-8175,-308,-1,5,0,0
245484,69,-8173,-302,-1,5,0,0
245489,65,-8174,-295,-1,5,0,0
245494,56,-8176,-285,-1,5,0,0
245499,45,-8178,-277,-1,5,0,0
245503,31,-8178,-267,-1,5,0,0
245508,11,-8182,-261,-1,5,0,0
245513,-6,-8184,-250,-1,5,0,0
245519,-29,-8185,-239,-1,5,0,0
245524,-53,-8185,-233,-1,4,0,0
245530,-75,-8185,-232,-1,4,0,0
245535,-96,-8183,-224,-1,4,0,0
245541,-111,-8185,-214,-1,5,0,0
245546,-119,-8186,-203,-1,5,0,0
245551,-124,-8188,-190,-1,5,0,0
245557,-134,-8187,-169,-1,4,0,0
245562,-146,-8187,-147,-1,4,0,0
245567,-154,-8188,-120,-1,4,0,0
245572,-166,-8188,-90,-1,4,0,0
245577,-183,-8189,-62,-1,3,0,0
245582,-200,-8192,-30,-1,3,0,0
245588,-213,-8194,0,-1,3,0,0
245592,-223,-8193,29,-1,3,0,0
245597,-228,-8195,56,-1,2,0,0
245602,-228,-8196,84,-1,2,-1,0
245607,-218,-8198,108,-2,1,-1,0
245612,-210,-8200,128,-2,1,-1,0
245617,-207,-8201,148,-2,0,-1,0
245623,-206,-8202,166,-2,0,-1,0
245627,-207,-8199,189,-2,-1,-1,0
245632,-208,-8196,200,-2,-1,-1,0
245637,-208,-8196,209,-2,-1,-1,0
245643,-211,-8195,213,-2,-2,-1,0
245648,-217,-8195,210,-2,-2,-1,0
245652,-221,-8195,200,-3,-2,-1,0
245658,-219,-8195,185,-3,-2,-1,0
245663,-214,-8195,166,-3,-3,-1,0
245668,-207,-8197,145,-3,-3,-1,0
245673,-199,-8200,123,-3,-4,-1,0
245678,-188,-8196,96,-3,-4,-2,0
245683,-177,-8194,66,-3,-5,-2,0
245689,-163,-8192,36,-3,-5,-2,0
245694,-150,-8190,1,-3,-5,-2,0
245700,-132,-8188,-35,-3,-5,-2,0
245706,-115,-8188,-72,-3,-5,-2,0
245711,-101,-8186,-106,-3,-6,-2,0
245715,-86,-8185,-135,-3,-6,-2,0
245720,-69,-8183,-157,-3,-5,-2,0
245726,-53,-8181,-175,-3,-5,-2,0
245731,-36,-8180,-189,-3,-5,-2,0
245737,-21,-8178,-205,-3,-4,-2,0
245743,-6,-8177,-222,-3,-4,-2,0
245748,10,-8176,-235,-3,-4,-1,0
245753,27,-8174,-248,-3,-4,-1,0
245759,41,-8175,-261,-3,-4,-1,0
245763,54,-8176,-272,-3,-4,-1,0
245769,64,-8177,-279,-3,-3,-1,0
245774,76,-8177,-285,-3,-3,-1,0
245779,86,-8177,-290,-3,-3,-1,0
245784,92,-8179,-294,-3,-2,-1,0
245790,103,-8183,-297,-3,-2,-1,0
245795,111,-8185,-301,-3,-1,-1,0
245801,115,-8184,-311,-2,-1,-1,0
245806,117,-8185,-323,-2,-1,-1,0
245811,116,-8185,-335,-2,-1,-1,0
245816,119,-8184,-343,-2,0,-1,0
245820,122,-8183,-345,-2,0,-1,0
245824,127,-8184,-346,-2,0,-1,0
245828,130,-8185,-344,-2,1,-1,0
245832,134,-8184,-347,-2,1,-1,0
245838,140,-8184,-345,-2,2,-1,0
245843,147,-8183,-345,-2,2,-1,0
245848,148,-8184,-346,-2,3,-1,0
245852,144,-8184,-342,-2,4,0,0
245858,146,-8187,-331,-2,4,0,0
245862,143,-8188,-318,-2,4,0,0
245867,138,-8187,-294,-2,4,0,0
245872,135,-8188,-274,-2,4,0,0
245876,134,-8188,-254,-2,5,0,0
245880,130,-8189,-232,-2,5,0,0
245885,121,-8190,-213,-2,5,0,0
245890,114,-8191,-192,-2,5,0,0
245896,105,-8193,-176,-2,5,0,0
245901,95,-8194,-163,-2,4,0,0
245906,87,-8195,-148,-2,4,0,0
245911,73,-8194,-136,-2,3,0,0
245915,63,-8194,-121,-2,3,0,0
245921,55,-8192,-104,-2,3,0,0
245926,48,-8192,-95,-2,3,0,0
245930,44,-8193,-90,-2,2,0,0
245936,35,-8193,-89,-2,2,0,0
245941,24,-8193,-90,-2,2,0,0
245946,18,-8195,-90,-2,2,0,0
245950,11,-8194,-93,-3,2,0,0
245956,7,-8195,-93,-3,2,0,0
245961,7,-8193,-89,-3,2,0,0
245966,7,-8194,-87,-3,1,0,0
245971,11,-8192,-85,-3,1,0,0
245976,18,-8193,-90,-3,1,0,0
245981,28,-8193,-92,-3,0,0,0
245986,41,-8194,-98,-3,-1,0,0
245991,46,-8193,-102,-3,-1,0,0
245996,55,-8191,-106,-3,-1,0,0
246002,62,-8189,-116,-3,-2,0,0
246007,67,-8191,-127,-3,-2,0,0
246011,72,-8192,-133,-3,-3,0,0
246017,78,-8192,-145,-3,-3,0,0
246022,82,-8191,-161,-3,-4,0,0
246028,79,-8188,-168,-3,-4,0,0
246032,76,-8188,-179,-3,-4,0,0
246038,72,-8187,-185,-3,-4,0,0
246043,64,-8187,-192,-3,-4,0,0
246048,56,-8189,-192,-3,-4,0,0
246053,46,-8189,-194,-3,-5,0,0
246059,32,-8192,-199,-3,-5,0,0
246065,17,-8193,-207,-3,-6,0,0
246070,7,-8193,-221,-3,-6,0,0
246076,-1,-8192,-233,-3,-6,0,0
246081,-10,-8191,-238,-3,-6,0,0
246086,-20,-8192,-242,-3,-7,0,0
246092,-29,-8194,-246,-3,-7,0,0
246097,-35,-8195,-248,-3,-8,0,0
246102,-43,-8192,-244,-3,-8,0,0
246108,-49,-8192,-240,-3,-9,0,0
246112,-55,-8192,-241,-3,-9,0,0
246117,-61,-8189,-242,-3,-10,0,0
246121,-65,-8188,-242,-3,-10,0,0
246126,-68,-8188,-242,-3,-10,0,0
246130,-65,-8184,-241,-3,-9,0,0
246134,-63,-8186,-239,-2,-9,0,0
246139,-64,-8187,-236,-2,-9,0,0
246143,-67,-8185,-239,-2,-8,0,0
246147,-69,-8186,-247,-3,-6,0,0
246151,-69,-8184,-257,-2,-5,0,0
246156,-70,-8182,-267,-3,-4,0,0
246160,-68,-8184,-276,-3,-2,0,0
246164,-63,-8184,-282,-3,-1,0,0
246168,-56,-8182,-291,-3,-1,0,0
246172,-45,-8184,-295,-2,0,0,0
246176,-38,-8185,-296,-2,0,0,0
246180,-27,-8186,-295,-2,0,0,0
246184,-23,-8187,-290,-2,0,0,0
246189,-23,-8189,-283,-2,1,0,0
246193,-24,-8189,-277,-2,1,0,0
246198,-30,-8189,-269,-2,1,0,0
246203,-35,-8189,-260,-2,1,0,0
246208,-35,-8189,-253,-2,1,0,0
246213,-29,-8187,-247,-2,1,0,0
246218,-24,-8188,-239,-2,0,0,0
246223,-15,-8187,-229,-2,0,0,0
246228,-5,-8184,-220,-2,0,0,0
246233,0,-8187,-215,-2,0,0,0
246238,3,-8188,-214,-2,0,0,0
246243,5,-8191,-213,-2,1,0,0
246248,9,-8192,-216,-2,1,0,0
246252,12,-8191,-222,-2,0,0,0
246258,10,-8191,-225,-2,0,0,0
246263,10,-8192,-225,-2,-1,0,0
246268,12,-8192,-222,-3,-1,0,0
246273,10,-8193,-220,-3,-1,0,0
246278,10,-8191,-217,-3,-1,0,0
246283,6,-8189,-212,-3,-1,0,0
246288,-2,-8188,-204,-3,-1,0,0
246293,-16,-8188,-196,-3,-1,0,0
246299,-29,-8189,-188,-3,-1,0,0
246304,-41,-8190,-180,-3,-2,0,0
246309,-54,-8192,-172,-3,-2,0,0
246314,-68,-8193,-166,-3,-2,-1,0
246320,-81,-8189,-160,-3,-2,-1,0
246326,-93,-8186,-154,-3,-3,-1,0
246331,-100,-8188,-156,-3,-3,-1,0
246337,-106,-8190,-158,-3,-3,-1,0
246343,-109,-8190,-166,-3,-3,-1,0
246349,-110,-8189,-180,-3,-3,-1,0
246354,-110,-8190,-191,-3,-3,-1,0
246360,-110,-8189,-201,-3,-3,-1,0
246366,-114,-8189,-208,-3,-3,-1,0
246371,-115,-8186,-215,-3,-3,-1,0
246377,-115,-8184,-224,-3,-2,-1,0
246383,-116,-8183,-231,-3,-1,-1,0
246388,-117,-8183,-238,-3,-1,-1,0
246393,-118,-8183,-246,-3,0,-1,0
246399,-116,-8184,-252,-3,0,-1,0
246404,-111,-8184,-263,-3,0,-1,0
246410,-106,-8182,-267,-3,0,-1,0
246416,-100,-8183,-269,-3,0,-1,0
246421,-95,-8184,-269,-3,0,-1,0
246427,-88,-8186,-263,-3,-1,-1,0
246432,-81,-8189,-258,-3,-1,-1,0
246438,-74,-8188,-261,-3,-2,-1,0
246443,-76,-8188,-265,-3,-2,-1,0
246449,-73,-8190,-265,-3,-2,-1,0
246454,-76,-8192,-266,-3,-2,-1,0
246458,-73,-8193,-265,-3,-2,-1,0
246462,-67,-8192,-263,-3,-2,-1,0
246467,-62,-8193,-261,-3,-2,-1,0
246472,-53,-8193,-261,-3,-2,-1,0
246477,-44,-8190,-264,-3,-2,-1,0
246483,-32,-8187,-268,-3,-2,-1,0
246487,-21,-8187,-273,-3,-2,-1,0
246492,-9,-8187,-281,-3,-2,-1,0
246496,0,-8187,-292,-3,-2,-1,0
246501,5,-8186,-299,-3,-3,-1,0
246505,7,-8187,-310,-3,-3,-1,0
246509,6,-8187,-317,-3,-2,-1,0
246513,8,-8188,-322,-3,-2,-1,0
246518,8,-8190,-326,-3,-2,-1,0
246522,6,-8188,-330,-3,-1,-1,0
246526,5,-8190,-340,-3,-1,-1,0
246530,11,-8191,-349,-2,-1,-1,0
246535,18,-8189,-353,-2,-1,-1,0
246539,25,-8186,-359,-2,0,-1,0
246543,31,-8185,-361,-2,-1,-1,0
246547,35,-8186,-358,-2,-1,-1,0
246551,33,-8186,-353,-2,-1,-1,0
246555,33,-8183,-349,-2,-1,-1,0
246559,31,-8185,-342,-2,0,-1,0
246564,25,-8184,-332,-2,0,-1,0
246568,21,-8183,-330,-2,0,-1,0
246572,20,-8185,-328,-2,-1,-1,0
246577,18,-8185,-326,-2,-1,-1,0
246582,20,-8186,-323,-2,-1,-1,0
246587,25,-8184,-322,-2,-1,-1,0
246592,31,-8185,-319,-2,-1,-1,0
246597,38,-8184,-314,-2,0,-1,0
246602,41,-8182,-306,-2,0,-1,0
246607,39,-8180,-298,-2,0,-1,0
246612,37,-8180,-296,-2,0,-1,0
246617,37,-8183,-294,-2,0,-1,0
246622,37,-8184,-296,-2,1,-1,0
246627,35,-8185,-297,-2,1,-1,0
246632,33,-8186,-299,-2,1,-1,0
246637,34,-8186,-299,-2,1,-1,0
246642,35,-8187,-298,-2,2,-1,0
246647,39,-8186,-300,-2,1,-1,0
246652,42,-8183,-304,-2,1,-1,0
246657,43,-8182,-308,-2,0,-1,0
246662,44,-8179,-315,-2,-1,-1,0
246667,49,-8180,-315,-2,-1,-1,0
246672,46,-8182,-321,-2,-1,-1,0
246677,38,-8181,-314,-2,-1,-1,0
246682,37,-8180,-307,-2,-1,-1,0
246687,33,-8180,-302,-2,-1,-1,0
246692,28,-8179,-297,-2,-1,-1,0
246697,27,-8181,-302,-2,-1,-1,0
246702,23,-8183,-309,-2,-1,-1,0
246707,19,-8185,-312,-2,-1,-1,0
246712,19,-8186,-315,-2,-1,-1,0
246717,21,-8187,-313,-2,-1,-1,0
246722,20,-8185,-310,-2,-2,-1,0
246727,22,-8183,-313,-2,-2,-1,0
246732,22,-8181,-321,-2,-2,-1,0
246737,26,-8182,-322,-2,-2,-1,0
246742,25,-8182,-329,-2,-3,-1,0
246747,21,-8181,-336,-2,-3,-1,0
246752,14,-8183,-339,-2,-3,-1,0
246758,5,-8184,-346,-2,-3,-1,0
246763,-2,-8185,-348,-2,-3,-1,0
246769,-7,-8189,-346,-2,-3,-1,0
246774,-4,-8189,-348,-2,-3,-1,0
246779,-1,-8190,-350,-2,-3,-1,0
246785,-2,-8189,-356,-2,-3,-1,0
246791,5,-8187,-358,-2,-3,-1,0
246797,10,-8189,-354,-2,-3,-1,0
246802,18,-8190,-349,-2,-3,-1,0
246808,28,-8192,-336,-2,-3,-1,0
246812,37,-8190,-324,-2,-2,-1,0
246818,45,-8191,-311,-2,-2,-1,0
246824,55,-8190,-296,-2,-1,-1,0
246829,69,-8188,-284,-2,-1,-1,0
246834,83,-8184,-279,-2,0,-1,0
246839,94,-8185,-271,-2,0,-1,0
246844,108,-8185,-261,-2,0,-1,0
246850,114,-8188,-256,-2,0,-1,0
246854,119,-8192,-251,-2,0,-1,0
246860,128,-8191,-241,-2,1,-1,0
246865,133,-8188,-240,-2,1,-1,0
246871,134,-8185,-231,-2,1,-1,0
246876,141,-8183,-222,-2,1,-1,0
246882,150,-8185,-217,-2,2,-1,0
246887,162,-8185,-213,-2,2,-1,0
246892,176,-8187,-208,-2,1,-1,0
246897,189,-8185,-204,-2,1,-1,0
246903,200,-8183,-206,-2,1,-1,0
246908,211,-8183,-204,-2,1,-1,0
246913,220,-8184,-209,-2,0,-1,0
246918,222,-8184,-215,-2,-1,-1,0
246924,219,-8187,-217,-2,-1,-1,0
246929,213,-8184,-218,-2,-2,-1,0
246934,204,-8184,-219,-2,-2,-1,0
246940,194,-8183,-218,-2,-2,-1,0
246946,186,-8185,-211,-2,-2,-1,0
246952,177,-8186,-201,-2,-2,-1,0
246957,170,-8185,-190,-2,-3,-1,0
246963,164,-8186,-176,-2,-3,-1,0
246969,160,-8189,-165,-2,-3,-1,0
246973,157,-8188,-158,-2,-4,-1,0
246979,153,-8189,-156,-2,-4,-1,0
246985,148,-8191,-159,-2,-4,-1,0
246991,144,-8191,-166,-2,-5,-1,0
246996,142,-8193,-177,-2,-5,-1,0
247002,139,-8195,-184,-2,-6,-1,0
247008,135,-8196,-193,-2,-7,-1,0
247013,128,-8195,-203,-2,-7,-1,0
247019,122,-8198,-212,-2,-6,-1,0
247025,122,-8197,-214,-2,-5,-1,0
247031,124,-8195,-218,-2,-5,-1,0
247036,128,-8197,-223,-2,-5,-1,0
247042,131,-8194,-235,-2,-5,-1,0
247048,130,-8193,-243,-2,-6,-1,0
247053,126,-8190,-246,-3,-5,-1,0
247059,121,-8192,-247,-3,-5,-1,0
247065,112,-8192,-243,-3,-5,-1,0
247070,101,-8191,-240,-3,-5,-1,0
247075,92,-8190,-238,-3,-5,-1,0
247081,85,-8189,-235,-3,-5,0,0
247087,85,-8190,-232,-2,-5,-1,0
247092,87,-8189,-234,-3,-5,-1,0
247097,91,-8188,-228,-3,-5,-1,0
247103,100,-8190,-225,-3,-6,-1,0
247109,110,-8191,-221,-3,-7,-1,0
247114,117,-8191,-212,-3,-8,-1,0
247120,120,-8189,-205,-3,-9,-1,0
247125,118,-8189,-196,-3,-9,-1,0
247131,115,-8192,-191,-3,-9,-1,0
247137,114,-8191,-193,-3,-9,-1,0
247143,111,-8189,-202,-3,-9,-1,0
247149,114,-8190,-213,-3,-9,0,0
247153,118,-8193,-231,-3,-9,0,0
247159,127,-8193,-251,-3,-9,-1,0
247165,135,-8192,-266,-3,-10,0,0
247171,145,-8192,-283,-3,-10,0,0
247176,152,-8189,-293,-3,-10,0,0
247181,158,-8191,-301,-3,-10,0,0
247186,167,-8189,-305,-3,-9,0,0
247192,175,-8188,-308,-3,-9,0,0
247197,181,-8189,-313,-3,-9,0,0
247203,189,-8190,-320,-3,-8,0,0
247209,193,-8190,-327,-3,-8,0,0
247213,192,-8189,-333,-3,-8,0,0
247219,192,-8191,-337,-3,-8,0,0
247224,185,-8194,-341,-2,-8,0,0
247230,183,-8193,-348,-2,-8,0,0
247234,175,-8191,-360,-3,-8,0,0
247240,169,-8191,-371,-2,-8,0,0
247245,160,-8189,-379,-2,-8,0,0
247250,153,-8189,-385,-2,-8,0,0
247254,148,-8192,-393,-2,-8,0,0
247259,141,-8194,-401,-2,-7,0,0
247265,142,-8195,-406,-2,-6,0,0
247270,139,-8193,-409,-2,-6,0,0
247274,137,-8194,-407,-2,-5,0,0
247278,133,-8193,-408,-2,-5,0,0
247282,131,-8190,-410,-2,-4,0,0
247286,131,-8191,-407,-2,-4,0,0
247292,134,-8193,-407,-2,-3,0,0
247296,134,-8192,-401,-2,-3,0,0
247300,133,-8191,-399,-2,-2,0,0
247304,134,-8193,-397,-2,-2,0,0
247308,138,-8194,-387,-2,-2,0,0
247312,141,-8196,-383,-2,-2,0,0
247318,140,-8196,-375,-2,-2,0,0
247324,137,-8193,-369,-2,-2,0,0
247329,134,-8189,-365,-2,-2,0,0
247333,129,-8189,-353,-2,-2,0,0
247337,128,-8190,-347,-2,-2,0,0
247341,123,-8190,-334,-2,-2,0,0
247345,115,-8189,-319,-2,-2,0,0
247349,107,-8190,-307,-2,-2,0,0
247353,94,-8192,-296,-2,-2,0,0
247358,90,-8192,-281,-2,-2,0,0
247362,89,-8193,-279,-2,-2,0,0
247367,82,-8193,-274,-2,-2,0,0
247372,87,-8191,-271,-2,-2,0,0
247377,90,-8189,-280,-2,-2,0,0
247383,97,-8188,-286,-2,-2,0,0
247388,103,-8185,-301,-2,-2,0,0
247393,114,-8184,-317,-2,-2,0,0
247398,119,-8181,-332,-2,-2,0,0
247403,124,-8180,-350,-2,-2,0,0
247409,126,-8181,-358,-2,-2,0,0
247414,126,-8180,-370,-2,-2,1,0
247418,122,-8181,-379,-2,-1,1,0
247424,121,-8181,-392,-2,-1,1,0
247429,123,-8182,-399,-2,-1,1,0
247434,118,-8180,-403,-2,0,1,0
247439,116,-8178,-406,-2,0,1,0
247444,115,-8181,-408,-2,0,1,0
247449,109,-8182,-406,-2,0,1,0
247453,103,-8182,-403,-2,0,1,0
247459,92,-8183,-400,-2,0,1,0
247464,85,-8184,-398,-2,0,1,0
247468,76,-8185,-389,-1,0,1,0
247473,65,-8187,-382,-1,0,1,0
247478,48,-8185,-372,-1,0,1,0
247483,34,-8185,-362,-1,0,1,0
247488,21,-8183,-356,-1,0,1,0
247493,9,-8183,-348,-1,0,1,0
247498,0,-8182,-342,-1,0,1,0
247503,-8,-8183,-334,-1,0,1,0
247508,-13,-8184,-324,-1,0,1,0
247513,-12,-8187,-310,-1,0,1,0
247518,-16,-8188,-288,-1,-1,0,0
247522,-22,-8189,-269,-2,-1,0,0
247527,-26,-8189,-247,-2,-1,0,0
247532,-33,-8190,-228,-2,-1,0,0
247538,-44,-8193,-207,-2,-2,0,0
247543,-55,-8195,-188,-2,-2,0,0
247548,-67,-8196,-169,-2,-2,0,0
247553,-78,-8196,-150,-2,-2,0,0
247559,-82,-8196,-129,-2,-2,0,0
247565,-81,-8199,-106,-2,-3,0,0
247570,-81,-8199,-90,-2,-3,0,0
247574,-80,-8201,-76,-2,-3,0,0
247580,-80,-8200,-61,-2,-4,0,0
247586,-78,-8198,-50,-2,-4,0,0
247591,-72,-8198,-40,-2,-5,0,0
247596,-64,-8198,-35,-2,-5,0,0
247602,-57,-8199,-33,-2,-6,0,0
247608,-54,-8196,-32,-2,-7,0,0
247613,-49,-8195,-34,-3,-8,0,0
247618,-48,-8196,-39,-3,-9,0,0
247624,-50,-8194,-45,-3,-9,0,0
247629,-50,-8192,-58,-3,-9,0,0
247634,-50,-8190,-77,-3,-9,0,0
247640,-51,-8192,-104,-3,-9,0,0
247646,-47,-8191,-131,-3,-9,0,0
247651,-40,-8190,-163,-3,-10,0,0
247656,-30,-8189,-193,-3,-10,0,0
247662,-21,-8191,-224,-3,-9,0,0
247667,-10,-8191,-254,-3,-9,0,0
247672,5,-8192,-283,-3,-9,0,0
247678,18,-8192,-312,-3,-9,0,0
247683,28,-8192,-339,-2,-9,0,0
247688,35,-8193,-361,-2,-8,0,0
247693,45,-8190,-387,-2,-8,0,0
247698,52,-8189,-407,-2,-8,0,0
247703,57,-8188,-417,-2,-7,0,0
247707,63,-8186,-424,-2,-7,0,0
247711,70,-8185,-429,-2,-6,0,0
247715,74,-8183,-426,-2,-5,0,0
247719,76,-8181,-428,-2,-5,0,0
247723,76,-8179,-429,-2,-4,0,0
247727,77,-8180,-430,-2,-3,0,0
247731,81,-8179,-427,-2,-3,0,0
247735,83,-8178,-426,-2,-3,0,0
247740,83,-8181,-429,-2,-2,0,0
247744,82,-8182,-430,-2,-2,0,0
247748,80,-8184,-426,-2,-2,0,0
247752,78,-8185,-424,-2,-1,0,0
247756,74,-8184,-416,-2,-1,0,0
247760,70,-8180,-407,-2,-1,0,0
247764,67,-8181,-396,-2,0,0,0
247767,66,-8181,-385,-2,0,0,0
247771,62,-8178,-380,-2,1,0,0
247775,60,-8178,-377,-2,1,0,0
247779,56,-8179,-370,-2,1,0,0
247783,52,-8178,-361,-2,1,0,0
247787,50,-8179,-347,-2,1,0,0
247791,48,-8180,-336,-2,1,0,0
247795,45,-8179,-326,-2,1,0,0
247799,42,-8178,-319,-2,2,0,0
247803,38,-8183,-307,-2,2,0,0
247807,32,-8185,-300,-2,2,0,0
247811,27,-8186,-296,-2,2,0,0
247815,21,-8188,-293,-2,2,0,0
247819,14,-8189,-282,-2,2,0,0
247823,13,-8189,-273,-2,2,0,0
247827,15,-8188,-264,-2,2,0,0
247831,17,-8186,-251,-2,2,0,0
247835,17,-8185,-245,-2,2,0,0
247839,16,-8185,-242,-2,2,0,0
247843,13,-8187,-236,-2,1,0,0
247847,10,-8189,-230,-2,1,0,0
247851,6,-8189,-228,-2,1,0,0
247855,4,-8187,-232,-2,1,0,0
247859,-1,-8188,-229,-2,1,0,0
247863,-6,-8192,-227,-2,1,0,0
247867,-9,-8193,-223,-2,1,0,0
247871,-11,-8193,-220,-2,1,0,0
247876,-14,-8191,-215,-2,1,0,0
247881,-15,-8190,-211,-2,1,0,0
247886,-12,-8189,-210,-2,1,0,0
247891,-9,-8190,-213,-2,1,0,0
247896,-8,-8191,-211,-2,1,0,0
247901,-8,-8191,-211,-2,1,0,0
247906,-8,-8190,-214,-2,1,0,0
247911,-4,-8189,-219,-2,1,0,0
247916,2,-8187,-224,-2,0,0,0
247921,6,-8187,-228,-2,0,0,0
247926,7,-8188,-234,-2,-1,0,0
247931,7,-8186,-240,-2,-1,0,0
247936,7,-8186,-242,-2,-1,0,0
247941,4,-8187,-243,-2,-1,0,0
247947,3,-8188,-245,-2,-1,0,0
247952,1,-8190,-246,-2,-1,0,0
247957,2,-8190,-246,-2,-1,0,0
247963,-4,-8192,-250,-2,-1,0,0
247969,-2,-8194,-248,-2,-1,0,0
247974,-1,-8194,-249,-2,-1,0,0
247979,0,-8197,-247,-2,-1,0,0
247985,6,-8198,-255,-2,-1,0,0
247990,14,-8197,-261,-2,-1,0,0
247995,16,-8197,-265,-2,-1,0,0
248000,18,-8198,-270,-2,-1,0,0
248006,18,-8197,-273,-2,-1,0,0
248011,18,-8197,-280,-2,-1,0,0
248016,17,-8197,-283,-2,-1,0,0
248021,15,-8198,-285,-2,-1,0,0
248026,12,-8200,-285,-2,-1,0,0
248031,8,-8200,-290,-2,-1,0,0
248036,6,-8197,-289,-2,-1,0,0
248041,8,-8196,-289,-2,-1,0,0
248046,10,-8194,-291,-2,-1,0,0
248052,12,-8193,-294,-2,-1,0,0
248057,12,-8193,-296,-2,-1,0,0
248063,12,-8190,-296,-2,-1,0,0
248068,12,-8191,-294,-2,-1,0,0
248073,12,-8190,-296,-2,-1,0,0
248078,12,-8190,-293,-2,-1,0,0
248084,9,-8188,-295,-2,-1,0,0
248088,5,-8186,-293,-2,0,0,0
248093,3,-8185,-298,-2,0,0,0
248098,1,-8183,-301,-2,0,0,0
248103,-2,-8181,-303,-2,0,1,0
248108,-4,-8179,-300,-2,-1,0,0
248113,-10,-8180,-299,-2,-1,1,0
248119,-14,-8184,-300,-2,-1,1,0
248124,-20,-8183,-303,-2,-1,0,0
248129,-27,-8184,-306,-2,-1,0,0
248134,-33,-8185,-305,-2,-1,0,0
248139,-40,-8185,-307,-2,-1,0,0
248145,-49,-8185,-308,-2,-2,0,0
248150,-57,-8186,-305,-2,-2,0,0
248155,-62,-8187,-300,-2,-2,0,0
248160,-63,-8187,-295,-2,-2,0,0
248165,-65,-8187,-296,-2,-2,0,0
248171,-70,-8187,-299,-2,-3,0,0
248176,-77,-8188,-304,-1,-3,0,0
248181,-82,-8189,-311,-1,-2,0,0
248187,-87,-8193,-308,-2,-2,0,0
248192,-91,-8191,-312,-1,-2,0,0
248197,-95,-8190,-311,-1,-1,0,0
248203,-98,-8191,-315,-1,-1,0,0
248208,-100,-8191,-314,-1,0,0,0
248213,-98,-8193,-315,-1,0,0,0
248218,-99,-8192,-315,-1,0,0,0
248224,-99,-8190,-316,-1,1,0,0
248229,-96,-8186,-314,-1,1,0,0
248234,-93,-8182,-312,-1,1,0,0
248238,-92,-8181,-311,-1,2,0,0
248242,-95,-8182,-304,-1,2,0,0
248247,-96,-8186,-297,-1,3,0,0
248252,-97,-8184,-292,-1,3,0,0
248258,-97,-8184,-287,-1,3,0,0
248263,-98,-8185,-281,-1,3,0,0
248268,-102,-8186,-275,-1,3,0,0
248274,-103,-8183,-272,-1,4,0,0
248279,-102,-8181,-274,-1,4,0,0
248284,-97,-8180,-271,-1,4,0,0
248290,-98,-8181,-264,-1,3,0,0
248294,-100,-8182,-257,-1,3,0,0
248299,-101,-8185,-248,-1,3,0,0
248305,-102,-8184,-239,-1,4,0,0
248310,-106,-8182,-227,-1,4,0,0
248315,-110,-8180,-216,-1,4,0,0
248319,-115,-8183,-211,-1,4,0,0
248325,-117,-8184,-209,-1,4,0,0
248330,-114,-8186,-203,-1,4,0,0
248335,-110,-8186,-196,-1,3,0,0
248339,-105,-8185,-187,-1,3,0,0
248343,-97,-8184,-183,-1,3,0,0
248347,-92,-8183,-175,-2,3,0,0
248351,-86,-8185,-166,-2,3,0,0
248355,-84,-8190,-156,-2,2,0,0
248359,-85,-8190,-148,-2,2,0,0
248363,-84,-8191,-143,-2,2,0,0
248367,-85,-8193,-137,-2,2,0,0
248371,-90,-8194,-134,-2,2,0,0
248375,-91,-8193,-131,-2,1,0,0
248379,-87,-8192,-131,-2,1,0,0
248383,-85,-8193,-131,-2,1,0,0
248387,-82,-8194,-131,-2,0,0,0
248391,-81,-8193,-129,-2,0,0,0
248395,-81,-8193,-129,-2,0,0,0
248400,-89,-8193,-133,-2,0,0,0
248405,-93,-8193,-134,-2,1,0,0
248410,-89,-8193,-133,-2,0,0,0
248415,-95,-8191,-136,-2,0,0,0
248420,-94,-8193,-130,-2,-1,0,0
248425,-88,-8194,-131,-2,-1,0,0
248430,-86,-8195,-130,-2,-1,0,0
248435,-81,-8195,-133,-2,-1,0,0
248440,-75,-8193,-137,-2,-2,0,0
248445,-72,-8193,-137,-2,-2,0,0
248450,-68,-8190,-145,-2,-3,0,0
248455,-61,-8193,-149,-2,-3,0,0
248460,-53,-8192,-154,-2,-3,0,0
248465,-56,-8190,-162,-2,-3,0,0
248470,-56,-8188,-171,-2,-3,0,0
248475,-51,-8188,-177,-2,-3,0,0
248480,-50,-8191,-180,-2,-4,0,0
248485,-47,-8191,-184,-2,-4,0,0
248490,-44,-8190,-193,-2,-4,0,0
248495,-41,-8191,-205,-2,-3,0,0
248500,-35,-8192,-215,-2,-3,0,0
248505,-30,-8191,-221,-2,-3,0,0
248510,-26,-8190,-230,-2,-3,0,0
248515,-19,-8189,-243,-2,-3,0,0
248520,-15,-8188,-257,-2,-3,0,0
248525,-14,-8187,-266,-2,-3,0,0
248530,-14,-8187,-271,-2,-3,0,0
248535,-17,-8186,-276,-2,-3,0,0
248540,-20,-8182,-276,-2,-4,0,0
248546,-22,-8182,-277,-2,-4,0,0
248551,-23,-8182,-277,-2,-4,0,0
248556,-27,-8183,-278,-2,-4,0,0
248561,-30,-8185,-277,-2,-4,0,0
248567,-29,-8187,-274,-2,-4,0,0
248572,-32,-8187,-276,-2,-4,0,0
248577,-33,-8186,-276,-2,-4,0,0
248583,-33,-8186,-276,-2,-4,0,0
248587,-36,-8186,-277,-2,-4,0,0
248593,-35,-8185,-278,-2,-4,0,0
248599,-35,-8185,-280,-2,-4,0,0
248604,-37,-8183,-278,-2,-4,0,0
248609,-39,-8184,-273,-2,-4,0,0
248614,-39,-8184,-272,-2,-4,0,0
248620,-41,-8183,-266,-2,-4,0,0
248625,-44,-8181,-265,-2,-3,0,0
248630,-45,-8180,-266,-2,-3,0,0
248635,-45,-8179,-268,-2,-3,0,0
248641,-45,-8178,-268,-2,-2,0,0
248646,-47,-8180,-269,-2,-2,0,0
248652,-47,-8180,-270,-2,-2,0,0
248657,-43,-8181,-270,-2,-2,0,0
248663,-45,-8179,-270,-2,-2,0,0
248668,-47,-8179,-269,-2,-2,0,0
248673,-46,-8181,-265,-2,-2,0,0
248679,-46,-8182,-263,-2,-2,0,0
248685,-46,-8180,-259,-2,-2,0,0
248689,-45,-8180,-257,-2,-2,0,0
248693,-47,-8179,-251,-2,-2,0,0
248697,-49,-8179,-247,-2,-2,0,0
248702,-51,-8180,-244,-2,-2,0,0
248706,-51,-8180,-246,-2,-2,0,0
248710,-52,-8181,-245,-2,-2,0,0
248714,-54,-8181,-242,-2,-2,0,0
248718,-56,-8182,-235,-2,-2,0,0
248724,-61,-8181,-232,-2,-2,0,0
248729,-63,-8180,-230,-2,-2,0,0
248734,-64,-8182,-229,-2,-2,0,0
248739,-68,-8183,-227,-2,-2,0,0
248744,-76,-8183,-224,-2,-2,0,0
248749,-86,-8180,-229,-2,-1,0,0
248754,-98,-8177,-237,-2,-1,0,0
248760,-110,-8180,-240,-2,-2,0,0
248765,-123,-8182,-244,-2,-2,0,0
248770,-138,-8182,-249,-2,-2,0,0
248775,-153,-8181,-253,-2,-2,0,0
248780,-168,-8179,-254,-2,-2,0,0
248785,-181,-8180,-252,-2,-1,0,0
248791,-194,-8181,-251,-2,-2,0,0
248796,-206,-8181,-246,-2,-2,0,0
248801,-221,-8183,-245,-2,-2,0,0
248806,-238,-8184,-244,-2,-2,0,0
248812,-258,-8184,-245,-2,-2,0,0
248817,-278,-8183,-251,-2,-2,0,0
248822,-295,-8184,-255,-2,-3,0,0
248828,-313,-8183,-259,-2,-3,0,0
248833,-327,-8185,-263,-2,-2,0,0
248839,-335,-8185,-267,-2,-2,-1,0
248845,-337,-8185,-271,-2,-2,-1,0
248850,-331,-8183,-269,-2,-2,-1,0
248855,-329,-8181,-266,-2,-2,-1,0
248861,-325,-8179,-264,-2,-2,-1,0
248867,-323,-8177,-258,-2,-2,-1,0
248873,-321,-8178,-253,-2,-2,-1,0
248878,-321,-8177,-241,-2,-2,-1,0
248884,-317,-8177,-233,-2,-1,-1,0
248889,-311,-8178,-226,-2,-1,-1,0
248894,-303,-8179,-216,-2,0,-1,0
248900,-291,-8180,-205,-2,0,-1,0
248905,-278,-8178,-200,-2,0,-1,0
248910,-262,-8177,-195,-2,0,-1,0
248915,-247,-8175,-197,-2,1,-1,0
248920,-231,-8175,-196,-2,0,-1,0
248924,-217,-8175,-204,-2,0,-1,0
248928,-204,-8176,-210,-2,0,-1,0
248932,-195,-8180,-216,-2,0,-1,0
248937,-188,-8180,-224,-2,0,-1,0
248941,-178,-8180,-229,-2,0,-1,0
248945,-164,-8181,-236,-2,0,-1,0
248949,-151,-8179,-243,-1,0,-1,0
248954,-132,-8180,-254,-1,0,-1,0
248958,-106,-8180,-271,-1,1,-1,0
248962,-78,-8179,-282,-1,1,-1,0
248966,-57,-8175,-298,-1,1,-1,0
248970,-43,-8174,-319,-1,2,-1,0
248974,-21,-8177,-330,-1,3,-1,0
248979,-6,-8177,-354,-1,4,-1,0
248983,4,-8179,-360,-1,4,-1,0
248987,21,-8180,-361,-1,4,-1,0
248991,30,-8181,-367,-1,5,-1,0
248995,40,-8182,-364,-1,6,-1,0
249000,50,-8183,-363,-1,6,-1,0
249004,56,-8182,-355,-1,7,-1,0
249009,55,-8181,-351,-1,8,-1,0
249014,61,-8180,-343,-1,8,-1,0
249019,66,-8180,-331,-1,8,-1,0
249024,67,-8180,-319,-1,7,0,0
249029,62,-8181,-302,-1,6,0,0
249034,58,-8180,-287,-1,6,0,0
249039,50,-8180,-266,-1,6,0,0
249044,35,-8181,-252,-1,7,0,0
249049,22,-8183,-247,-1,7,0,0
249054,8,-8182,-247,-1,7,0,0
249059,-8,-8181,-247,-1,7,0,0
249064,-17,-8181,-245,-1,7,0,0
249069,-18,-8183,-246,-1,8,0,0
249074,-15,-8185,-233,-1,7,0,0
249079,-11,-8185,-226,-1,7,0,0
249084,-13,-8185,-210,-1,7,0,0
249089,-15,-8188,-195,-1,8,0,0
249094,-20,-8188,-186,-1,8,0,0
249099,-25,-8188,-179,-1,7,0,0
249104,-37,-8186,-173,-1,7,0,0
249109,-48,-8187,-166,-1,7,0,0
249114,-60,-8188,-155,-1,6,0,0
249119,-71,-8190,-138,-1,6,0,0
249124,-81,-8192,-120,-1,6,0,0
249129,-84,-8192,-98,-1,6,0,0
249134,-90,-8192,-75,-1,5,0,0
249139,-94,-8191,-56,-1,5,0,0
249144,-94,-8190,-40,-1,5,0,0
249149,-96,-8188,-31,-1,5,0,0
249155,-100,-8188,-22,-1,4,0,0
249160,-102,-8188,-13,-1,3,0,0
249166,-102,-8189,-7,-1,2,0,0
249171,-101,-8190,9,-2,1,0,0
249175,-103,-8188,19,-2,0,0,0
249181,-103,-8189,25,-2,0,-1,0
249186,-107,-8190,33,-2,-1,-1,0
249192,-107,-8190,36,-2,-1,-1,0
249198,-106,-8192,33,-2,-2,-1,0
249203,-105,-8194,24,-2,-2,-1,0
249209,-105,-8196,12,-2,-3,-1,0
249214,-103,-8196,-1,-2,-3,-1,0
249220,-101,-8194,-17,-2,-3,-1,0
249226,-97,-8192,-32,-2,-4,-1,0
249232,-90,-8192,-51,-2,-4,-1,0
249237,-80,-8191,-70,-2,-4,-1,0
249243,-70,-8194,-88,-2,-4,-1,0
249249,-62,-8192,-106,-2,-4,-1,0
249254,-57,-8191,-120,-2,-4,-1,0
249260,-51,-8193,-136,-2,-4,-1,0
249266,-43,-8192,-147,-2,-3,-1,0
249271,-36,-8190,-153,-2,-3,-1,0
249277,-34,-8188,-163,-2,-3,-1,0
249282,-29,-8184,-168,-2,-3,-1,0
249288,-24,-8182,-173,-2,-3,0,0
249294,-17,-8179,-174,-2,-3,0,0
249299,-11,-8177,-173,-2,-4,0,0
249305,-10,-8177,-170,-2,-4,0,0
249311,-9,-8177,-168,-2,-4,0,0
249316,-8,-8177,-169,-2,-4,0,0
249321,-5,-8176,-173,-2,-4,0,0
249326,-8,-8178,-174,-2,-4,0,0
249331,-8,-8181,-180,-2,-4,0,0
249336,-7,-8182,-188,-2,-3,0,0
249341,-8,-8185,-191,-2,-2,0,0
249346,-6,-8184,-192,-2,-2,0,0
249351,2,-8184,-202,-2,-2,0,0
249356,10,-8184,-212,-2,-2,0,0
249361,17,-8184,-220,-2,-2,0,0
249367,19,-8187,-229,-2,-2,0,0
249372,24,-8186,-233,-2,-2,0,0
249376,27,-8186,-238,-2,-2,0,0
249382,26,-8187,-247,-2,-2,0,0
249387,19,-8186,-254,-2,-2,0,0
249391,12,-8186,-256,-2,-1,0,0
249396,5,-8187,-257,-2,-1,0,0
249401,-7,-8186,-261,-2,-1,0,0
249406,-23,-8188,-259,-2,-1,0,0
249412,-32,-8185,-256,-2,0,0,0
249416,-39,-8187,-251,-2,0,0,0
249422,-45,-8185,-242,-2,0,0,0
249427,-55,-8184,-234,-2,0,0,0
249433,-68,-8182,-227,-2,0,0,0
249437,-85,-8179,-220,-2,0,0,0
249442,-105,-8179,-207,-1,0,0,0
249448,-128,-8183,-197,-1,1,0,0
249453,-147,-8182,-191,-1,1,0,0
249457,-162,-8181,-187,-1,1,0,0
249462,-178,-8182,-183,-1,1,0,0
249467,-192,-8184,-179,-2,1,0,0
249473,-203,-8185,-174,-2,2,0,0
249477,-210,-8185,-166,-2,2,0,0
249482,-214,-8187,-157,-2,1,0,0
249488,-219,-8187,-148,-2,1,0,0
249493,-227,-8189,-137,-2,0,0,0
249497,-238,-8191,-130,-2,0,0,0
249503,-251,-8190,-124,-2,0,-1,0
249508,-268,-8191,-114,-2,-1,-1,0
249513,-283,-8194,-103,-2,-1,-1,0
249518,-293,-8195,-91,-2,-1,-1,0
249523,-301,-8195,-77,-2,-1,-1,0
249527,-311,-8195,-70,-2,-1,-1,0
249531,-313,-8194,-61,-2,0,-1,0
249535,-309,-8193,-60,-2,0,-1,0
249540,-306,-8190,-56,-2,1,-1,0
249544,-298,-8192,-55,-2,1,-1,0
249548,-288,-8192,-52,-2,2,-1,0
249552,-273,-8192,-55,-2,1,-1,0
249556,-258,-8190,-64,-2,1,-1,0
249560,-247,-8188,-71,-2,1,-1,0
249565,-232,-8188,-77,-2,2,-1,0
249569,-217,-8190,-83,-2,2,-1,0
249573,-204,-8189,-94,-2,2,-1,0
249577,-195,-8190,-104,-2,2,-1,0
249581,-188,-8191,-112,-2,3,-1,0
249585,-178,-8192,-119,-2,3,-1,0
249590,-167,-8189,-125,-2,3,-1,0
249594,-154,-8188,-130,-2,3,-1,0
249598,-147,-8186,-136,-2,3,-1,0
249602,-137,-8183,-141,-2,3,-1,0
249606,-124,-8182,-141,-2,3,-1,0
249610,-112,-8182,-141,-2,3,-1,0
249615,-103,-8183,-147,-2,3,-1,0
249619,-101,-8183,-147,-2,3,-1,0
249624,-91,-8189,-141,-2,3,-1,0
249629,-86,-8190,-141,-2,3,-1,0
249634,-80,-8187,-138,-2,3,-1,0
249639,-64,-8186,-130,-2,3,-1,0
249644,-52,-8184,-122,-2,3,-1,0
249649,-43,-8187,-113,-2,3,-1,0
249654,-38,-8186,-108,-2,3,-1,0
249659,-33,-8189,-98,-2,2,-1,0
249664,-33,-8191,-90,-2,2,-1,0
249669,-33,-8191,-78,-2,2,-1,0
249674,-33,-8190,-69,-2,1,-1,0
249679,-33,-8188,-66,-2,1,-1,0
249684,-31,-8186,-60,-2,1,-1,0
249689,-26,-8186,-57,-2,1,-1,0
249695,-26,-8184,-52,-2,1,-1,0
249700,-20,-8188,-46,-2,1,-1,0
249705,-13,-8187,-45,-2,1,-1,0
249710,-12,-8185,-41,-2,0,-1,0
249716,-13,-8186,-41,-2,0,-1,0
249721,-16,-8186,-42,-2,0,-1,0
249726,-21,-8188,-38,-2,0,-1,0
249732,-25,-8186,-33,-3,-1,-1,0
249737,-28,-8184,-33,-3,-1,-1,0
249742,-27,-8185,-32,-3,-1,-1,0
249748,-28,-8187,-32,-3,-1,-1,0
249753,-24,-8189,-34,-3,-2,-1,0
249758,-21,-8190,-34,-3,-2,-1,0
249764,-18,-8187,-36,-3,-2,-1,0
249770,-13,-8185,-41,-3,-3,-1,0
249775,-12,-8183,-46,-3,-3,-1,0
249781,-12,-8182,-47,-3,-3,-1,0
249787,-11,-8180,-49,-3,-3,-1,0
249793,-9,-8180,-52,-3,-3,-1,0
249798,-5,-8180,-63,-3,-4,-1,0
249804,-1,-8183,-74,-3,-4,-1,0
249809,2,-8184,-81,-3,-4,-1,0
249814,9,-8183,-87,-3,-5,-1,0
249819,12,-8183,-92,-3,-5,-1,0
249825,13,-8184,-104,-3,-5,-1,0
249830,12,-8186,-115,-3,-5,-1,0
249835,11,-8187,-124,-3,-5,-1,0
249841,8,-8184,-135,-3,-5,-1,0
249847,6,-8185,-146,-3,-5,-1,0
249852,4,-8184,-158,-3,-5,-1,0
249856,2,-8185,-169,-3,-5,-1,0
249860,2,-8185,-173,-3,-5,-1,0
249865,3,-8184,-182,-3,-5,-1,0
249870,6,-8186,-183,-3,-6,-1,0
249876,7,-8185,-188,-3,-6,-1,0
249881,7,-8187,-195,-3,-6,-1,0
249887,5,-8186,-201,-3,-6,-1,0
249891,-1,-8187,-206,-3,-6,-1,0
249897,-6,-8192,-213,-3,-6,-1,0
249903,-15,-8191,-217,-3,-6,-1,0
249908,-23,-8192,-216,-3,-6,-1,0
249914,-32,-8192,-212,-3,-6,-1,0
249920,-40,-8192,-214,-3,-5,-1,0
249926,-46,-8189,-213,-3,-5,-1,0
249932,-48,-8184,-211,-3,-5,-1,0
249937,-45,-8184,-211,-3,-5,-1,0
249943,-43,-8185,-217,-3,-5,-1,0
249948,-41,-8187,-226,-3,-5,-1,0
249954,-38,-8186,-235,-3,-5,-1,0
249959,-38,-8184,-243,-3,-5,-1,0
249965,-42,-8186,-252,-3,-5,-1,0
249971,-43,-8185,-260,-3,-5,-1,0
249976,-49,-8184,-271,-3,-5,-1,0
249982,-54,-8183,-276,-3,-4,-1,0
249987,-56,-8182,-279,-3,-4,-1,0
249993,-61,-8185,-280,-3,-3,-1,0
249998,-63,-8186,-283,-3,-3,-1,0
250004,-65,-8187,-284,-3,-3,-1,0
250010,-66,-8186,-284,-3,-2,-1,0
250015,-64,-8185,-282,-3,-2,-1,0
250021,-66,-8184,-277,-2,-2,-1,0
250027,-65,-8184,-268,-2,-2,-1,0
250032,-64,-8184,-261,-2,-2,-1,0
250037,-67,-8186,-254,-2,-2,-1,0
250043,-70,-8185,-253,-2,-2,-1,0
250048,-75,-8184,-246,-2,-1,-1,0
250054,-77,-8183,-242,-2,-1,-1,0
250059,-78,-8186,-237,-2,-1,-1,0
250065,-81,-8185,-238,-2,-1,-1,0
250071,-78,-8184,-242,-2,-1,-1,0
250076,-71,-8185,-241,-2,-1,-1,0
250082,-63,-8185,-242,-2,-1,-1,0
250088,-56,-8186,-237,-2,-1,-1,0
250093,-53,-8187,-232,-2,-1,-1,0
250097,-48,-8186,-222,-2,-1,-1,0
250103,-48,-8188,-215,-2,-1,-1,0
250108,-51,-8189,-202,-2,-1,-2,0
250114,-56,-8190,-193,-2,-1,-2,0
250120,-66,-8189,-189,-2,-1,-1,0
250126,-70,-8186,-183,-2,-1,-2,0
250132,-69,-8186,-171,-2,-1,-2,0
250136,-71,-8186,-163,-2,-1,-2,0
250141,-71,-8183,-156,-2,-1,-2,0
250145,-62,-8183,-150,-2,-1,-2,0
250149,-54,-8183,-146,-2,-1,-2,0
250154,-48,-8184,-146,-2,-1,-2,0
250158,-38,-8186,-146,-2,-2,-2,0
250163,-32,-8185,-145,-2,-2,-2,0
250167,-25,-8183,-147,-2,-2,-2,0
250172,-17,-8184,-149,-2,-2,-2,0
250176,-10,-8185,-154,-3,-2,-2,0
250180,-7,-8185,-154,-3,-2,-2,0
250185,-2,-8183,-154,-3,-2,-2,0
250189,4,-8183,-155,-3,-3,-2,0
250193,9,-8184,-157,-3,-3,-2,0
250197,17,-8186,-161,-3,-3,-2,0
250201,23,-8184,-167,-3,-3,-2,0
250206,28,-8182,-174,-3,-3,-2,0
250210,36,-8183,-184,-3,-4,-2,0
250214,44,-8185,-190,-2,-4,-2,0
250218,48,-8186,-203,-2,-5,-2,0
250222,52,-8185,-215,-2,-5,-2,0
250226,54,-8186,-225,-2,-6,-2,0
250231,59,-8187,-240,-2,-6,-2,0
250235,64,-8188,-248,-2,-6,-2,0
250239,64,-8187,-260,-2,-6,-2,0
250243,65,-8186,-273,-2,-7,-2,0
250247,66,-8187,-275,-2,-7,-2,0
250251,69,-8186,-283,-2,-6,-2,0
250256,74,-8184,-289,-2,-6,-2,0
250260,76,-8183,-292,-2,-7,-2,0
250264,71,-8184,-294,-2,-7,-2,0
250268,67,-8188,-296,-2,-7,-2,0
250272,65,-8187,-298,-2,-6,-2,0
250277,59,-8186,-299,-2,-6,-2,0
250281,61,-8184,-297,-2,-6,-1,0
250285,60,-8181,-297,-2,-6,-2,0
250289,59,-8182,-296,-2,-6,-2,0
250293,57,-8183,-293,-2,-5,-2,0
250297,57,-8185,-287,-2,-5,-1,0
250302,57,-8187,-278,-2,-4,-1,0
250306,61,-8188,-271,-2,-4,-1,0
250310,64,-8187,-264,-2,-3,-1,0
250314,67,-8185,-261,-2,-3,-1,0
250318,74,-8180,-257,-2,-3,-1,0
250322,81,-8177,-257,-2,-2,-1,0
250327,91,-8175,-259,-2,-2,-1,0
250331,99,-8177,-260,-2,-2,-1,0
250335,106,-8180,-260,-2,-2,-1,0
250339,112,-8182,-257,-2,-2,-1,0
250343,115,-8183,-248,-2,-1,-1,0
250348,118,-8182,-242,-2,-1,-1,0
250353,118,-8184,-235,-2,-1,-1,0
250358,117,-8185,-233,-2,-1,-1,0
250363,115,-8185,-233,-2,-1,-1,0
250368,113,-8186,-230,-2,-1,-1,0
250373,111,-8187,-231,-2,-1,-1,0
250378,113,-8188,-231,-2,-1,-1,0
250384,115,-8190,-231,-2,-1,-1,0
250389,117,-8189,-225,-2,-1,-1,0
250395,117,-8184,-219,-2,-1,-1,0
250401,117,-8186,-217,-2,-1,-1,0
250406,119,-8187,-217,-2,-1,-1,0
250412,121,-8187,-219,-2,-1,-1,0
250417,120,-8188,-218,-2,-1,-1,0
250422,120,-8188,-214,-2,-1,-1,0
250428,117,-8188,-216,-2,-1,-1,0
250434,116,-8190,-211,-2,0,-1,0
250438,117,-8191,-208,-2,0,-1,0
250443,121,-8189,-199,-2,0,-1,0
250448,125,-8186,-192,-2,-1,-1,0
250454,128,-8187,-186,-2,-1,-1,0
250459,131,-8186,-185,-2,-1,-1,0
250465,136,-8187,-179,-2,-1,-1,0
250470,137,-8190,-170,-2,-1,-1,0
250475,134,-8193,-167,-2,-2,-1,0
250481,133,-8192,-167,-2,-2,-1,0
250486,129,-8190,-171,-2,-2,-1,0
250491,122,-8192,-173,-2,-2,-1,0
250496,114,-8191,-172,-2,-2,-1,0
250502,104,-8191,-175,-2,-2,-1,0
250508,98,-8191,-179,-2,-3,-1,0
250513,91,-8192,-176,-2,-3,-1,0
250518,83,-8194,-170,-2,-3,-1,0
250522,80,-8192,-161,-2,-3,-1,0
250527,78,-8192,-148,-2,-3,-1,0
250531,78,-8192,-141,-2,-3,-1,0
250536,81,-8193,-133,-2,-3,-1,0
250542,82,-8192,-123,-2,-4,-1,0
250547,88,-8189,-124,-2,-4,-1,0
250552,94,-8187,-129,-2,-4,-1,0
250557,102,-8189,-136,-2,-5,-1,0
250563,109,-8188,-144,-2,-5,-1,0
250569,114,-8190,-146,-2,-5,-1,0
250574,116,-8190,-147,-2,-6,-1,0
250580,123,-8189,-155,-2,-6,-1,0
250586,131,-8190,-159,-2,-5,-1,0
250591,139,-8193,-161,-2,-5,-1,0
250596,148,-8194,-164,-2,-5,-1,0
250601,160,-8195,-166,-2,-5,-1,0
250607,170,-8197,-169,-2,-6,-1,0
250613,178,-8196,-171,-2,-6,-1,0
250617,179,-8194,-177,-2,-6,-1,0
250623,182,-8189,-179,-2,-6,-1,0
250629,182,-8186,-180,-2,-6,-1,0
250634,183,-8186,-181,-2,-6,-1,0
250639,180,-8186,-182,-2,-6,-1,0
250645,176,-8186,-183,-2,-6,-1,0
250650,176,-8182,-186,-2,-6,0,0
250654,179,-8183,-191,-2,-7,0,0
250658,183,-8183,-198,-2,-7,0,0
250663,183,-8183,-210,-2,-8,0,0
250667,183,-8184,-215,-2,-8,0,0
250671,186,-8185,-216,-2,-8,0,0
250675,185,-8183,-220,-2,-8,0,0
250679,182,-8182,-224,-2,-8,0,0
250683,183,-8183,-233,-2,-8,0,0
250687,180,-8180,-241,-2,-8,0,0
250691,178,-8181,-244,-2,-8,0,0
250695,174,-8183,-254,-2,-8,0,0
250699,171,-8185,-262,-2,-8,0,0
250703,169,-8183,-266,-2,-7,0,0
250707,172,-8184,-270,-2,-7,0,0
250711,177,-8186,-280,-2,-7,0,0
250715,177,-8186,-282,-2,-8,0,0
250719,167,-8185,-285,-2,-7,0,0
250723,155,-8183,-289,-2,-6,0,0
250728,145,-8184,-287,-2,-6,0,0
250733,132,-8187,-286,-2,-5,0,0
250738,123,-8187,-286,-2,-4,0,0
250743,116,-8188,-284,-2,-4,0,0
250747,113,-8190,-281,-2,-4,0,0
250753,115,-8192,-273,-2,-4,0,0
250758,115,-8191,-264,-2,-5,0,0
250763,113,-8193,-254,-2,-5,0,0
250767,110,-8194,-246,-2,-5,0,0
250773,105,-8194,-238,-2,-5,0,0
250777,102,-8193,-229,-2,-5,0,0
250783,101,-8191,-224,-2,-4,0,0
250788,99,-8190,-217,-2,-4,0,0
250794,101,-8190,-224,-2,-4,0,0
250799,102,-8189,-229,-2,-4,0,0
250804,103,-8188,-231,-2,-4,0,0
250809,105,-8188,-228,-2,-4,0,0
250815,108,-8189,-226,-2,-3,0,0
250819,109,-8188,-220,-2,-3,0,0
250824,109,-8187,-216,-2,-3,0,0
250830,107,-8187,-214,-2,-3,0,0
250835,106,-8189,-210,-2,-2,0,0
250841,105,-8188,-211,-2,-2,0,0
250846,98,-8189,-213,-2,-3,0,0
250852,92,-8187,-212,-2,-3,0,0
250857,85,-8189,-206,-2,-3,0,0
250862,83,-8189,-203,-2,-3,0,0
250868,83,-8189,-195,-2,-2,0,0
250873,82,-8188,-183,-2,-2,0,4
250877,83,-8191,-177,-2,-2,0,4
250882,82,-8192,-178,-2,-2,0,4
250888,79,-8195,-176,-2,-1,0,4
250893,75,-8196,-178,-2,-1,0,4
250898,74,-8195,-178,-2,-1,0,4
250903,78,-8195,-181,-2,-1,0,4
250908,78,-8195,-180,-2,-1,0,4
250913,77,-8193,-181,-2,-1,0,4
250918,80,-8192,-183,-2,0,0,4
250923,83,-8195,-181,-2,0,0,4
250928,85,-8194,-180,-2,0,0,4
250933,87,-8194,-180,-2,0,0,4
250937,87,-8194,-181,-2,0,0,4
250943,84,-8194,-185,-2,-1,0,4
250948,84,-8195,-184,-2,-1,0,4
250953,90,-8192,-187,-2,-1,0,4
250958,89,-8193,-189,-2,-2,0,4
250963,90,-8192,-192,-2,-2,0,4
250969,92,-8192,-194,-2,-2,0,4
250974,91,-8192,-196,-2,-2,0,4
250979,86,-8192,-195,-2,-2,0,4
250984,84,-8192,-191,-2,-2,0,4
250990,81,-8194,-190,-2,-2,0,4
250995,79,-8195,-187,-2,-2,0,4
251000,78,-8198,-185,-2,-2,0,4
251005,78,-8199,-192,-2,-2,0,4
251011,81,-8199,-196,-2,-2,0,4
251016,84,-8198,-201,-2,-2,0,4
251021,92,-8199,-206,-2,-2,0,4
251027,101,-8201,-210,-2,-2,0,4
251032,107,-8200,-208,-2,-2,0,4
251037,113,-8197,-212,-2,-2,0,4
251043,110,-8195,-216,-2,-2,0,4
251049,103,-8196,-221,-2,-2,0,4
251054,94,-8196,-233,-2,-2,0,4
251059,86,-8195,-252,-2,-2,0,4
251064,78,-8194,-264,-2,-2,0,4
251070,73,-8190,-274,-2,-1,0,4
251075,66,-8189,-284,-2,-1,0,4
251081,64,-8190,-289,-2,-1,0,4
251087,65,-8190,-290,-2,-1,0,4
251092,64,-8189,-287,-2,-1,0,4
251097,65,-8189,-285,-2,-1,0,4
251103,67,-8189,-285,-2,-1,0,4
251109,65,-8190,-281,-2,-1,0,4
251114,60,-8192,-277,-2,-2,0,4
251119,51,-8191,-275,-2,-2,0,4
251124,42,-8190,-273,-2,-1,0,4
251129,33,-8188,-261,-2,-1,0,4
251135,23,-8190,-254,-2,-1,0,4
251141,14,-8190,-248,-2,-1,0,4
251147,-2,-8190,-240,-2,-1,0,4
251153,-24,-8190,-239,-2,0,0,4
251158,-38,-8189,-234,-2,1,0,4
251163,-34,-8190,-239,-2,2,0,4
251169,-32,-8189,-239,-2,2,0,4
251174,-31,-8186,-228,-2,1,0,4
251179,-29,-8187,-229,-2,0,0,4
251184,-34,-8188,-215,-2,1,0,4
251190,-50,-8189,-206,-2,1,0,4
251195,-65,-8193,-194,-2,1,0,4
251200,-67,-8194,-163,-2,1,0,4
251206,-80,-8192,-150,-2,0,0,4
251211,-93,-8194,-126,-2,0,0,4
251217,-90,-8194,-104,-2,0,0,4
251222,-85,-8191,-90,-2,0,0,4
251228,-82,-8194,-73,-2,0,0,4
251233,-69,-8194,-66,-2,0,0,4
251238,-58,-8195,-57,-2,-1,0,4
251244,-57,-8196,-54,-2,-1,0,4
251250,-57,-8198,-59,-2,-2,-1,4
251255,-61,-8197,-63,-2,-2,-1,4
251262,-68,-8197,-73,-2,-2,-1,4
251268,-70,-8198,-74,-2,-2,-1,4
251274,-70,-8200,-78,-2,-2,-1,4
251279,-67,-8197,-85,-2,-2,-1,4
251285,-60,-8197,-87,-2,-2,-1,4
251291,-48,-8196,-90,-2,-2,-1,4
251297,-39,-8196,-94,-2,-2,-1,4
251303,-31,-8195,-95,-2,-2,-1,4
251309,-26,-8197,-95,-2,-3,-1,4
251314,-24,-8196,-96,-3,-3,-1,4
251320,-23,-8192,-101,-2,-3,-1,4
251326,-26,-8195,-112,-2,-3,-1,4
251332,-28,-8194,-120,-3,-3,-1,4
251337,-22,-8193,-130,-3,-3,-1,4
251344,-16,-8192,-141,-3,-4,-1,4
251350,-4,-8191,-146,-2,-4,-1,4
251355,13,-8193,-161,-2,-4,-1,4
251359,29,-8194,-177,-2,-4,-1,4
251363,41,-8193,-196,-2,-4,-1,4
251367,55,-8192,-216,-2,-4,-1,4
251372,65,-8186,-233,-2,-4,-1,4
251376,70,-8185,-252,-2,-4,-1,4
251380,75,-8186,-269,-2,-4,-1,4
251384,75,-8184,-280,-2,-4,-1,4
251389,74,-8183,-294,-2,-3,-1,4
251393,73,-8181,-308,-2,-3,-1,4
251397,77,-8180,-316,-2,-2,-1,4
251401,78,-8179,-323,-2,-2,-1,4
251406,80,-8179,-332,-2,-2,-1,4
251410,82,-8180,-337,-2,-1,-1,4
251414,81,-8180,-339,-2,-1,-1,4
251418,83,-8180,-338,-2,-1,-1,4
251423,83,-8180,-333,-2,-1,-1,4
251427,85,-8182,-329,-2,-1,-1,4
251431,85,-8184,-321,-2,-1,-1,4
251435,86,-8190,-309,-2,-1,0,4
251439,86,-8193,-300,-2,-1,0,4
251444,88,-8193,-293,-2,0,0,4
251447,92,-8192,-283,-2,0,0,4
251451,92,-8194,-275,-2,0,0,4
251455,92,-8194,-264,-2,0,0,4
251459,88,-8193,-255,-2,0,0,4
251463,78,-8194,-244,-2,1,0,4
251467,70,-8192,-231,-2,1,0,4
251471,58,-8193,-217,-2,2,0,4
251475,46,-8193,-209,-2,2,0,4
251479,37,-8193,-196,-2,3,0,4
251483,20,-8195,-184,-2,4,0,4
251487,1,-8194,-169,-2,5,0,4
251491,-29,-8195,-155,-2,7,0,4
251496,-92,-8196,-139,-2,9,-1,4
251500,-173,-8197,-124,-2,13,-1,4
251504,-243,-8198,-102,-3,19,-1,4
251508,-310,-8199,-84,-3,25,0,4
251512,-372,-8198,-71,-3,30,0,4
251516,-420,-8201,-51,-3,36,0,4
251520,-465,-8205,-36,-3,43,0,4
251524,-517,-8208,-28,-3,53,-1,4
251528,-575,-8207,-3,-3,64,-1,4
251532,-657,-8205,9,-4,76,-1,4
251536,-813,-8205,5,-4,93,-1,4
251540,-1027,-8212,-11,-4,118,-1,4
251545,-1212,-8221,-33,-4,147,-1,4
251549,-1392,-8218,-113,-4,175,-1,4
251553,-1557,-8213,-197,-4,202,0,4
251557,-1633,-8218,-257,-5,226,0,4
251562,-1687,-8215,-357,-5,253,1,4
251567,-1734,-8216,-383,-6,285,1,4
251572,-1726,-8215,-351,-6,322,1,4
251577,-1667,-8212,-275,-6,362,1,4
251582,-1614,-8207,-130,-6,403,2,4
251587,-1615,-8205,37,-7,443,3,4
251592,-1677,-8204,171,-7,483,3,4
251597,-1785,-8205,282,-7,524,3,4
251602,-2010,-8211,401,-7,567,4,4
251607,-2484,-8225,598,-8,617,4,4
251612,-3006,-8232,740,-10,675,3,4
251616,-3651,-8236,972,-10,745,4,4
251622,-4424,-8242,1203,-11,826,5,4
251627,-5154,-8241,1406,-11,918,6,4
251632,-5747,-8234,1586,-10,1016,8,4
251637,-5962,-8243,1802,-10,1110,11,4
251642,-5734,-8246,2327,-12,1189,15,4
251647,-4909,-8274,3025,-15,1231,18,4
251652,-3575,-8287,3978,-19,1214,21,4
251657,-2105,-8257,5354,-22,1120,23,4
251661,-550,-8192,6929,-22,988,25,4
251666,447,-8101,8171,-20,880,27,4
251672,1198,-8093,8656,-17,801,24,4
251677,1833,-8174,7972,-17,737,19,4
251682,2245,-8260,6802,-19,671,15,4
251687,2308,-8333,5760,-21,612,13,4
251692,2151,-8353,5211,-21,571,12,4
251697,1873,-8353,4904,-18,549,11,4
251702,1556,-8357,4550,-13,538,10,4
251707,1457,-8363,3920,-10,518,9,4
251712,1505,-8323,3464,-8,484,8,4
251717,1661,-8282,2957,-7,432,8,4
251722,1861,-8258,2292,-7,370,8,4
251727,2013,-8233,1868,-6,307,8,4
251732,2199,-8219,1416,-6,250,7,4
251737,2395,-8210,1203,-6,201,5,4
251742,2592,-8202,1102,-5,155,4,4
251746,2737,-8195,973,-4,110,3,4
251752,2817,-8182,1013,-2,63,2,4
251756,2820,-8170,941,-1,14,1,4
251761,2707,-8164,890,0,-32,0,4
251766,2544,-8164,804,1,-76,-1,4
251771,2352,-8171,648,1,-118,-2,4
251777,2099,-8177,610,1,-154,-3,4
251781,1842,-8181,540,1,-184,-3,4
251787,1590,-8187,571,1,-204,-4,4
251792,1354,-8192,627,1,-215,-4,4
251797,1158,-8195,639,1,-218,-5,4
251802,998,-8195,652,1,-216,-5,4
251807,856,-8197,543,1,-209,-5,4
251812,740,-8197,399,1,-199,-5,4
251817,649,-8195,211,1,-188,-5,4
251822,557,-8194,13,0,-176,-4,4
251827,480,-8190,-121,-1,-165,-4,4
251831,412,-8190,-224,-1,-154,-4,4
251836,358,-8188,-251,-1,-142,-4,4
251841,338,-8188,-265,-1,-133,-3,4
251846,346,-8191,-269,-1,-128,-3,4
251851,373,-8187,-258,-1,-127,-3,4
251856,429,-8188,-277,-1,-131,-3,4
251861,495,-8187,-281,-1,-137,-4,4
251866,568,-8190,-287,-1,-146,-4,4
251871,651,-8189,-270,-1,-158,-4,4
251876,732,-8187,-231,-1,-170,-4,4
251881,814,-8187,-195,-1,-184,-4,4
251886,920,-8187,-129,0,-201,-5,4
251891,1039,-8187,-57,0,-223,-5,4
251896,1172,-8189,31,0,-250,-6,4
251901,1285,-8182,180,0,-282,-6,4
251906,1395,-8180,296,0,-313,-7,4
251911,1496,-8182,506,0,-345,-8,4
251916,1579,-8183,674,1,-381,-8,4
251921,1659,-8187,860,1,-419,-9,4
251926,1640,-8190,1102,1,-457,-10,4
251931,1587,-8197,1271,0,-490,-11,4
251937,1552,-8201,1499,0,-519,-12,4
251941,1581,-8202,1695,0,-552,-12,4
251946,1678,-8202,1848,1,-595,-12,4
251952,1731,-8195,2027,1,-641,-12,4
251957,1685,-8195,2126,1,-677,-13,4
251962,1637,-8196,2263,1,-701,-14,4
251967,1606,-8200,2443,0,-728,-14,4
251972,1491,-8202,2702,0,-758,-13,4
251977,1363,-8200,3048,0,-779,-13,4
251982,1182,-8206,3317,0,-787,-12,4
251987,990,-8205,3496,0,-786,-12,4
251991,773,-8202,3561,1,-781,-12,4
251996,507,-8194,3497,2,-776,-11,4
252001,241,-8192,3319,2,-769,-10,4
252006,-133,-8182,3068,2,-752,-9,4
252011,-610,-8191,2775,3,-714,-9,4
252017,-1425,-8199,2452,3,-646,-7,4
252022,-2335,-8216,2218,2,-547,-7,4
252027,-3170,-8221,1902,0,-453,-7,4
252033,-3840,-8223,1620,1,-367,-7,4
252038,-4184,-8213,1494,2,-296,-5,4
252043,-4201,-8216,1270,3,-241,-2,4
252049,-4124,-8205,876,3,-210,1,4
252054,-3701,-8190,550,3,-200,2,4
252058,-3189,-8190,332,3,-199,1,4
252064,-2652,-8200,184,2,-211,-2,4
252069,-2171,-8207,-9,0,-225,-3,4
252075,-1771,-8203,-214,-1,-231,-3,4
252080,-1446,-8203,-290,-1,-228,-2,4
252086,-1244,-8207,-240,-1,-219,-2,4
252091,-1046,-8204,-164,-2,-210,-2,4
252097,-863,-8198,-48,-2,-199,-3,4
252102,-801,-8198,107,-1,-189,-2,4
252107,-819,-8197,249,-1,-181,-2,4
252113,-873,-8194,312,-1,-171,-2,4
252118,-983,-8195,318,-1,-156,-2,4
252124,-1128,-8200,265,-1,-138,-1,4
252129,-1236,-8204,134,-2,-119,-1,4
252135,-1285,-8208,12,-2,-101,-1,4
252139,-1260,-8208,-108,-3,-84,0,4
252145,-1188,-8204,-201,-3,-69,0,4
252151,-1077,-8201,-248,-3,-57,0,4
252156,-916,-8197,-277,-3,-44,0,4
252161,-760,-8193,-278,-3,-31,0,4
252166,-630,-8191,-283,-3,-17,0,4
252171,-517,-8188,-312,-3,-3,0,4
252177,-451,-8185,-346,-3,10,0,4
252182,-409,-8182,-398,-3,19,0,4
252188,-410,-8182,-447,-3,26,1,4
252192,-444,-8182,-486,-3,31,1,4
252197,-445,-8181,-514,-3,34,1,4
252202,-443,-8181,-515,-3,36,1,4
252208,-417,-8181,-501,-3,38,1,4
252213,-349,-8180,-486,-3,39,1,4
252218,-296,-8179,-452,-3,42,1,4
252223,-235,-8177,-428,-3,42,1,4
252228,-188,-8176,-407,-3,42,1,4
252233,-188,-8179,-390,-3,41,1,4
252238,-205,-8179,-379,-3,39,1,4
252243,-239,-8181,-362,-3,38,1,4
252248,-295,-8185,-337,-3,37,1,4
252253,-345,-8185,-308,-3,38,1,4
252258,-362,-8185,-276,-3,39,1,4
252263,-352,-8187,-242,-3,40,1,4
252268,-309,-8184,-226,-3,39,1,4
252272,-240,-8182,-223,-3,35,1,4
252276,-177,-8182,-237,-2,32,1,4
252281,-118,-8181,-253,-2,29,0,4
252286,-65,-8180,-272,-2,26,0,4
252291,-28,-8177,-285,-3,24,0,4
252296,-3,-8175,-300,-2,21,0,4
252301,5,-8173,-311,-2,17,0,4
252306,-6,-8174,-318,-2,14,0,4
252311,-13,-8178,-329,-2,13,0,4
252316,-15,-8180,-344,-2,14,0,4
252321,-16,-8180,-360,-2,14,0,4
252326,-7,-8182,-373,-2,15,0,4
252332,9,-8182,-378,-2,14,0,4
252337,20,-8183,-379,-2,13,0,4
252341,27,-8183,-380,-2,12,0,4
252345,31,-8185,-377,-2,11,0,4
252350,22,-8186,-374,-2,10,0,4
252355,13,-8186,-371,-2,10,0,4
252359,-3,-8187,-366,-2,10,0,4
252364,-24,-8186,-359,-2,10,0,4
252370,-41,-8186,-342,-2,10,0,4
252375,-59,-8183,-330,-2,11,0,4
252380,-70,-8184,-314,-2,11,0,4
252385,-76,-8185,-294,-2,10,0,4
252390,-77,-8186,-279,-2,8,0,4
252395,-75,-8186,-268,-2,6,0,4
252400,-71,-8190,-258,-2,4,0,4
252405,-63,-8193,-252,-2,3,0,4
252410,-54,-8194,-244,-2,1,0,4
252415,-52,-8192,-240,-2,-2,0,4
252420,-54,-8190,-233,-2,-3,0,4
252425,-64,-8188,-225,-2,-4,0,4
252431,-73,-8189,-221,-2,-4,0,4
252436,-82,-8188,-218,-2,-5,0,4
252441,-92,-8191,-221,-2,-5,0,4
252446,-99,-8190,-223,-2,-5,0,4
252452,-105,-8190,-226,-2,-5,0,4
252457,-107,-8185,-230,-2,-5,0,4
252463,-104,-8183,-231,-2,-5,0,4
252469,-102,-8185,-228,-2,-5,0,4
252473,-97,-8186,-221,-2,-6,0,4
252479,-95,-8187,-217,-2,-7,0,4
252484,-89,-8184,-217,-2,-8,0,4
252490,-88,-8183,-222,-2,-9,0,4
252496,-89,-8183,-221,-2,-10,0,4
252500,-94,-8185,-217,-2,-11,0,4
252505,-105,-8186,-215,-2,-10,0,4
252511,-115,-8186,-203,-2,-10,0,4
252517,-129,-8187,-189,-2,-9,0,4
252521,-141,-8188,-180,-2,-8,0,4
252527,-146,-8188,-167,-2,-7,0,4
252532,-146,-8187,-159,-2,-6,0,4
252538,-147,-8186,-159,-2,-6,0,4
252543,-140,-8187,-165,-2,-6,0,4
252549,-130,-8187,-166,-2,-7,0,4
252554,-121,-8187,-167,-2,-7,0,4
252559,-117,-8187,-164,-2,-7,0,4
252564,-121,-8187,-162,-2,-6,0,4
252570,-135,-8187,-164,-2,-5,0,4
252576,-147,-8186,-170,-2,-3,0,4
252581,-158,-8186,-181,-2,-1,0,4
252587,-165,-8183,-201,-2,0,0,4
252591,-162,-8183,-222,-2,1,0,4
252595,-155,-8182,-241,-2,1,0,4
252599,-140,-8186,-257,-2,1,0,4
252604,-124,-8186,-269,-3,2,0,4
252608,-109,-8184,-273,-3,3,0,4
252612,-99,-8182,-273,-3,4,0,4
252616,-88,-8181,-272,-2,5,0,4
252620,-76,-8183,-281,-2,5,0,4
252624,-67,-8183,-295,-2,5,0,4
252628,-56,-8184,-316,-2,3,0,4
252632,-50,-8183,-338,-2,1,0,4
252636,-45,-8182,-357,-2,0,0,4
252640,-41,-8179,-363,-2,0,0,4
252645,-32,-8178,-357,-2,1,0,4
252649,-27,-8182,-341,-2,1,0,4
252653,-24,-8182,-324,-2,1,0,4
252657,-18,-8183,-319,-2,1,0,4
252661,-14,-8181,-327,-2,0,0,4
252665,-13,-8182,-339,-2,-1,0,4
252669,-15,-8185,-358,-2,-2,0,4
252673,-22,-8187,-365,-2,-2,0,4
252677,-28,-8187,-361,-2,-3,0,4
252682,-39,-8187,-347,-2,-3,0,4
252686,-53,-8185,-329,-2,-2,0,4
252690,-61,-8183,-314,-2,-2,0,4
252695,-63,-8180,-307,-2,-1,0,4
252700,-60,-8181,-315,-2,-1,0,4
252705,-55,-8179,-329,-2,-2,0,4
252710,-52,-8180,-345,-2,-2,0,4
252715,-51,-8181,-361,-2,-3,0,4
252720,-51,-8184,-367,-2,-3,0,4
252725,-50,-8183,-363,-2,-4,0,4
252730,-52,-8183,-358,-2,-5,0,4
252735,-57,-8183,-356,-2,-6,0,4
252740,-63,-8177,-362,-1,-6,0,4
252745,-69,-8174,-370,-1,-5,0,4
252750,-74,-8175,-384,-1,-4,0,4
252755,-79,-8178,-397,-1,-4,0,4
252760,-91,-8178,-405,-1,-4,0,4
252765,-107,-8179,-405,-1,-4,0,4
252770,-127,-8179,-399,-1,-4,0,4
252775,-147,-8179,-388,-1,-4,0,4
252780,-163,-8178,-370,-1,-3,0,4
252785,-175,-8178,-352,-1,-2,0,4
252790,-185,-8177,-337,-1,-2,0,4
252795,-200,-8178,-330,-1,-2,0,4
252800,-218,-8178,-323,-1,-2,0,4
252805,-235,-8180,-306,-1,-1,0,4
252810,-256,-8181,-290,-1,0,0,4
252815,-270,-8181,-268,-1,0,0,4
252820,-286,-8183,-237,-2,0,0,4
252825,-302,-8185,-203,-2,-1,0,4
252830,-318,-8187,-165,-2,-1,0,4
252835,-336,-8186,-134,-2,-1,0,4
252840,-354,-8185,-110,-2,-1,0,4
252846,-368,-8186,-89,-2,-1,0,4
252852,-380,-8187,-68,-2,-1,0,4
252857,-387,-8191,-49,-2,-1,0,4
252863,-386,-8191,-29,-2,-2,-1,4
252869,-384,-8191,-12,-2,-3,-1,0
252875,-379,-8193,9,-2,-3,-1,0
252880,-374,-8193,31,-2,-3,-1,0
252886,-372,-8192,43,-2,-3,-1,0
252892,-377,-8190,50,-2,-2,-1,0
252896,-377,-8189,51,-2,-2,-1,0
252900,-374,-8190,46,-3,-2,-1,0
252904,-369,-8190,40,-3,-2,-1,0
252910,-362,-8188,30,-3,-2,-1,0
252916,-351,-8187,13,-3,-2,-1,0
252920,-334,-8185,-8,-3,-3,-1,0
252925,-314,-8186,-26,-3,-3,-1,0
252929,-298,-8184,-39,-3,-4,-1,0
252933,-282,-8183,-58,-3,-5,-2,0
252938,-271,-8182,-79,-3,-6,-2,0
252942,-261,-8185,-100,-3,-6,-2,0
252947,-250,-8187,-125,-3,-7,-2,0
252951,-241,-8194,-150,-3,-7,-2,0
252955,-231,-8194,-175,-3,-7,-2,0
252960,-215,-8194,-198,-3,-8,-2,0
252965,-200,-8192,-215,-3,-9,-2,0
252970,-188,-8190,-231,-3,-9,-2,0
252975,-179,-8188,-245,-3,-8,-2,0
252980,-166,-8189,-258,-3,-7,-2,0
252985,-151,-8190,-274,-3,-6,-2,0
252990,-136,-8190,-288,-3,-6,-2,0
252995,-121,-8190,-303,-3,-5,-2,0
253000,-102,-8190,-319,-3,-5,-2,0
253005,-81,-8185,-333,-3,-5,-1,0
253010,-59,-8181,-345,-3,-5,-1,0
253015,-36,-8179,-358,-3,-4,-1,0
253020,-16,-8180,-367,-3,-4,-1,0
253025,1,-8177,-376,-3,-4,-1,0
253030,13,-8175,-381,-3,-4,-1,0
253035,15,-8174,-389,-2,-3,-1,0
253040,12,-8173,-397,-2,-3,-1,0
253045,3,-8176,-399,-2,-2,-1,0
253050,-2,-8175,-399,-2,-2,-1,0
253056,-5,-8175,-396,-2,-1,-1,0
253061,-9,-8177,-391,-2,0,-1,0
253066,-7,-8177,-385,-2,0,-1,0
253072,-3,-8177,-381,-2,1,-1,0
253078,2,-8177,-374,-2,1,-1,0
253083,2,-8180,-366,-2,1,-1,0
253088,6,-8180,-358,-2,1,-1,0
253093,8,-8181,-352,-2,1,-1,0
253098,10,-8181,-347,-2,1,-1,0
253103,12,-8179,-343,-2,0,-1,0
253109,12,-8181,-339,-2,-1,-1,0
253114,11,-8181,-334,-2,-1,-1,0
253120,11,-8182,-330,-2,-1,-1,0
253126,11,-8183,-320,-2,-1,-1,0
253131,15,-8181,-310,-2,-1,0,0
253137,16,-8180,-300,-2,-1,0,0
253142,12,-8180,-293,-2,-1,0,0
253147,3,-8181,-290,-2,-2,0,0
253153,-12,-8182,-289,-2,-2,0,0
253158,-26,-8182,-283,-2,-2,0,0
253164,-44,-8180,-275,-2,-2,0,0
253170,-65,-8179,-268,-2,-1,0,0
253175,-80,-8180,-259,-2,-1,0,0
253180,-90,-8184,-251,-2,-1,0,0
253186,-97,-8183,-245,-2,-1,0,0
253192,-103,-8180,-241,-2,-2,0,0
253197,-105,-8179,-232,-2,-2,0,0
253202,-112,-8180,-224,-2,-2,-1,0
253208,-119,-8183,-220,-2,-2,-1,0
253215,-130,-8188,-214,-2,-3,-1,0
253220,-143,-8190,-207,-2,-3,-1,0
253226,-154,-8191,-198,-2,-3,-1,0
253232,-165,-8192,-190,-2,-2,-1,0
253238,-171,-8191,-187,-2,-2,-1,0
253244,-176,-8192,-192,-2,-1,-1,0
253250,-177,-8194,-193,-2,-2,-1,0
253256,-175,-8194,-193,-2,-2,-1,0
253261,-173,-8195,-198,-2,-2,-1,0
253267,-170,-8194,-204,-2,-2,-1,0
253273,-164,-8191,-211,-2,-2,-1,0
253279,-160,-8188,-214,-3,-2,-1,0
253285,-159,-8188,-217,-2,-2,-1,0
253291,-160,-8187,-221,-2,-2,-1,0
253296,-158,-8187,-233,-3,-3,-1,0
253300,-156,-8187,-240,-2,-2,-1,0
253304,-150,-8188,-246,-2,-2,-1,0
253309,-140,-8187,-252,-2,-2,-1,0
253313,-127,-8188,-261,-2,-3,-1,0
253317,-117,-8189,-272,-2,-3,-1,0
253322,-114,-8189,-281,-2,-3,-1,0
253326,-109,-8190,-286,-2,-3,-1,0
253330,-104,-8189,-291,-2,-3,-1,0
253335,-101,-8188,-293,-2,-3,-1,0
253339,-101,-8187,-294,-2,-3,-1,0
253344,-104,-8189,-294,-2,-3,-1,0
253348,-103,-8191,-293,-2,-3,-1,0
253352,-99,-8192,-288,-2,-2,-1,0
253357,-95,-8190,-283,-2,-2,-1,0
253361,-90,-8188,-283,-2,-3,-1,0
253365,-86,-8187,-277,-2,-3,-1,0
253370,-83,-8187,-274,-2,-3,-1,0
253374,-78,-8185,-274,-2,-3,-1,0
253378,-73,-8186,-273,-2,-3,-1,0
253385,-67,-8186,-272,-2,-3,-1,0
253391,-61,-8185,-280,-2,-3,-1,0
253396,-59,-8188,-279,-2,-3,-1,0
253401,-55,-8186,-282,-2,-3,-1,0
253407,-47,-8186,-284,-2,-2,-1,0
253412,-39,-8188,-289,-2,-2,-1,0
253419,-29,-8190,-296,-2,-2,-1,0
253424,-18,-8192,-304,-2,-2,-1,0
253430,-11,-8189,-311,-2,-3,-1,0
253436,-3,-8187,-313,-2,-3,-1,0
253440,3,-8188,-314,-2,-3,-1,0
253446,2,-8185,-318,-2,-2,-1,0
253452,3,-8184,-322,-2,-2,0,0
253457,4,-8185,-320,-2,-3,-1,0
253462,2,-8185,-315,-2,-3,0,0
253467,-8,-8185,-314,-2,-3,0,0
253473,-18,-8186,-315,-2,-2,0,0
253479,-25,-8182,-314,-2,-2,0,0
253484,-25,-8183,-315,-2,-1,0,0
253490,-16,-8182,-315,-2,-1,0,0
253495,-5,-8182,-321,-2,-2,0,0
253500,1,-8182,-324,-2,-3,0,0
253506,14,-8180,-334,-2,-3,0,0
253510,27,-8181,-344,-2,-3,0,0
253516,35,-8179,-348,-2,-3,0,0
253520,41,-8177,-354,-2,-3,0,0
253525,43,-8177,-358,-2,-3,0,0
253531,42,-8176,-361,-2,-3,0,0
253536,41,-8176,-362,-2,-3,0,0
253540,33,-8175,-365,-2,-3,0,0
253546,25,-8177,-369,-2,-3,0,0
253551,15,-8177,-369,-2,-2,0,0
253556,2,-8180,-370,-2,-2,0,0
253561,-14,-8180,-370,-2,-2,0,0
253566,-34,-8181,-367,-2,-1,0,0
253571,-54,-8181,-370,-2,-1,0,0
253577,-74,-8183,-368,-2,0,0,0
253581,-93,-8184,-363,-2,0,0,0
253586,-112,-8184,-356,-2,0,0,0
253592,-129,-8183,-352,-2,0,0,0
253596,-141,-8183,-348,-2,0,0,0
253600,-156,-8185,-346,-2,-1,0,0
253605,-172,-8186,-341,-2,-1,0,0
253610,-190,-8184,-334,-2,0,0,0
253616,-208,-8187,-324,-2,0,0,0
253621,-220,-8188,-312,-2,0,0,0
253626,-225,-8188,-304,-2,-1,0,0
253631,-227,-8189,-290,-2,-1,0,0
253637,-227,-8187,-275,-2,-1,0,0
253642,-224,-8188,-269,-2,-1,0,0
253647,-214,-8186,-262,-2,-2,0,0
253653,-209,-8188,-253,-2,-2,-1,0
253659,-209,-8189,-236,-2,-2,-1,0
253665,-211,-8187,-225,-2,-1,-1,0
253670,-212,-8187,-213,-2,-1,-1,0
253676,-217,-8185,-209,-2,-1,-1,0
253681,-217,-8186,-206,-2,-1,-1,0
253687,-220,-8188,-210,-2,-1,-1,0
253693,-221,-8189,-216,-2,-1,-1,0
253697,-222,-8190,-217,-2,-1,-1,0
253702,-220,-8189,-222,-2,-1,-1,0
253707,-221,-8191,-229,-2,-1,-1,0
253713,-217,-8189,-232,-2,-1,-1,0
253719,-212,-8188,-235,-2,-1,-1,0
253724,-210,-8187,-239,-2,-2,-1,0
253730,-208,-8188,-244,-2,-2,-1,0
253736,-203,-8187,-250,-2,-2,-1,0
253741,-196,-8183,-251,-2,-1,-1,0
253746,-188,-8185,-248,-2,-1,-1,0
253752,-182,-8185,-243,-2,-1,-1,0
253758,-178,-8185,-239,-2,-1,-1,0
253764,-171,-8183,-229,-2,0,-1,0
253770,-163,-8182,-223,-2,0,-1,0
253776,-151,-8183,-217,-2,-1,-1,0
253781,-136,-8183,-217,-2,-1,-1,0
253787,-123,-8183,-216,-2,-2,-1,0
253793,-111,-8183,-217,-2,-2,-1,0
253798,-105,-8185,-212,-2,-2,-1,0
253804,-103,-8185,-203,-2,-2,-1,0
253809,-101,-8185,-196,-3,-1,-1,0
253814,-103,-8187,-189,-3,-1,-1,0
253818,-102,-8188,-190,-2,-2,-1,0
253824,-102,-8189,-196,-3,-2,-1,0
253828,-99,-8190,-205,-3,-2,-1,0
253833,-98,-8188,-210,-3,-2,-1,0
253837,-94,-8186,-208,-3,-2,-1,0
253841,-89,-8186,-206,-3,-2,-1,0
253846,-85,-8188,-201,-3,-3,-1,0
253850,-83,-8188,-205,-3,-3,-1,0
253855,-80,-8189,-203,-3,-3,-1,0
253859,-80,-8194,-207,-3,-3,-1,0
253863,-78,-8195,-214,-3,-3,-1,0
253868,-77,-8193,-219,-3,-3,-1,0
253872,-78,-8192,-221,-3,-3,-1,0
253876,-80,-8190,-223,-3,-3,-1,0
253881,-76,-8192,-224,-3,-3,-1,0
253885,-69,-8192,-221,-3,-3,-1,0
253889,-59,-8189,-219,-3,-3,-1,0
253894,-48,-8190,-220,-3,-4,-1,0
253898,-36,-8194,-220,-3,-4,-1,0
253903,-24,-8193,-225,-3,-5,-1,0
253907,-17,-8192,-233,-3,-5,-1,0
253911,-8,-8192,-236,-3,-6,-1,0
253916,5,-8191,-239,-3,-6,-1,0
253920,13,-8191,-240,-3,-7,-1,0
253924,18,-8191,-247,-3,-8,-1,0
253928,22,-8190,-252,-3,-8,-1,0
253932,28,-8189,-260,-3,-8,-1,0
253936,34,-8189,-270,-3,-7,-1,0
253940,43,-8191,-279,-3,-7,-1,0
253945,50,-8190,-291,-3,-8,-1,0
253949,55,-8190,-305,-3,-8,-1,0
253953,62,-8192,-320,-3,-8,-1,0
253957,62,-8191,-332,-3,-9,-1,0
253961,61,-8191,-344,-3,-8,-1,0
253965,55,-8189,-359,-3,-8,-1,0
253970,52,-8189,-367,-3,-8,-1,0
253974,50,-8188,-378,-3,-7,-1,0
253978,46,-8185,-396,-3,-7,-1,0
253982,43,-8185,-409,-3,-6,0,0
253986,37,-8183,-420,-3,-5,0,0
253990,33,-8179,-427,-3,-5,0,0
253994,34,-8177,-440,-3,-4,0,0
253998,32,-8177,-452,-3,-4,0,0
254002,27,-8177,-460,-3,-4,0,0
254006,31,-8177,-470,-3,-3,0,0
254010,34,-8173,-473,-2,-4,0,0
254014,32,-8174,-475,-2,-4,0,0
254018,24,-8174,-475,-2,-5,0,0
254022,12,-8175,-475,-2,-4,0,0
254026,-1,-8174,-474,-2,-3,0,0
254030,-9,-8175,-473,-2,-3,0,0
254034,-19,-8175,-472,-2,-2,0,0
254039,-24,-8179,-472,-2,-2,0,0
254043,-31,-8178,-469,-2,-2,0,0
254047,-38,-8181,-466,-2,-1,0,0
254051,-43,-8183,-462,-2,-1,0,0
254055,-42,-8185,-454,-2,-1,0,0
254060,-45,-8184,-443,-2,-1,0,0
254064,-52,-8182,-430,-2,-1,0,0
254069,-61,-8185,-417,-2,-1,0,0
254074,-73,-8189,-400,-2,-1,0,0
254079,-79,-8190,-383,-2,0,0,0
254084,-82,-8188,-371,-2,0,0,0
254089,-83,-8188,-364,-2,0,0,0
254094,-86,-8186,-355,-2,0,0,0
254099,-82,-8186,-348,-2,0,0,0
254104,-79,-8189,-338,-2,0,0,0
254109,-73,-8191,-328,-2,-1,0,0
254114,-68,-8193,-316,-2,-1,0,0
254119,-64,-8193,-308,-2,-1,0,0
254124,-58,-8193,-308,-2,-1,0,0
254129,-50,-8192,-308,-2,-2,0,0
254134,-45,-8189,-304,-2,-2,0,0
254139,-44,-8191,-303,-2,-2,0,0
254144,-41,-8190,-303,-2,-2,0,0
254149,-36,-8190,-300,-2,-2,0,0
254154,-32,-8189,-292,-2,-2,0,0
254159,-29,-8188,-290,-2,-3,0,0
254164,-23,-8186,-295,-2,-3,0,0
254169,-16,-8184,-296,-2,-3,0,0
254174,-8,-8186,-295,-2,-3,0,0
254180,-2,-8183,-292,-2,-3,0,0
254186,3,-8182,-298,-2,-3,0,0
254191,7,-8183,-305,-2,-4,0,0
254196,9,-8184,-313,-2,-4,0,0
254201,12,-8179,-312,-2,-4,0,0
254206,19,-8176,-317,-2,-4,0,0
254212,26,-8174,-320,-2,-4,0,0
254217,35,-8175,-325,-2,-4,0,0
254221,43,-8177,-332,-2,-4,0,0
254227,51,-8176,-336,-2,-4,0,0
254232,57,-8175,-340,-2,-4,0,0
254237,61,-8175,-346,-2,-4,0,0
254242,61,-8174,-364,-2,-4,0,0
254247,59,-8172,-375,-2,-4,0,0
254252,56,-8171,-385,-2,-3,0,0
254257,50,-8174,-394,-2,-2,0,0
254261,52,-8178,-410,-2,-2,1,0
254266,60,-8182,-420,-2,-2,1,0
254272,61,-8184,-432,-2,-2,1,0
254277,60,-8183,-445,-2,-2,1,0
254282,53,-8185,-458,-2,-1,1,0
254287,42,-8186,-464,-2,-1,1,0
254291,29,-8189,-467,-2,0,1,0
254295,13,-8189,-464,-2,0,1,0
254299,-12,-8187,-458,-1,1,1,0
254303,-33,-8185,-449,-1,2,1,0
254309,-52,-8182,-441,-1,2,1,0
254314,-66,-8183,-434,-1,2,1,0
254319,-76,-8181,-422,-1,2,1,0
254323,-84,-8179,-413,-1,2,1,0
254329,-97,-8181,-401,-1,2,1,0
254334,-109,-8182,-389,-1,3,1,0
254339,-123,-8183,-376,-1,3,1,0
254343,-143,-8183,-358,-1,2,1,0
254348,-166,-8182,-338,-1,2,1,0
254354,-192,-8182,-321,-1,2,1,0
254359,-212,-8182,-301,-1,2,1,0
254364,-230,-8187,-285,-1,3,0,0
254368,-239,-8189,-273,-1,3,0,0
254374,-244,-8189,-255,-1,2,0,0
254379,-253,-8190,-244,-2,1,0,0
254384,-264,-8191,-224,-2,1,0,0
254389,-278,-8193,-204,-2,0,0,0
254394,-298,-8192,-188,-2,0,0,0
254400,-314,-8193,-167,-2,0,0,0
254405,-327,-8194,-146,-2,0,0,0
254410,-340,-8196,-127,-2,0,0,0
254416,-350,-8196,-112,-2,-1,0,0
254421,-354,-8195,-102,-2,-1,0,0
254426,-354,-8196,-93,-2,-2,0,0
254431,-349,-8197,-87,-2,-2,-1,0
254437,-344,-8196,-82,-2,-3,-1,0
254442,-340,-8197,-80,-2,-4,-1,0
254447,-339,-8194,-80,-2,-4,-1,0
254453,-339,-8194,-79,-2,-4,-1,0
254459,-339,-8194,-82,-2,-4,-1,0
254465,-335,-8194,-89,-2,-5,-1,0
254471,-323,-8191,-105,-2,-5,-1,0
254476,-308,-8189,-125,-2,-6,-1,0
254480,-291,-8187,-146,-3,-7,-1,0
254485,-267,-8188,-170,-3,-7,-1,0
254491,-241,-8188,-196,-3,-8,-1,0
254496,-225,-8187,-224,-3,-8,-1,0
254501,-209,-8188,-245,-3,-8,-1,0
254507,-189,-8186,-273,-2,-8,-1,0
254513,-171,-8186,-299,-2,-8,-1,0
254518,-152,-8187,-325,-2,-8,-1,0
254523,-136,-8189,-356,-2,-7,-1,0
254529,-120,-8188,-386,-2,-7,-1,0
254534,-105,-8185,-414,-2,-6,-1,0
254540,-86,-8183,-436,-2,-5,-1,0
254546,-66,-8183,-453,-2,-5,-1,0
254552,-49,-8184,-467,-2,-4,-1,0
254557,-32,-8184,-479,-2,-4,-1,0
254562,-20,-8184,-492,-2,-4,-1,0
254568,-7,-8183,-503,-2,-4,-1,0
254574,5,-8181,-518,-2,-4,-1,0
254580,17,-8180,-527,-2,-3,-1,0
254585,27,-8178,-534,-2,-3,-1,0
254591,33,-8178,-545,-2,-3,-1,0
254596,36,-8177,-551,-1,-3,-1,0
254601,41,-8176,-555,-1,-2,-1,0
254606,45,-8180,-553,-1,-1,-1,0
254612,48,-8182,-553,-1,0,-1,0
254618,53,-8182,-552,-1,0,0,0
254622,57,-8182,-545,-1,1,0,0
254628,58,-8181,-542,-1,2,0,0
254633,59,-8179,-536,-1,3,0,0
254639,58,-8178,-526,-1,3,0,0
254643,53,-8177,-514,-1,4,0,0
254649,48,-8176,-494,-1,5,0,0
254655,41,-8175,-474,-1,5,0,0
254660,35,-8179,-453,-1,5,0,0
254665,27,-8178,-429,-1,5,0,0
254671,16,-8179,-414,-1,5,0,0
254676,2,-8180,-400,-1,5,0,0
254681,-10,-8180,-386,-1,5,0,0
254686,-21,-8183,-372,-1,4,0,0
254692,-35,-8184,-351,-1,4,0,0
254696,-48,-8181,-331,-1,4,0,0
254700,-62,-8179,-311,-1,4,0,0
254706,-75,-8176,-292,-1,4,0,0
254710,-89,-8175,-273,-1,4,0,0
254714,-101,-8177,-258,-1,4,0,0
254718,-112,-8179,-246,-1,5,0,0
254722,-119,-8183,-235,-1,5,0,0
254726,-124,-8184,-230,-1,6,0,0
254730,-127,-8183,-220,-1,6,0,0
254734,-131,-8185,-210,-1,6,0,0
254739,-134,-8184,-201,-1,6,0,0
254744,-137,-8183,-198,-1,6,0,0
254749,-138,-8180,-189,-1,6,0,0
254754,-138,-8179,-180,-1,5,0,0
254759,-138,-8182,-175,-1,4,0,0
254765,-142,-8185,-171,-1,3,0,0
254770,-143,-8186,-167,-1,3,0,0
254776,-147,-8188,-165,-1,2,0,0
254781,-153,-8188,-156,-1,1,0,0
254786,-160,-8190,-149,-1,1,0,0
254791,-169,-8188,-139,-1,1,-1,0
254797,-175,-8186,-131,-1,1,-1,0
254802,-180,-8188,-127,-1,1,-1,0
254808,-185,-8191,-124,-2,1,-1,0
254813,-187,-8192,-121,-2,1,-1,0
254818,-186,-8191,-117,-2,1,-1,0
254823,-183,-8193,-112,-2,0,-1,0
254829,-181,-8191,-112,-2,0,-1,0
254834,-177,-8192,-112,-2,0,-1,0
254840,-172,-8191,-112,-2,0,-1,0
254846,-163,-8188,-112,-2,0,-1,0
254851,-157,-8186,-116,-2,-1,-1,0
254857,-152,-8186,-123,-2,-1,-1,0
254862,-145,-8182,-129,-2,-2,-1,0
254867,-138,-8183,-139,-2,-2,-1,0
254873,-129,-8182,-147,-2,-2,-1,0
254879,-115,-8179,-156,-2,-3,-1,0
254885,-100,-8181,-168,-2,-3,-1,0
254890,-91,-8182,-187,-2,-3,-1,0
254896,-83,-8184,-200,-2,-3,-1,0
254901,-78,-8184,-213,-2,-3,-1,0
254907,-70,-8185,-221,-2,-3,-1,0
254912,-66,-8189,-229,-2,-3,-1,0
254918,-62,-8190,-237,-2,-3,-1,0
254923,-60,-8190,-249,-2,-2,-1,0
254929,-52,-8193,-254,-2,-2,-1,0
254935,-40,-8193,-260,-2,-1,-1,0
254941,-24,-8194,-267,-2,-1,-1,0
254947,-12,-8195,-274,-2,-1,-1,0
254953,-2,-8195,-280,-2,-2,-1,0
254960,5,-8192,-286,-2,-1,-1,0
254965,9,-8188,-293,-2,-1,-1,0
254971,15,-8187,-295,-2,-1,-1,0
254977,18,-8187,-299,-2,-1,0,0
254982,25,-8185,-305,-2,-1,0,0
254987,36,-8183,-308,-2,-2,0,0
254993,48,-8181,-313,-2,-2,0,0
254998,57,-8180,-319,-2,-2,0,0
255003,67,-8181,-319,-2,-2,0,0
255009,73,-8181,-319,-2,-2,0,0
255014,75,-8183,-317,-2,-3,0,0
255020,75,-8185,-321,-2,-3,0,0
255025,73,-8184,-323,-2,-2,0,0
255029,71,-8183,-325,-2,-2,0,0
255033,63,-8182,-326,-2,-2,0,0
255037,58,-8180,-319,-2,-2,0,0
255041,54,-8178,-316,-2,-2,0,0
255045,53,-8177,-312,-2,-1,0,0
255049,51,-8175,-307,-2,-1,0,0
255054,48,-8175,-305,-2,-1,0,0
255058,45,-8176,-305,-2,-2,0,0
255062,41,-8176,-304,-2,-2,0,0
255066,39,-8176,-304,-2,-2,0,0
255070,36,-8181,-302,-1,-2,0,0
255074,30,-8181,-299,-2,-2,0,0
255078,20,-8179,-297,-2,-2,0,0
255082,7,-8178,-296,-2,-2,0,0
255086,-7,-8179,-293,-1,-2,0,0
255091,-22,-8182,-291,-1,-2,0,0
255095,-43,-8185,-289,-1,-2,0,0
255099,-64,-8184,-290,-1,-1,0,0
255103,-84,-8183,-293,-1,-1,0,0
255107,-102,-8182,-295,-1,0,0,0
255111,-121,-8183,-300,-1,0,0,0
255115,-140,-8182,-305,-1,0,0,0
255119,-157,-8181,-307,-1,0,0,0
255123,-177,-8180,-307,-1,-1,0,0
255127,-198,-8181,-305,-1,-1,0,0
255132,-214,-8182,-302,-1,-1,0,0
255136,-225,-8183,-298,-1,-2,0,0
255140,-241,-8185,-299,-1,-2,0,0
255144,-258,-8185,-297,-1,-2,0,0
255148,-276,-8186,-302,-1,-2,0,0
255152,-296,-8185,-296,-1,-2,0,0
255157,-312,-8184,-290,-1,-2,0,0
255161,-324,-8184,-285,-1,-2,0,0
255165,-333,-8184,-270,-1,-1,-1,0
255169,-340,-8185,-255,-1,-1,-1,0
255174,-345,-8185,-239,-1,-1,-1,0
255178,-344,-8183,-223,-1,0,-1,0
255182,-338,-8182,-214,-1,0,-1,0
255186,-332,-8183,-202,-1,0,-1,0
255191,-325,-8185,-195,-1,0,-1,0
255195,-319,-8188,-188,-1,0,-1,0
255199,-310,-8187,-186,-1,0,-1,0
255203,-302,-8186,-190,-1,0,-1,0
255207,-298,-8187,-196,-1,-1,-1,0
255212,-292,-8187,-201,-1,0,-1,0
255216,-284,-8187,-201,-1,0,-1,0
255220,-272,-8186,-201,-1,0,-1,0
255224,-260,-8187,-203,-1,0,-1,0
255229,-249,-8185,-204,-1,0,-1,0
255233,-238,-8184,-207,-1,0,-2,0
255238,-232,-8183,-211,-1,0,-2,0
255243,-226,-8184,-213,-1,0,-2,0
255248,-212,-8184,-208,-1,0,-2,0
255252,-201,-8185,-211,-1,0,-2,0
255258,-191,-8188,-215,-1,0,-2,0
255263,-175,-8189,-218,-1,0,-2,0
255268,-161,-8188,-218,-1,0,-2,0
255273,-150,-8190,-219,-1,1,-2,0
255278,-133,-8190,-219,-1,1,-2,0
255283,-114,-8190,-220,-1,1,-2,0
255288,-100,-8189,-219,-1,0,-2,0
255293,-91,-8189,-222,-1,-1,-2,0
255298,-80,-8185,-218,-1,-1,-2,0
255303,-69,-8185,-211,-1,0,-2,0
255308,-61,-8185,-198,-2,0,-1,0
255312,-52,-8187,-181,-2,0,-2,0
255317,-52,-8187,-169,-2,0,-2,0
255322,-60,-8187,-156,-2,1,-2,0
255327,-66,-8190,-149,-2,1,-2,0
255332,-69,-8192,-137,-2,2,-1,0
255337,-71,-8193,-127,-2,1,-1,0
255342,-71,-8192,-119,-2,1,-1,0
255347,-68,-8192,-108,-2,1,-1,0
255353,-65,-8191,-100,-2,1,-1,0
255358,-60,-8191,-86,-2,1,-1,0
255363,-55,-8188,-73,-2,1,-2,0
255369,-53,-8188,-61,-2,0,-1,0
255375,-51,-8189,-60,-2,-1,-2,0
255381,-53,-8191,-62,-2,-1,-2,0
255387,-53,-8193,-66,-2,-1,-1,0
255393,-49,-8193,-69,-2,-1,-1,0
255399,-40,-8192,-69,-2,-1,-1,0
255405,-32,-8193,-72,-2,-2,-1,0
255410,-21,-8191,-76,-2,-2,-1,0
255416,-12,-8191,-78,-2,-3,-1,0
255422,-3,-8189,-84,-2,-3,-1,0
255427,0,-8187,-89,-2,-2,-1,0
255432,6,-8184,-91,-2,-2,-1,0
255438,11,-8184,-95,-2,-2,-1,0
255443,18,-8184,-93,-2,-3,-1,0
255448,30,-8186,-94,-2,-4,-1,0
255454,39,-8184,-93,-3,-4,-1,0
255459,46,-8184,-89,-3,-3,-1,0
255464,55,-8186,-84,-3,-3,-1,0
255469,62,-8187,-82,-3,-4,-1,0
255475,61,-8186,-79,-3,-4,-1,0
255480,62,-8184,-83,-3,-4,-1,0
255485,66,-8183,-88,-3,-4,-1,0
255490,68,-8182,-94,-3,-5,-1,0
255495,70,-8183,-102,-3,-5,-1,0
255500,75,-8183,-112,-3,-6,-1,0
255505,79,-8185,-118,-3,-6,-1,0
255510,81,-8186,-122,-3,-6,-1,0
255516,84,-8184,-127,-3,-6,-1,0
255521,84,-8186,-139,-3,-7,-1,0
255526,85,-8183,-148,-3,-8,-1,0
255532,85,-8182,-162,-3,-8,-1,0
255537,82,-8181,-179,-3,-8,-1,0
255542,80,-8181,-191,-3,-8,-1,0
255547,78,-8180,-202,-3,-8,-1,0
255553,77,-8182,-206,-3,-8,-1,0
255558,77,-8181,-214,-3,-8,-1,0
255563,74,-8182,-222,-3,-8,-1,0
255568,70,-8183,-230,-3,-8,-1,0
255573,64,-8183,-244,-3,-7,-1,0
255579,55,-8184,-259,-3,-7,-1,0
255584,44,-8186,-271,-3,-6,0,0
255590,38,-8187,-281,-3,-6,0,0
255595,36,-8189,-292,-3,-6,0,0
255599,34,-8190,-303,-3,-5,0,0
255603,32,-8191,-312,-3,-5,0,0
255608,32,-8189,-315,-3,-5,0,0
255613,32,-8188,-321,-3,-5,0,0
255618,33,-8188,-330,-2,-5,0,0
255623,31,-8188,-338,-2,-5,0,0
255628,24,-8188,-351,-2,-5,0,0
255633,14,-8190,-356,-2,-5,0,0
255638,8,-8188,-358,-2,-5,0,0
255642,2,-8187,-357,-2,-5,0,0
255647,-3,-8187,-350,-2,-5,0,0
255653,-13,-8187,-338,-2,-5,0,0
255658,-20,-8186,-328,-2,-4,0,0
255663,-25,-8184,-323,-2,-4,0,0
255669,-33,-8183,-321,-2,-4,0,0
255674,-40,-8185,-317,-2,-4,0,0
255680,-50,-8191,-314,-2,-4,0,0
255685,-57,-8192,-313,-2,-4,0,0
255690,-64,-8194,-309,-2,-4,0,0
255695,-69,-8190,-305,-2,-4,0,0
255700,-69,-8188,-295,-2,-4,0,0
255705,-67,-8191,-292,-2,-4,0,0
255711,-64,-8191,-292,-2,-3,0,0
255716,-62,-8192,-292,-2,-3,0,0
255722,-63,-8191,-294,-2,-3,0,0
255727,-64,-8190,-301,-2,-3,0,0
