millis,ax,ay,az,gx,gy,gz,label
73317,116,-8191,-243,-2,-1,0,0
73322,115,-8191,-243,-2,-1,0,0
73327,114,-8191,-242,-2,-1,0,0
73333,116,-8193,-239,-2,-1,0,0
73338,119,-8193,-241,-2,-1,0,0
73344,123,-8191,-240,-2,-1,0,0
73350,125,-8192,-241,-2,-1,0,0
73356,128,-8192,-248,-2,-1,0,0
73362,132,-8192,-255,-2,-1,0,0
73367,132,-8191,-257,-2,-1,0,0
73373,135,-8194,-256,-2,-1,0,0
73378,135,-8196,-253,-2,-1,0,0
73383,136,-8196,-250,-2,-1,0,0
73387,133,-8196,-244,-2,-1,0,0
73392,130,-8196,-235,-2,-1,0,0
73398,132,-8197,-228,-2,-1,0,0
73404,131,-8197,-224,-2,-1,0,0
73409,133,-8195,-226,-2,-1,0,0
73415,133,-8198,-224,-2,-1,0,0
73421,134,-8199,-225,-2,-1,0,0
73426,136,-8200,-224,-2,-1,0,0
73432,136,-8202,-221,-2,-1,0,0
73438,134,-8202,-215,-2,-1,0,0
73444,130,-8203,-211,-2,-1,0,0
73448,125,-8199,-207,-2,-1,0,0
73452,121,-8195,-210,-2,-1,0,0
73456,119,-8195,-220,-2,-1,0,0
73460,118,-8194,-226,-2,-1,0,0
73465,117,-8195,-225,-2,-1,0,0
73471,117,-8196,-234,-2,-1,0,0
73476,117,-8193,-239,-2,-1,0,0
73480,122,-8192,-233,-2,-1,0,0
73485,129,-8189,-231,-2,-1,0,0
73491,137,-8189,-226,-2,-1,0,0
73497,143,-8188,-224,-2,-1,0,0
73503,147,-8188,-223,-2,-1,0,0
73507,148,-8190,-220,-2,-1,0,0
73514,147,-8190,-219,-2,-1,0,0
73520,145,-8192,-220,-2,-1,0,0
73525,144,-8189,-221,-2,-1,0,0
73531,142,-8190,-222,-2,-1,0,0
73537,141,-8193,-223,-2,0,0,0
73543,142,-8193,-222,-2,0,0,0
73547,145,-8194,-221,-2,0,0,0
73553,145,-8193,-225,-2,-1,0,0
73558,145,-8194,-230,-2,-1,0,0
73564,143,-8196,-233,-2,-1,0,0
73569,139,-8195,-238,-2,-1,0,0
73576,137,-8195,-244,-2,-1,0,0
73580,135,-8196,-244,-2,-1,0,0
73584,132,-8195,-246,-2,-1,0,0
73588,131,-8195,-248,-2,-1,0,0
73592,127,-8195,-250,-2,-1,0,0
73596,127,-8195,-249,-2,-1,0,0
73600,123,-8197,-250,-2,-1,0,0
73604,115,-8196,-253,-2,-1,0,0
73608,109,-8195,-257,-2,-1,0,0
73612,103,-8196,-261,-2,-1,0,0
73616,97,-8196,-264,-2,-1,0,0
73620,95,-8197,-262,-2,-1,0,0
73625,96,-8196,-259,-2,-1,0,0
73629,96,-8192,-260,-2,-1,0,0
73633,100,-8193,-263,-2,-1,0,0
73637,104,-8194,-266,-2,-1,0,0
73641,108,-8194,-269,-2,-1,0,0
73645,111,-8191,-268,-2,-1,0,0
73649,110,-8189,-263,-2,-1,0,0
73653,110,-8190,-262,-2,-1,0,0
73657,113,-8189,-262,-2,-1,0,0
73661,115,-8188,-255,-2,-1,0,0
73665,116,-8190,-252,-2,-1,0,0
73669,117,-8191,-257,-2,-1,0,0
73673,116,-8187,-259,-2,-1,0,0
73678,116,-8189,-263,-2,-1,0,0
73683,120,-8190,-263,-2,-1,0,0
73688,122,-8187,-259,-2,-1,0,0
73693,123,-8189,-256,-2,-1,0,0
73698,123,-8188,-255,-2,-1,0,0
73703,125,-8188,-254,-2,-1,0,0
73708,129,-8185,-252,-2,-1,0,0
73713,133,-8185,-251,-2,-1,0,0
73718,134,-8185,-251,-2,-1,0,0
73723,136,-8185,-252,-2,-1,0,0
73728,135,-8185,-254,-2,-1,0,0
73733,134,-8184,-255,-2,-1,0,0
73738,134,-8184,-257,-2,-1,0,0
73743,137,-8185,-253,-2,-1,0,0
73748,140,-8186,-251,-2,-1,0,0
73753,143,-8186,-247,-2,-1,0,0
73758,147,-8186,-242,-2,-1,0,0
73763,149,-8189,-241,-2,-1,0,0
73768,152,-8192,-243,-2,-1,0,0
73773,153,-8193,-243,-2,-1,0,0
73778,151,-8190,-248,-2,-1,0,0
73783,146,-8191,-252,-2,-1,0,0
73788,144,-8192,-252,-2,-1,0,0
73793,145,-8193,-252,-2,-1,0,0
73798,142,-8192,-250,-2,-1,0,0
73803,142,-8191,-242,-2,-1,0,0
73808,142,-8190,-236,-2,-1,0,0
73813,143,-8193,-233,-2,-1,0,0
73818,138,-8194,-234,-2,-1,0,0
73823,136,-8197,-236,-2,-1,0,0
73828,135,-8197,-235,-2,-1,0,0
73833,136,-8196,-236,-2,-1,0,0
73838,137,-8197,-235,-2,-1,0,0
73843,135,-8196,-236,-2,-1,0,0
73848,133,-8195,-239,-2,0,0,0
73853,137,-8195,-242,-2,-1,0,0
73858,135,-8191,-241,-2,-1,0,0
73863,134,-8191,-240,-2,-1,0,0
73868,132,-8190,-232,-2,-1,0,0
73874,130,-8188,-231,-2,-1,0,0
73879,126,-8189,-229,-2,-1,0,0
73884,124,-8191,-231,-2,-1,0,0
73889,119,-8192,-232,-2,-1,0,0
73894,112,-8193,-237,-2,-1,0,0
73900,104,-8194,-242,-2,-1,0,0
73905,99,-8197,-247,-2,-1,0,0
73911,99,-8195,-246,-2,-1,0,0
73916,95,-8192,-244,-2,-1,0,0
73922,92,-8191,-244,-2,-1,0,0
73926,91,-8194,-240,-2,-1,0,0
73930,89,-8197,-236,-2,-1,0,0
73934,89,-8198,-235,-2,-1,0,0
73939,89,-8197,-235,-2,-1,0,0
73944,92,-8194,-242,-2,-1,0,0
73948,93,-8192,-244,-2,-1,0,0
73953,97,-8192,-243,-2,-1,0,0
73958,102,-8189,-243,-2,-1,0,0
73963,108,-8189,-243,-2,-1,0,0
73968,113,-8186,-240,-2,-1,0,0
73973,117,-8186,-242,-2,-1,0,0
73978,122,-8188,-242,-2,-1,0,0
73983,123,-8188,-243,-2,-2,0,0
73988,122,-8187,-242,-2,-2,0,0
73993,120,-8187,-241,-2,-2,0,0
73998,116,-8186,-240,-2,-2,0,0
74003,115,-8186,-241,-2,-2,0,0
74008,112,-8189,-243,-2,-2,0,0
74013,114,-8191,-242,-2,-2,0,0
74018,114,-8189,-243,-2,-2,0,0
74023,116,-8188,-248,-2,-2,0,0
74028,119,-8186,-243,-2,-2,0,0
74033,119,-8188,-245,-2,-2,0,0
74038,121,-8189,-246,-2,-2,0,0
74043,121,-8191,-244,-2,-2,0,0
74048,117,-8189,-245,-2,-2,0,0
74053,117,-8190,-245,-2,-1,0,0
74059,118,-8191,-247,-2,-1,0,0
74065,115,-8191,-246,-2,-1,0,0
74071,116,-8190,-242,-2,-1,0,0
74077,115,-8190,-237,-2,-1,0,0
74083,112,-8190,-237,-2,-1,0,0
74088,112,-8191,-233,-2,-2,0,0
74094,111,-8191,-230,-2,-2,0,0
74100,108,-8191,-226,-2,-2,0,0
74106,104,-8190,-225,-2,-2,0,0
74110,108,-8190,-225,-2,-2,0,0
74116,107,-8191,-224,-2,-2,0,0
74122,108,-8191,-223,-2,-2,0,0
74128,108,-8191,-222,-2,-2,0,0
74134,107,-8190,-220,-2,-2,0,0
74140,109,-8190,-217,-2,-2,0,0
74145,110,-8188,-215,-2,-2,0,0
74151,113,-8187,-214,-2,-2,0,0
74157,115,-8189,-212,-2,-2,0,0
74162,121,-8187,-214,-2,-2,0,0
74167,122,-8189,-213,-2,-2,0,0
74173,122,-8189,-216,-2,-2,0,0
74178,123,-8192,-219,-2,-2,0,0
74184,125,-8192,-217,-2,-2,0,0
74189,127,-8193,-216,-2,-2,0,0
74193,130,-8195,-218,-2,-2,0,0
74199,133,-8194,-219,-2,-2,0,0
74205,138,-8194,-218,-2,-2,0,0
74209,141,-8196,-213,-2,-2,0,0
74215,141,-8195,-210,-2,-2,0,0
74221,137,-8196,-210,-2,-2,0,0
74227,135,-8196,-211,-2,-2,0,0
74232,132,-8194,-213,-2,-2,0,0
74238,129,-8194,-213,-2,-2,0,0
74244,126,-8196,-215,-2,-2,0,0
74249,121,-8196,-216,-2,-2,0,0
74255,117,-8195,-214,-2,-2,0,0
74260,114,-8196,-219,-2,-2,0,0
74266,116,-8199,-220,-2,-2,0,0
74272,113,-8199,-224,-2,-3,0,0
74278,111,-8198,-224,-2,-3,0,0
74283,110,-8196,-219,-2,-2,0,0
74289,113,-8196,-218,-2,-2,0,0
74294,112,-8197,-219,-2,-3,0,0
74300,109,-8198,-224,-2,-3,0,0
74306,107,-8198,-228,-2,-3,0,0
74310,109,-8194,-228,-2,-3,0,0
74314,109,-8191,-231,-2,-3,0,0
74320,108,-8190,-234,-2,-3,0,0
74326,108,-8187,-237,-2,-3,0,0
74332,109,-8186,-234,-2,-3,0,0
74337,115,-8185,-235,-2,-3,0,0
74343,121,-8186,-236,-2,-3,0,0
74347,125,-8187,-234,-2,-3,0,0
74353,127,-8189,-234,-2,-2,0,0
74359,132,-8191,-235,-2,-2,0,0
74365,134,-8194,-235,-2,-2,0,0
74371,135,-8194,-231,-2,-2,0,0
74377,137,-8194,-228,-2,-2,0,0
74383,138,-8193,-227,-2,-2,0,0
74388,141,-8191,-228,-2,-2,0,0
74393,144,-8190,-231,-2,-2,0,0
74397,145,-8191,-227,-2,-2,0,0
74401,150,-8191,-219,-2,-2,0,0
74405,153,-8193,-218,-2,-3,0,0
74410,150,-8194,-217,-2,-3,0,0
74415,146,-8194,-215,-2,-3,0,0
74421,139,-8192,-216,-2,-3,0,0
74426,135,-8189,-220,-2,-3,0,0
74432,134,-8188,-218,-2,-2,0,0
74437,134,-8189,-219,-2,-2,0,0
74442,132,-8192,-224,-2,-2,0,0
74446,127,-8192,-227,-2,-2,0,0
74451,124,-8191,-229,-2,-2,0,0
74456,122,-8193,-228,-2,-2,0,0
74461,118,-8196,-227,-2,-2,0,0
74466,114,-8193,-225,-2,-2,0,0
74471,113,-8192,-223,-2,-2,0,0
74476,109,-8191,-222,-2,-2,0,0
74481,106,-8193,-223,-2,-2,0,0
74486,109,-8192,-222,-2,-2,0,0
74490,113,-8195,-221,-2,-2,0,0
74495,118,-8197,-224,-2,-2,0,0
74501,120,-8198,-227,-2,-2,0,0
74506,122,-8199,-225,-2,-2,0,0
74511,124,-8200,-223,-2,-2,0,0
74516,129,-8201,-223,-2,-2,0,0
74521,132,-8200,-221,-2,-2,0,0
74526,132,-8201,-218,-2,-2,0,0
74531,132,-8199,-221,-2,-2,0,0
74537,132,-8201,-222,-2,-2,0,0
74542,133,-8199,-227,-2,-2,0,0
74547,129,-8197,-226,-2,-2,0,0
74552,125,-8196,-229,-2,-2,0,0
74558,128,-8196,-227,-2,-2,0,0
74564,126,-8195,-225,-2,-2,0,0
74569,124,-8194,-223,-2,-2,0,0
74575,119,-8193,-219,-2,-2,0,0
74581,117,-8190,-215,-2,-2,0,0
74587,115,-8187,-219,-2,-2,0,0
74592,113,-8187,-219,-2,-2,0,0
74598,114,-8186,-223,-2,-2,0,0
74604,111,-8187,-225,-2,-2,0,0
74609,109,-8189,-224,-2,-2,0,0
74615,107,-8193,-227,-2,-2,0,0
74621,104,-8197,-229,-2,-2,0,0
74626,103,-8196,-231,-2,-2,0,0
74632,97,-8196,-233,-2,-2,0,0
74638,94,-8196,-234,-2,-2,0,0
74644,93,-8198,-235,-2,-2,0,0
74648,95,-8198,-235,-2,-2,0,0
74652,94,-8196,-237,-2,-2,0,0
74656,93,-8194,-239,-2,-2,0,0
74662,90,-8193,-241,-2,-2,0,0
74667,90,-8193,-246,-2,-2,0,0
74673,89,-8193,-246,-2,-3,0,0
74678,88,-8192,-246,-2,-3,0,0
74684,85,-8190,-246,-2,-3,0,0
74689,88,-8190,-249,-2,-3,0,0
74695,96,-8190,-249,-2,-3,0,0
74700,105,-8193,-247,-2,-3,0,0
74706,114,-8192,-242,-2,-3,0,0
74712,123,-8193,-243,-2,-3,0,0
74717,132,-8193,-244,-2,-3,0,0
74723,140,-8192,-244,-2,-3,0,0
74728,146,-8191,-247,-2,-2,-1,0
74735,151,-8193,-252,-2,-2,-1,0
74741,153,-8193,-259,-2,-2,-1,0
74746,156,-8192,-269,-2,-2,-1,0
74752,157,-8191,-279,-2,-2,-1,0
74758,156,-8189,-286,-3,-2,-1,0
74764,160,-8189,-294,-3,-2,-1,0
74770,164,-8191,-300,-3,-2,-1,0
74776,167,-8193,-307,-3,-2,-1,0
74782,171,-8192,-314,-3,-2,-1,0
74787,174,-8192,-321,-3,-1,-1,0
74793,183,-8187,-328,-3,-1,-1,0
74799,172,-8184,-288,-3,-2,-1,0
74806,116,-8182,-194,-2,-3,-1,0
74811,39,-8181,-104,-2,-3,0,0
74817,-4,-8181,-54,-2,-2,0,0
74823,-12,-8182,-41,-2,0,0,0
74828,13,-8184,-80,-2,0,0,0
74834,59,-8182,-156,-2,-1,0,0
74839,105,-8183,-241,-2,-1,0,0
74845,144,-8182,-309,-2,-1,0,0
74849,153,-8184,-335,-2,-2,0,0
74853,134,-8185,-317,-3,-3,-1,0
74857,99,-8183,-255,-2,-2,0,0
74861,63,-8180,-180,-2,-1,0,0
74866,43,-8179,-123,-2,-1,0,0
74870,39,-8181,-101,-2,-1,0,0
74874,56,-8184,-120,-2,-1,0,0
74878,82,-8187,-177,-2,-1,0,0
74882,108,-8192,-248,-2,-1,0,0
74886,128,-8194,-310,-2,-1,0,0
74890,127,-8194,-338,-2,-1,0,0
74895,112,-8195,-326,-2,-2,0,0
74899,85,-8193,-287,-2,-2,0,0
74903,57,-8190,-232,-2,-1,0,0
74907,40,-8192,-182,-2,-1,0,0
74911,37,-8193,-154,-2,-1,0,0
74915,49,-8194,-159,-2,-1,0,0
74919,69,-8195,-196,-2,-1,0,0
74923,93,-8196,-250,-2,-1,0,0
74927,108,-8194,-298,-2,-1,0,0
74931,110,-8194,-325,-2,-2,0,0
74935,101,-8191,-326,-2,-2,0,0
74939,86,-8191,-302,-2,-2,0,0
74943,66,-8192,-259,-2,-2,0,0
74947,53,-8192,-216,-2,-1,0,0
74951,50,-8192,-188,-2,-1,0,0
74955,60,-8194,-188,-2,-1,0,1
74959,75,-8195,-216,-2,-1,0,1
74963,91,-8194,-254,-2,-1,0,1
74967,104,-8195,-295,-2,-1,0,1
74971,109,-8194,-317,-2,-1,0,1
74975,108,-8195,-318,-2,-1,0,1
74979,102,-8196,-298,-2,-1,0,1
74983,95,-8196,-259,-2,-1,0,1
74987,90,-8196,-216,-2,-1,0,1
74991,89,-8194,-187,-2,-1,0,1
74995,93,-8190,-178,-2,-1,0,1
74999,100,-8191,-191,-2,-1,0,1
75003,106,-8193,-223,-2,-1,0,1
75007,111,-8194,-259,-2,-2,0,1
75011,112,-8194,-284,-2,-2,0,1
75015,109,-8197,-292,-2,-2,0,1
75019,109,-8196,-277,-2,-1,0,1
75023,102,-8195,-248,-2,-1,0,1
75027,101,-8193,-216,-2,-1,0,1
75031,102,-8193,-195,-2,-1,0,1
75035,105,-8192,-189,-2,-1,0,1
75039,109,-8193,-198,-2,-1,0,1
75043,112,-8193,-220,-2,-1,0,1
75047,114,-8191,-252,-2,-1,0,1
75051,115,-8188,-273,-2,-1,0,1
75055,114,-8190,-282,-2,-1,0,1
75059,106,-8192,-273,-2,-1,0,1
75063,102,-8194,-250,-2,-1,0,1
75067,100,-8191,-225,-2,-1,0,1
75071,101,-8191,-206,-2,-1,0,1
75075,99,-8191,-202,-2,-1,0,1
75079,97,-8191,-205,-2,-1,0,1
75083,99,-8191,-223,-2,-1,0,1
75087,97,-8191,-243,-2,-1,0,1
75091,99,-8192,-256,-2,-1,0,1
75095,97,-8192,-262,-2,-1,0,1
75099,94,-8192,-254,-2,-1,0,1
75103,93,-8193,-238,-2,-1,0,1
75107,88,-8192,-218,-2,-1,0,1
75111,84,-8192,-203,-2,-1,0,1
75115,81,-8194,-194,-2,-1,0,1
75119,81,-8194,-196,-2,-1,0,1
75123,81,-8193,-208,-2,-1,0,1
75127,83,-8194,-224,-2,-1,0,1
75131,81,-8192,-244,-2,-1,0,1
75136,81,-8191,-256,-2,-1,0,1
75142,81,-8194,-254,-2,-1,0,1
75147,83,-8195,-247,-2,-1,0,1
75153,83,-8195,-232,-2,-1,0,1
75158,82,-8191,-211,-2,-1,0,1
75163,85,-8188,-195,-2,-1,0,1
75168,87,-8185,-189,-2,-1,0,1
75173,92,-8184,-192,-2,-1,0,1
75178,98,-8186,-202,-2,-1,0,1
75183,99,-8189,-214,-2,-1,0,1
75188,97,-8190,-226,-2,-1,0,1
75192,93,-8189,-230,-2,-1,0,1
75198,87,-8188,-225,-2,-1,0,1
75203,81,-8187,-213,-2,-1,0,1
75208,80,-8185,-202,-2,-1,0,1
75213,79,-8187,-196,-2,-1,-1,1
75219,81,-8189,-190,-2,-2,-1,1
75224,85,-8189,-191,-2,-2,0,1
75228,92,-8190,-200,-2,-2,0,1
75234,96,-8191,-209,-2,-2,0,1
75239,103,-8193,-221,-2,-2,0,1
75244,107,-8195,-229,-2,-2,0,1
75249,106,-8198,-227,-2,-2,-1,1
75255,102,-8197,-227,-2,-1,0,1
75261,98,-8192,-223,-2,-1,0,1
75267,95,-8192,-218,-2,-1,0,1
75273,95,-8191,-216,-2,-1,0,1
75278,94,-8191,-222,-2,-1,-1,1
75284,93,-8192,-231,-2,-1,-1,1
75290,92,-8193,-244,-2,-1,-1,1
75295,92,-8192,-252,-2,-1,-1,1
75301,95,-8192,-256,-2,-1,-1,1
75307,93,-8191,-254,-2,-1,-1,1
75313,90,-8193,-248,-2,-1,-1,1
75319,87,-8190,-240,-2,-1,-1,1
75325,83,-8190,-233,-2,-1,-1,1
75330,85,-8190,-233,-2,-1,-1,1
75336,89,-8190,-236,-2,-1,-1,1
75342,94,-8189,-240,-2,-1,-1,1
75348,98,-8187,-246,-2,-1,-1,1
75354,101,-8188,-252,-2,-1,-1,1
75360,101,-8189,-254,-2,-1,-1,1
75366,100,-8189,-254,-2,-1,-1,1
75372,100,-8187,-247,-2,-1,-1,1
75378,98,-8189,-240,-2,-1,-1,1
75384,94,-8187,-232,-2,-1,-1,1
75389,95,-8187,-225,-2,-1,-1,1
75394,96,-8187,-225,-2,-1,-1,1
75398,101,-8187,-228,-2,-1,-1,1
75402,105,-8188,-231,-2,-1,-1,1
75407,108,-8189,-231,-2,-1,-1,1
75414,107,-8188,-230,-2,-1,-1,1
75420,107,-8188,-229,-2,-1,-1,1
75426,107,-8190,-220,-2,-1,-1,1
75431,107,-8192,-209,-2,-1,-1,1
75437,108,-8195,-202,-2,-1,-1,1
75443,109,-8193,-200,-2,-1,-1,1
75447,111,-8193,-197,-2,-1,-1,1
75453,112,-8193,-200,-2,-1,0,1
75459,113,-8192,-203,-2,-1,0,1
75464,113,-8191,-208,-2,-1,-1,1
75469,113,-8193,-213,-2,-1,-1,1
75475,116,-8193,-216,-2,-1,-1,1
75481,118,-8193,-215,-2,-1,-1,1
75487,119,-8193,-209,-2,-1,-1,1
75493,121,-8191,-200,-2,-1,-1,1
75499,126,-8190,-197,-2,-1,-1,1
75505,129,-8189,-193,-2,-1,0,1
75510,132,-8188,-198,-2,-1,0,1
75516,135,-8188,-198,-2,-1,0,1
75522,140,-8189,-200,-2,-1,0,1
75528,142,-8190,-199,-2,-1,0,1
75534,144,-8194,-196,-2,-1,0,1
75540,143,-8194,-192,-2,-1,0,1
75545,140,-8194,-189,-2,-1,0,1
75550,140,-8195,-187,-2,-1,0,1
75556,140,-8196,-184,-2,-1,0,1
75561,137,-8195,-182,-2,-1,0,1
75567,133,-8195,-184,-2,0,0,1
75573,130,-8194,-188,-2,0,0,1
75578,132,-8192,-194,-2,0,0,1
75584,131,-8191,-196,-2,0,0,1
75589,130,-8190,-193,-2,0,0,1
75594,129,-8190,-191,-2,0,0,1
75600,127,-8189,-190,-2,0,0,1
75606,123,-8187,-191,-2,0,0,1
75611,120,-8187,-189,-2,0,0,1
75617,119,-8188,-187,-2,0,0,1
75623,117,-8190,-185,-2,0,0,1
75628,118,-8191,-184,-2,0,0,1
75633,120,-8193,-185,-2,0,0,1
75639,123,-8191,-186,-2,0,0,1
75645,125,-8191,-189,-2,0,0,1
75649,124,-8191,-190,-2,-1,0,1
75653,124,-8192,-188,-2,-1,0,1
75657,124,-8190,-186,-2,-1,0,1
75662,126,-8188,-186,-2,-1,0,1
75668,124,-8186,-182,-2,-1,0,1
75673,121,-8186,-182,-2,-1,0,1
75678,122,-8184,-181,-2,-1,0,1
75682,118,-8183,-181,-2,-1,0,1
75688,116,-8181,-188,-2,-1,0,1
75693,110,-8184,-193,-2,-1,0,1
75699,109,-8183,-199,-2,-1,0,1
75705,109,-8183,-194,-2,-1,0,1
75710,107,-8186,-194,-2,-1,0,1
75716,107,-8191,-194,-2,-1,0,1
75722,107,-8192,-194,-2,-1,0,1
75727,111,-8192,-198,-2,-1,0,1
75733,115,-8191,-195,-2,-1,0,1
75739,116,-8191,-194,-2,-1,0,1
75745,117,-8191,-193,-2,-1,0,1
75750,119,-8190,-196,-2,-1,0,1
75756,124,-8188,-203,-2,-1,0,1
75761,128,-8187,-204,-2,-1,0,1
75767,127,-8185,-203,-2,-1,0,1
75773,130,-8187,-201,-2,-1,0,1
75778,130,-8187,-201,-2,-1,0,1
75785,130,-8189,-200,-2,-1,0,1
75790,128,-8188,-201,-2,-1,0,1
75796,122,-8188,-202,-2,-1,0,1
75802,116,-8187,-202,-2,-1,0,1
75807,112,-8189,-201,-2,-1,0,1
75813,109,-8189,-204,-2,-1,0,1
75819,106,-8193,-204,-2,-1,0,1
75825,108,-8195,-200,-2,-1,0,1
75830,112,-8195,-199,-2,-1,0,1
75836,117,-8193,-197,-2,-1,0,1
75842,123,-8189,-202,-2,-1,0,1
75847,126,-8187,-206,-2,-1,0,1
75853,124,-8187,-209,-2,-1,0,1
75859,120,-8188,-208,-2,-1,0,1
75863,114,-8189,-203,-2,-1,0,1
75868,112,-8191,-201,-2,-1,0,1
75873,109,-8193,-201,-2,-1,0,1
75879,108,-8193,-200,-2,-1,0,1
75885,106,-8191,-202,-2,-1,0,1
75890,101,-8190,-202,-2,-1,0,1
75896,99,-8189,-202,-2,-1,0,1
75902,99,-8191,-203,-2,-1,0,1
75907,97,-8191,-202,-2,-1,0,1
75913,97,-8192,-204,-2,-1,0,1
75919,97,-8192,-203,-2,-1,0,1
75924,94,-8194,-204,-2,-1,0,1
75929,93,-8194,-205,-2,-1,0,1
75935,92,-8192,-206,-2,-1,0,1
75941,93,-8192,-211,-2,-1,0,1
75946,94,-8193,-215,-2,-1,0,1
75952,92,-8193,-217,-2,-1,0,1
75958,91,-8192,-219,-2,-1,0,1
75964,90,-8192,-219,-2,-1,0,1
75969,91,-8189,-221,-2,-1,0,1
75975,91,-8188,-219,-2,-1,0,1
75981,93,-8189,-216,-2,-1,0,1
75987,97,-8192,-216,-2,-1,0,1
75992,98,-8191,-216,-2,-1,0,1
75998,97,-8193,-219,-2,-1,0,1
76004,100,-8194,-219,-2,-1,0,1
76009,101,-8196,-220,-2,-1,0,1
76015,101,-8194,-222,-2,-1,0,1
76021,103,-8193,-222,-2,-1,0,1
76027,108,-8191,-223,-2,-1,0,1
76033,111,-8189,-219,-2,-1,0,1
76039,112,-8186,-217,-2,-1,0,1
76045,113,-8185,-211,-2,-1,0,1
76049,116,-8185,-211,-2,0,0,1
76055,120,-8185,-212,-2,0,0,1
76060,120,-8184,-219,-2,0,0,1
76066,120,-8185,-217,-2,0,0,1
76071,126,-8185,-211,-2,0,0,1
76076,128,-8183,-213,-2,0,0,1
76082,131,-8181,-212,-2,0,0,1
76087,132,-8181,-205,-2,0,0,1
76093,128,-8185,-203,-2,0,0,1
76098,123,-8185,-202,-2,0,0,1
76104,120,-8185,-198,-2,0,0,1
76108,119,-8188,-193,-2,0,0,1
76112,117,-8189,-189,-2,0,0,1
76116,115,-8191,-191,-2,0,0,1
76120,111,-8192,-194,-2,0,0,1
76124,111,-8193,-193,-2,0,0,1
76128,110,-8192,-189,-2,0,0,1
76132,109,-8192,-184,-2,0,0,1
76136,107,-8194,-185,-2,0,0,1
76140,102,-8195,-185,-2,0,0,1
76144,102,-8195,-183,-2,0,0,1
76148,102,-8196,-183,-2,0,0,1
76152,101,-8197,-181,-2,0,0,1
76156,101,-8194,-186,-2,0,0,1
76160,99,-8191,-189,-2,0,0,1
76164,98,-8190,-188,-2,0,0,1
76168,96,-8194,-189,-2,0,0,1
76172,91,-8192,-187,-2,0,0,1
76176,87,-8191,-185,-2,0,0,1
76180,85,-8191,-184,-2,0,0,1
76184,84,-8191,-185,-2,0,0,1
76188,81,-8191,-184,-2,0,0,1
76192,80,-8188,-179,-2,0,0,1
76196,78,-8188,-180,-2,0,0,1
76200,72,-8188,-181,-2,0,0,1
76204,70,-8188,-180,-2,0,0,1
76208,65,-8189,-187,-2,0,0,1
76212,62,-8193,-188,-2,0,0,1
76216,65,-8195,-191,-2,0,0,1
76220,69,-8195,-190,-2,0,0,1
76224,72,-8195,-189,-2,0,0,1
76228,76,-8194,-187,-2,0,0,1
76232,79,-8195,-191,-2,-1,0,1
76236,77,-8195,-192,-2,-1,0,1
76240,72,-8193,-192,-2,-1,0,1
76244,70,-8193,-195,-2,-1,0,1
76248,65,-8194,-199,-2,0,0,1
76252,63,-8195,-199,-2,0,0,1
76256,63,-8193,-199,-2,0,0,1
76260,64,-8190,-201,-2,0,0,1
76264,66,-8192,-199,-2,0,0,1
76268,69,-8191,-201,-2,0,0,1
76272,67,-8190,-201,-2,0,0,1
76276,63,-8190,-204,-2,0,0,1
76280,60,-8187,-204,-2,0,0,1
76284,58,-8186,-203,-2,0,0,1
76288,57,-8186,-208,-2,-1,0,1
76292,56,-8184,-215,-2,-1,0,1
76296,56,-8186,-218,-2,-1,0,1
76300,53,-8188,-223,-2,-1,0,1
76304,52,-8191,-223,-2,-1,0,1
76308,51,-8193,-224,-2,-1,0,1
76312,48,-8193,-221,-2,-1,0,1
76316,48,-8193,-217,-2,-1,0,1
76320,51,-8194,-214,-2,-1,0,1
76324,55,-8195,-208,-2,-1,0,1
76328,57,-8193,-202,-2,-1,0,1
76332,60,-8191,-203,-2,-1,0,1
76336,58,-8192,-210,-2,-1,0,1
76340,57,-8192,-219,-2,-1,0,1
76344,54,-8192,-223,-2,-1,0,1
76348,55,-8191,-223,-2,-1,0,1
76352,58,-8188,-216,-2,-1,0,1
76356,60,-8189,-208,-2,-1,0,1
76360,61,-8189,-198,-2,-1,0,1
76364,63,-8188,-187,-2,-1,0,1
76368,65,-8189,-184,-2,-1,0,1
76372,67,-8189,-185,-2,-1,0,1
76376,65,-8186,-186,-2,-2,0,1
76380,62,-8187,-189,-2,-2,0,1
76384,55,-8185,-194,-2,-2,0,1
76388,47,-8185,-193,-2,-2,0,1
76392,36,-8184,-191,-2,-2,0,1
76396,26,-8185,-188,-2,-2,0,1
76400,20,-8187,-185,-2,-2,0,1
76404,15,-8189,-179,-2,-2,0,1
76408,13,-8191,-174,-2,-2,0,1
76412,15,-8194,-171,-2,-3,-1,1
76418,15,-8193,-170,-2,-3,-1,1
76424,12,-8193,-171,-2,-3,-1,1
76429,10,-8194,-178,-2,-3,-1,1
76435,2,-8195,-181,-2,-2,-1,1
76440,-19,-8195,-171,-2,-1,-1,1
76446,-20,-8194,-157,-2,0,-1,1
76450,-17,-8194,-141,-2,0,-1,1
76456,-23,-8194,-127,-2,-2,-1,1
76462,-35,-8194,-130,-2,-2,-1,1
76468,-51,-8193,-129,-2,-2,-1,1
76473,-61,-8192,-132,-2,-1,-1,1
76478,-75,-8193,-138,-2,-1,-1,1
76484,-93,-8192,-136,-2,-1,-1,1
76489,-107,-8189,-128,-2,0,-1,1
76495,-110,-8187,-113,-2,2,-1,1
76500,-111,-8188,-91,-2,3,-1,1
76505,-119,-8188,-60,-2,4,-1,1
76510,-125,-8189,-24,-3,7,-1,1
76515,-121,-8190,-3,-3,9,-1,1
76520,-104,-8189,6,-3,9,-1,1
76526,-69,-8192,9,-2,8,-1,1
76531,-34,-8197,1,-2,4,-1,1
76536,9,-8198,-26,-2,-1,-1,1
76542,46,-8193,-69,-2,-4,-1,1
76547,66,-8192,-102,-2,-6,-1,1
76553,92,-8196,-131,-3,-6,-1,1
76559,104,-8197,-147,-3,-6,-1,1
76565,113,-8195,-154,-3,-7,-2,1
76570,110,-8193,-162,-3,-8,-2,1
76575,95,-8192,-168,-2,-8,-2,1
76581,87,-8192,-183,-2,-8,-2,1
76587,71,-8190,-202,-2,-8,-1,1
76592,66,-8189,-226,-2,-7,-1,1
76598,63,-8189,-243,-2,-7,-1,1
76603,66,-8190,-258,-2,-7,-1,1
76609,76,-8190,-271,-2,-7,-1,1
76614,82,-8191,-277,-2,-7,-1,1
76620,87,-8191,-277,-2,-7,-1,1
76626,85,-8191,-276,-2,-7,-2,1
76631,80,-8190,-275,-2,-6,-2,1
76637,74,-8188,-275,-2,-6,-2,1
76643,70,-8188,-276,-2,-6,-1,1
76647,72,-8190,-281,-2,-5,-1,1
76651,80,-8192,-289,-2,-5,-1,1
76656,92,-8193,-291,-2,-4,-1,1
76660,110,-8192,-291,-2,-4,-1,1
76666,128,-8188,-292,-2,-4,-1,1
76670,141,-8187,-294,-2,-4,-1,1
76675,149,-8189,-289,-2,-4,-1,1
76681,153,-8188,-283,-2,-4,-1,1
76686,152,-8188,-279,-2,-4,-1,1
76691,150,-8189,-277,-2,-4,-1,1
76697,151,-8190,-274,-2,-4,-1,1
76703,159,-8192,-268,-2,-3,-1,1
76708,168,-8191,-267,-2,-3,-1,1
76713,182,-8191,-261,-2,-2,-1,1
76718,199,-8192,-254,-2,-2,-1,1
76724,213,-8193,-248,-2,-2,-1,1
76729,222,-8192,-247,-2,-1,-1,1
76734,224,-8191,-240,-2,-1,-1,1
76740,223,-8191,-232,-2,-1,-1,1
76746,218,-8192,-233,-2,-1,-1,1
76751,209,-8196,-232,-2,-1,-1,1
76757,200,-8197,-231,-2,-1,-1,1
76763,194,-8194,-229,-2,-1,-1,1
76769,192,-8190,-229,-2,-1,-1,1
76775,193,-8192,-227,-2,-1,-1,1
76780,191,-8191,-221,-2,-1,-1,1
76787,184,-8193,-219,-2,-1,-1,1
76792,175,-8193,-213,-2,-1,-1,1
76797,168,-8192,-209,-2,-1,-1,1
76804,165,-8192,-209,-2,-1,-1,1
76809,163,-8191,-211,-2,-1,-1,1
76815,161,-8188,-218,-2,-1,-1,1
76822,160,-8186,-221,-2,-1,-1,1
76827,162,-8186,-227,-2,-1,-1,1
76832,165,-8186,-233,-2,-1,-1,1
76838,171,-8184,-234,-2,-1,-1,1
76845,173,-8186,-230,-2,-2,-1,1
76850,173,-8186,-224,-2,-2,-1,1
76856,168,-8188,-214,-2,-2,-1,1
76862,165,-8186,-206,-2,-2,-1,1
76868,164,-8187,-205,-2,-2,-1,1
76874,164,-8188,-206,-2,-2,-1,1
76880,164,-8191,-213,-2,-2,-1,1
76886,163,-8191,-212,-2,-2,-1,1
76892,165,-8191,-214,-2,-2,-1,1
76898,165,-8191,-212,-2,-2,-1,1
76904,160,-8190,-209,-2,-2,-1,1
76909,157,-8190,-200,-2,-2,-1,1
76916,152,-8191,-193,-2,-2,-1,1
76922,148,-8190,-186,-2,-2,0,1
76927,147,-8189,-182,-2,-1,0,1
76933,153,-8188,-181,-2,-1,0,1
76939,154,-8188,-188,-2,-1,0,1
76945,157,-8192,-194,-2,-1,0,1
76950,157,-8193,-192,-2,-1,0,1
76956,155,-8193,-191,-2,-1,-1,1
76962,152,-8197,-190,-2,-1,0,1
76967,147,-8197,-189,-2,-1,0,1
76973,149,-8194,-185,-2,-1,0,1
76979,150,-8193,-181,-2,-1,0,1
76985,150,-8194,-175,-2,-1,0,0
76990,149,-8194,-174,-2,-1,0,0
76995,147,-8191,-174,-2,-1,0,0
77001,144,-8191,-174,-2,-1,0,0
77007,140,-8192,-171,-2,-1,0,0
77012,140,-8194,-171,-2,-1,0,0
77018,140,-8196,-166,-2,-1,0,0
77024,137,-8195,-158,-2,-1,0,0
77029,140,-8194,-153,-2,-1,0,0
77035,147,-8195,-149,-2,-2,0,0
77041,157,-8196,-145,-2,-2,0,0
77046,162,-8199,-144,-2,-2,0,0
77052,166,-8198,-146,-2,-2,0,0
77058,167,-8194,-153,-2,-2,0,0
77063,161,-8195,-154,-2,-2,0,0
77069,157,-8192,-156,-2,-2,0,0
77074,152,-8195,-160,-2,-2,0,0
77080,146,-8194,-158,-2,-2,0,0
77085,141,-8193,-162,-2,-2,0,0
77091,137,-8194,-160,-2,-2,0,0
77096,134,-8193,-163,-2,-2,0,0
77102,129,-8191,-166,-2,-2,0,0
77108,127,-8190,-169,-2,-2,0,0
77113,123,-8188,-172,-2,-2,0,0
77119,121,-8189,-173,-2,-2,0,0
77125,120,-8192,-179,-2,-2,0,0
77130,119,-8193,-185,-2,-2,0,0
77136,122,-8194,-189,-2,-2,0,0
77142,126,-8194,-188,-2,-2,0,0
77148,127,-8195,-195,-2,-2,0,0
77154,128,-8197,-200,-2,-2,0,0
77159,129,-8195,-198,-2,-2,0,0
77165,131,-8192,-194,-2,-2,0,0
77170,131,-8190,-189,-2,-2,0,0
77176,132,-8190,-188,-2,-2,0,0
77182,131,-8189,-191,-2,-2,0,0
77188,130,-8195,-195,-2,-2,0,0
77193,128,-8196,-197,-2,-2,0,0
77199,127,-8197,-200,-2,-2,0,0
77205,127,-8198,-197,-2,-2,0,0
77209,128,-8197,-192,-2,-2,0,0
77215,129,-8195,-188,-2,-2,0,0
77221,132,-8191,-186,-2,-2,0,0
77227,134,-8191,-188,-2,-2,0,0
77231,136,-8187,-187,-2,-2,0,0
77237,134,-8188,-185,-2,-1,0,0
77243,135,-8190,-187,-2,-1,0,0
77249,134,-8187,-185,-2,-1,0,0
77255,131,-8187,-187,-2,-1,0,0
77261,133,-8189,-190,-2,-1,0,0
77266,136,-8190,-189,-2,-1,0,0
77271,141,-8191,-189,-2,-1,0,0
77277,144,-8191,-183,-2,-1,0,0
77283,143,-8192,-182,-2,-1,0,0
77288,146,-8193,-175,-2,-1,0,0
77294,148,-8192,-166,-2,-1,0,0
77300,147,-8192,-161,-2,-1,0,0
77306,145,-8194,-159,-2,-1,0,0
77311,147,-8192,-157,-2,-1,0,0
77316,150,-8193,-160,-2,-1,0,0
77322,151,-8193,-159,-2,-1,0,0
77327,151,-8191,-159,-2,-1,0,0
77332,141,-8191,-157,-2,-1,0,0
77338,138,-8194,-152,-2,-1,0,0
77344,131,-8194,-151,-2,-1,0,0
77349,128,-8198,-151,-2,-2,0,0
77355,128,-8202,-151,-2,-2,0,0
77361,126,-8201,-146,-2,-2,0,0
77366,126,-8197,-141,-2,-2,0,0
77370,122,-8197,-144,-2,-2,0,0
77375,119,-8194,-147,-2,-2,0,0
77379,114,-8193,-149,-2,-2,0,0
77383,108,-8193,-152,-2,-2,0,0
77388,103,-8192,-153,-2,-2,0,0
77392,100,-8191,-150,-2,-2,0,0
77396,100,-8188,-150,-2,-2,0,0
77400,104,-8185,-152,-2,-2,0,0
77404,107,-8186,-155,-2,-2,0,0
77408,108,-8188,-161,-2,-2,0,0
77412,108,-8186,-173,-2,-2,0,0
77417,107,-8186,-183,-2,-2,0,0
77421,109,-8185,-187,-2,-2,0,0
77425,109,-8184,-192,-2,-2,0,0
77429,112,-8185,-195,-2,-2,0,0
77433,115,-8185,-197,-2,-2,0,0
77437,118,-8185,-196,-2,-2,0,0
77441,117,-8186,-195,-2,-2,0,0
77445,119,-8188,-194,-2,-2,0,0
77449,118,-8189,-195,-2,-2,0,0
77453,113,-8192,-195,-2,-2,0,0
77457,110,-8194,-198,-2,-2,0,0
77461,110,-8194,-198,-2,-2,0,0
77465,108,-8194,-194,-2,-2,0,0
77469,106,-8194,-192,-2,-1,0,0
77473,104,-8194,-190,-2,-1,0,0
77477,103,-8194,-189,-2,-2,0,0
77481,103,-8194,-184,-2,-1,0,0
77485,106,-8193,-182,-2,-1,0,0
77489,110,-8193,-182,-2,-1,0,0
77493,116,-8193,-177,-2,-1,0,0
77497,120,-8193,-172,-2,-2,0,0
77501,124,-8193,-170,-2,-2,0,0
77505,126,-8193,-173,-2,-2,0,0
77509,125,-8197,-175,-2,-2,0,0
77513,121,-8195,-181,-2,-2,0,0
77517,115,-8194,-192,-2,-2,0,0
77521,110,-8196,-196,-2,-2,0,0
77525,109,-8197,-201,-2,-2,0,0
77529,104,-8195,-202,-2,-2,0,0
77533,98,-8196,-202,-2,-2,0,0
77537,93,-8197,-203,-2,-2,0,0
77541,84,-8195,-203,-2,-1,0,0
77545,79,-8192,-204,-2,-1,0,0
77549,74,-8192,-209,-2,-1,0,0
77553,72,-8191,-215,-2,-1,0,0
77557,72,-8190,-219,-2,-1,0,0
77561,77,-8188,-218,-2,-1,0,0
77565,81,-8190,-217,-2,-1,0,0
77569,82,-8192,-213,-2,-1,0,0
77573,82,-8194,-208,-2,-1,0,0
77577,83,-8193,-200,-2,-1,0,0
77581,87,-8194,-192,-2,-1,0,0
77585,92,-8195,-192,-2,-1,0,0
77589,91,-8194,-193,-2,-1,0,0
77593,91,-8195,-191,-2,-1,0,0
77597,95,-8197,-189,-2,-1,-1,0
77602,98,-8198,-192,-2,-1,0,0
77606,97,-8197,-192,-2,-1,-1,0
77610,95,-8198,-192,-2,-1,-1,0
77614,88,-8200,-191,-2,-1,-1,0
77618,86,-8198,-186,-2,-1,-1,0
77622,83,-8196,-186,-2,-1,-1,0
77626,77,-8195,-189,-2,-1,-1,0
77631,74,-8198,-193,-2,-1,-1,0
77635,72,-8198,-199,-2,-1,-1,0
77639,72,-8197,-201,-2,-1,-1,0
77643,68,-8198,-201,-2,-1,-1,0
77647,65,-8200,-200,-2,-1,-1,0
77651,61,-8199,-194,-2,-1,-1,0
77656,53,-8196,-192,-2,-1,-1,0
77660,43,-8195,-198,-2,-1,-1,0
77664,32,-8193,-203,-2,-1,-1,0
77669,18,-8194,-203,-2,-1,-1,0
77674,0,-8197,-205,-2,-1,-1,0
77679,-30,-8199,-207,-2,0,-1,0
77685,-63,-8200,-214,-2,1,-1,0
77691,-99,-8202,-215,-2,2,-1,0
77696,-139,-8205,-218,-2,4,-1,0
77701,-182,-8202,-225,-2,7,-1,0
77707,-229,-8203,-229,-2,12,-1,0
77711,-259,-8203,-229,-2,17,-2,0
77716,-289,-8199,-236,-2,21,-2,0
77720,-317,-8198,-240,-2,26,-1,0
77725,-338,-8200,-242,-2,30,-1,0
77730,-357,-8205,-263,-2,37,-1,0
77735,-347,-8208,-257,-2,41,-2,0
77740,-320,-8186,-275,-2,41,-2,0
77745,-314,-8192,-301,-2,30,-3,0
77750,-250,-8201,-238,-2,17,-3,0
77756,-321,-8195,-271,-2,16,-2,0
77761,-397,-8197,-202,-2,16,-3,0
77766,-425,-8198,-183,-2,17,-4,0
77770,-468,-8198,-152,-2,14,-4,0
77775,-525,-8201,-94,-2,5,-4,0
77781,-595,-8202,-93,-2,-6,-5,0
77787,-645,-8201,-98,-2,-14,-5,0
77792,-652,-8199,-173,-1,-16,-5,0
77797,-638,-8196,-289,-1,-10,-4,0
77803,-538,-8191,-443,-1,2,-4,0
77809,-387,-8186,-626,-1,14,-4,0
77815,-228,-8183,-778,-1,26,-4,0
77821,-70,-8176,-913,-1,38,-4,0
77826,40,-8173,-1010,-1,54,-4,0
77830,111,-8171,-1104,-1,78,-3,0
77835,121,-8171,-1211,0,112,-2,0
77840,101,-8171,-1251,0,150,-1,0
77845,167,-8178,-1224,0,180,-1,0
77850,353,-8186,-1164,-1,199,0,0
77855,603,-8304,-1098,-1,202,1,0
77860,883,-8595,-992,0,189,2,0
77864,1217,-9021,-873,1,162,2,0
77869,1533,-9533,-782,1,131,2,0
77873,1757,-10091,-676,2,101,2,0
77878,1342,-10659,-373,1,74,0,0
77883,739,-11150,-193,0,41,-5,0
77889,135,-11547,146,1,27,-6,0
77894,-124,-11826,275,0,37,-6,0
77899,-185,-11981,220,1,54,-5,0
77905,0,-12012,6,1,57,-5,0
77910,200,-11941,-81,1,58,-6,0
77915,380,-11771,-223,0,61,-7,0
77921,499,-11537,-333,0,69,-6,0
77927,497,-11247,-393,0,79,-5,0
77931,512,-10910,-429,1,90,-5,0
77937,467,-10538,-439,1,102,-4,0
77942,465,-10153,-426,1,110,-3,0
77947,475,-9773,-432,2,112,-3,0
77952,469,-9406,-429,2,111,-3,0
77957,477,-9048,-442,2,105,-3,0
77963,485,-8692,-446,3,99,-3,0
77968,475,-8338,-437,3,92,-3,0
77973,451,-7971,-412,3,86,-2,0
77978,423,-7599,-360,4,82,-2,0
77984,396,-7218,-309,4,81,-2,0
77989,371,-6834,-233,3,80,-2,0
77995,363,-6450,-147,3,78,-2,0
78000,377,-6065,-53,3,77,-2,0
78006,402,-5679,66,3,75,-1,0
78010,470,-5294,205,2,72,-1,0
78016,568,-4909,363,1,67,-1,0
78021,667,-4530,509,0,60,0,0
78026,759,-4154,634,-1,49,0,0
78031,808,-3783,753,-2,35,0,0
78036,769,-3407,856,-3,20,0,0
78041,707,-3056,958,-4,6,0,0
78046,615,-2725,1025,-5,-8,-1,0
78051,500,-2418,1089,-6,-19,-1,0
78057,320,-2146,1168,-6,-25,-1,0
78063,181,-1898,1217,-8,-27,-1,0
78069,63,-1668,1270,-9,-25,-1,0
78075,-2,-1461,1309,-10,-24,-1,0
78080,-37,-1275,1332,-12,-23,-2,0
78086,-52,-1113,1335,-13,-24,-2,0
78092,-45,-1009,1282,-14,-27,-2,0
78098,-46,-1012,1128,-14,-34,-3,0
78104,-26,-1184,818,-14,-45,-3,0
78110,-18,-1590,339,-13,-57,-3,0
78116,-30,-2280,-182,-12,-64,-4,0
78122,-83,-3269,-636,-9,-61,-4,0
78128,-94,-4552,-947,-7,-44,-4,0
78134,-1,-6241,-1787,-4,-17,-1,0
78140,283,-7506,-3350,-11,-23,1,0
78146,176,-7154,-2808,-5,-67,-3,0
78151,-69,-7338,-2436,-2,-103,-5,0
78157,-334,-7605,-2254,-1,-73,-5,0
78163,-462,-7950,-2028,0,20,-1,0
78169,-324,-8296,-1847,-2,112,3,0
78174,-111,-8627,-1651,-4,158,6,0
78180,144,-9099,-1542,-4,154,5,0
78185,373,-9551,-1434,-3,124,3,0
78190,487,-9894,-1401,-1,84,1,0
78195,415,-10141,-1388,0,42,-1,0
78201,284,-10269,-1373,1,5,-1,0
78207,104,-10279,-1343,1,-13,-2,0
78210,-68,-10179,-1300,1,-15,-1,0
78216,-97,-9985,-1190,1,-5,-1,0
78223,-91,-9725,-1060,1,12,-1,0
78228,-7,-9418,-939,1,24,-1,0
78233,67,-9091,-830,1,31,0,0
78238,157,-8754,-714,1,30,1,0
78244,178,-8419,-567,1,28,1,0
78249,214,-8084,-421,0,26,1,0
78255,172,-7746,-284,0,26,2,0
78260,140,-7399,-162,0,25,2,0
78265,91,-7037,-72,-1,25,2,0
78270,60,-6658,5,-1,25,2,0
78276,25,-6260,81,-2,25,2,0
78281,21,-5844,168,-3,24,2,0
78286,5,-5411,274,-3,22,2,0
78291,-7,-4963,378,-4,18,2,0
78296,-18,-4503,480,-5,12,2,0
78302,-24,-4027,605,-6,5,2,0
78308,-20,-3533,746,-7,-3,2,0
78313,-28,-3016,901,-8,-11,1,0
78319,-26,-2484,1032,-9,-20,1,0
78324,-9,-1942,1152,-11,-27,1,0
78330,-2,-1402,1228,-12,-35,0,0
78336,23,-879,1282,-14,-43,0,0
78342,80,-408,1296,-15,-50,-1,0
78347,161,3,1260,-17,-57,-1,0
78352,245,350,1188,-17,-65,-1,0
78358,334,613,1078,-18,-74,-1,0
78363,428,768,908,-17,-83,-1,0
78369,471,770,703,-16,-90,0,0
78373,466,589,348,-15,-97,1,0
78379,96,-1835,-784,-4,-103,2,0
78385,-293,-1061,-1626,-22,-154,1,0
78391,-465,-80,-789,-8,-187,-1,0
78397,-403,938,-1070,-9,-171,-3,0
78403,-284,1889,-912,-7,-133,-3,0
78409,-372,-721,-1050,-5,-67,-1,0
78414,-208,-1375,-1614,-7,-17,2,0
78420,68,-2465,-1054,-6,14,3,0
78425,72,-2593,-1409,-8,51,5,0
78430,131,-3117,-1199,-8,70,4,0
78436,202,-3737,-917,-8,94,3,0
78441,205,-4400,-792,-6,108,1,0
78446,211,-5017,-591,-4,102,0,0
78450,139,-5535,-542,-4,84,-1,0
78454,109,-5948,-498,-4,60,-1,0
78458,81,-6278,-418,-4,38,-1,0
78463,-1,-6544,-389,-4,21,0,0
78468,-167,-6767,-313,-3,7,1,0
78473,-351,-6959,-298,-3,-3,1,0
78478,-415,-7132,-351,-3,-9,0,0
78484,-424,-7282,-393,-3,-12,-1,0
78490,-439,-7409,-497,-3,-14,0,0
78496,-377,-7518,-559,-3,-15,0,0
78503,-268,-7613,-618,-3,-11,0,0
78509,-126,-7694,-649,-3,-7,0,0
78514,53,-7761,-649,-3,-4,-1,0
78520,173,-7821,-634,-3,-5,-1,0
78526,273,-7876,-577,-3,-11,-1,0
78531,356,-7924,-546,-3,-15,-1,0
78537,374,-7963,-504,-3,-19,-1,0
78544,385,-7998,-467,-3,-22,-1,0
78549,355,-8023,-449,-3,-23,-1,0
78555,312,-8046,-440,-3,-23,-1,0
78561,288,-8066,-478,-2,-23,-1,0
78568,240,-8082,-508,-3,-20,0,0
78572,217,-8095,-546,-3,-18,0,0
78578,189,-8106,-586,-3,-15,0,0
78584,168,-8115,-592,-3,-12,0,0
78590,171,-8125,-608,-3,-10,0,0
78595,159,-8132,-612,-3,-7,0,0
78600,163,-8137,-622,-3,-5,0,0
78605,156,-8145,-623,-3,-4,0,0
78610,150,-8150,-620,-3,-4,0,0
78614,150,-8153,-624,-2,-3,0,0
78618,141,-8159,-620,-2,-3,0,0
78622,147,-8163,-630,-2,-3,0,0
78626,132,-8165,-638,-2,-2,0,0
78630,119,-8167,-634,-2,-3,0,0
78636,120,-8170,-641,-2,-3,0,0
78641,118,-8172,-622,-2,-3,0,0
78646,135,-8175,-614,-2,-3,0,0
78651,151,-8175,-597,-2,-3,0,0
78655,166,-8176,-576,-2,-5,0,0
78659,182,-8176,-567,-2,-7,0,0
78663,196,-8177,-553,-2,-9,0,0
78667,218,-8178,-543,-2,-11,-1,0
78671,233,-8177,-533,-2,-13,-1,0
78676,237,-8176,-527,-2,-14,-1,0
78680,235,-8181,-514,-2,-15,-1,0
78684,223,-8182,-509,-2,-16,-1,0
78688,213,-8182,-503,-2,-16,-1,0
78693,199,-8184,-487,-2,-16,-1,0
78697,192,-8185,-476,-2,-15,-1,0
78701,180,-8186,-458,-2,-14,-1,0
78705,174,-8183,-448,-2,-14,-1,0
78710,185,-8181,-455,-2,-13,-1,0
78714,187,-8183,-464,-2,-12,-1,0
78718,196,-8183,-481,-2,-12,-1,0
78722,194,-8182,-498,-2,-13,-1,0
78727,175,-8182,-506,-2,-13,-1,0
78731,153,-8183,-519,-2,-13,-1,0
78735,120,-8188,-530,-2,-12,-1,0
78739,93,-8192,-538,-2,-9,-1,0
78744,67,-8191,-547,-2,-7,-1,0
78748,51,-8189,-558,-2,-4,-1,0
78752,42,-8186,-560,-2,-2,-1,0
78756,39,-8186,-563,-2,-1,-1,0
78760,54,-8188,-569,-2,0,-1,0
78764,66,-8191,-563,-2,0,-1,0
78768,70,-8189,-565,-2,0,-1,0
78772,79,-8190,-553,-2,0,-1,0
78776,81,-8191,-539,-2,-1,-1,0
78780,86,-8188,-534,-2,-1,-1,0
78785,99,-8186,-521,-2,-1,-1,0
78789,112,-8184,-509,-2,-1,-1,0
78793,128,-8186,-509,-2,-2,-1,0
78797,152,-8186,-493,-2,-1,-1,0
78801,180,-8186,-488,-2,-2,-1,0
78805,207,-8187,-480,-2,-2,-1,0
78810,229,-8185,-472,-2,-2,-1,0
78814,235,-8185,-477,-2,-3,-1,0
78818,233,-8184,-483,-2,-3,-1,0
78822,222,-8185,-493,-2,-3,-1,0
78826,205,-8186,-500,-2,-3,-1,0
78830,200,-8185,-504,-2,-2,-1,0
78835,197,-8186,-507,-2,-1,-1,0
78839,191,-8186,-509,-2,-2,-1,0
78843,192,-8186,-521,-2,-2,-1,0
78847,187,-8186,-521,-2,-1,-1,0
78851,180,-8187,-528,-2,-1,-1,0
78855,177,-8189,-534,-2,-1,-1,0
78859,168,-8192,-536,-2,-1,-1,0
78864,158,-8193,-551,-2,-1,-1,0
78868,149,-8192,-556,-2,0,-1,0
78872,137,-8192,-554,-2,0,-1,0
78876,134,-8192,-546,-2,0,-1,0
78880,147,-8191,-531,-2,1,-1,0
78884,163,-8189,-510,-2,2,-1,0
78888,182,-8189,-492,-2,2,-1,0
78892,201,-8189,-476,-2,2,-1,0
78896,223,-8190,-458,-2,2,-1,0
78900,247,-8189,-449,-2,1,-1,0
78904,268,-8188,-440,-2,1,-1,0
78908,282,-8190,-428,-2,1,-1,0
78912,293,-8188,-425,-2,1,-1,0
78916,298,-8189,-414,-2,1,-1,0
78922,303,-8189,-401,-2,0,-1,0
78927,309,-8188,-395,-2,-1,-1,0
78932,315,-8190,-386,-2,-1,-1,0
78938,317,-8192,-373,-2,-2,-1,0
78944,319,-8188,-373,-2,-2,-1,0
78949,312,-8188,-376,-2,-1,-1,0
78954,300,-8186,-392,-2,-2,-1,0
78960,292,-8187,-415,-2,-1,-1,0
78966,281,-8184,-434,-2,0,-1,0
78971,265,-8183,-453,-2,0,-1,0
78976,248,-8183,-474,-2,1,-1,0
78982,225,-8183,-481,-2,3,-1,0
78987,207,-8186,-487,-2,5,-1,0
78992,197,-8189,-486,-2,7,-1,0
78997,188,-8190,-476,-2,9,-1,0
79002,185,-8191,-469,-2,9,-1,0
79007,191,-8191,-461,-2,10,-1,0
79012,198,-8191,-455,-2,10,-1,0
79018,212,-8190,-456,-2,9,-1,0
79023,229,-8191,-457,-2,9,-1,0
79029,245,-8191,-448,-2,7,-1,0
79034,259,-8191,-443,-2,6,-1,0
79039,271,-8193,-435,-2,5,-1,0
79045,280,-8194,-427,-2,4,-1,0
79051,293,-8192,-430,-2,3,-1,0
79057,304,-8188,-428,-2,2,-1,0
79062,310,-8186,-428,-2,2,-1,0
79068,311,-8189,-433,-2,1,-1,0
79073,311,-8191,-432,-2,2,-1,0
79079,307,-8188,-431,-2,2,-1,0
79085,306,-8189,-431,-2,2,-1,0
79091,306,-8192,-431,-2,3,-1,0
79096,298,-8195,-428,-2,3,-1,0
79102,293,-8197,-423,-2,3,-1,0
79108,287,-8198,-421,-2,3,-1,0
79112,284,-8196,-423,-2,2,-1,0
79118,285,-8193,-430,-2,2,-1,0
79124,283,-8191,-436,-2,1,-1,0
79129,280,-8190,-438,-2,1,-1,0
79134,284,-8191,-443,-2,0,-1,0
79140,281,-8193,-443,-2,-1,-1,0
79146,276,-8195,-437,-2,-1,-1,0
79152,279,-8197,-438,-2,-2,-1,0
79158,273,-8195,-434,-2,-2,-1,0
79163,272,-8195,-434,-2,-2,-1,0
79169,279,-8194,-439,-2,-1,-1,0
79175,286,-8196,-442,-2,-1,-1,0
79180,291,-8197,-451,-2,-1,-1,0
79186,302,-8196,-459,-2,0,-1,0
79191,302,-8194,-454,-2,1,-1,0
79197,296,-8193,-447,-2,1,-1,0
79203,286,-8194,-432,-2,3,-1,0
79209,267,-8193,-414,-2,4,-1,0
79213,260,-8193,-403,-2,5,-1,0
79219,259,-8193,-384,-2,6,-1,0
79225,261,-8196,-369,-2,5,-1,0
79231,271,-8194,-366,-2,5,-1,0
79237,285,-8193,-360,-2,5,-1,0
79242,305,-8193,-358,-2,5,-1,0
79248,329,-8192,-357,-2,5,-1,0
79253,344,-8193,-353,-2,4,-1,0
79259,357,-8194,-351,-2,3,-1,0
79265,359,-8195,-349,-2,3,-1,0
79271,356,-8194,-348,-2,2,-1,0
79277,355,-8194,-346,-2,2,-1,0
79282,358,-8191,-352,-2,1,-1,0
79288,357,-8193,-359,-2,1,-1,0
79293,357,-8195,-374,-2,0,-1,0
79299,362,-8194,-394,-2,0,-1,0
79305,364,-8194,-409,-3,0,-1,0
79310,367,-8195,-426,-3,1,-1,0
79316,373,-8194,-435,-3,1,-1,0
79322,373,-8196,-437,-3,2,-1,0
79328,369,-8193,-440,-3,2,-1,0
79333,365,-8194,-439,-3,3,-1,0
79339,362,-8195,-437,-3,4,0,0
79344,364,-8192,-438,-3,4,0,0
79350,372,-8191,-436,-3,4,0,0
79354,384,-8190,-434,-3,4,0,0
79360,399,-8190,-436,-3,4,0,0
79366,412,-8188,-432,-3,3,0,0
79371,423,-8188,-430,-3,3,0,0
79377,434,-8188,-431,-3,2,0,0
79382,443,-8190,-433,-3,2,0,0
79388,448,-8191,-439,-3,1,0,0
79393,448,-8192,-445,-3,1,0,0
79398,448,-8193,-457,-2,0,0,0
79404,442,-8194,-469,-2,0,0,0
79409,441,-8191,-481,-2,0,0,0
79413,443,-8190,-488,-2,0,0,0
79419,441,-8189,-496,-2,0,0,0
79425,437,-8186,-508,-2,0,0,0
79430,433,-8183,-517,-2,0,0,0
79434,428,-8179,-527,-2,1,0,0
79440,420,-8177,-544,-2,2,0,0
79445,407,-8175,-560,-2,2,0,0
79451,391,-8177,-573,-2,3,0,0
79456,377,-8180,-581,-2,4,0,0
79462,364,-8180,-582,-2,5,0,0
79468,351,-8180,-583,-2,5,0,0
79472,348,-8180,-578,-2,6,0,0
79478,341,-8183,-575,-2,6,0,0
79484,333,-8184,-570,-2,5,0,0
79489,328,-8184,-569,-2,5,0,0
79493,317,-8183,-567,-2,4,0,0
79499,310,-8183,-568,-2,4,0,0
79505,305,-8185,-574,-2,4,0,0
79510,298,-8185,-571,-2,3,0,0
79514,295,-8183,-566,-2,2,0,0
79520,290,-8182,-560,-2,2,0,0
79525,283,-8182,-555,-2,1,0,0
79530,276,-8183,-552,-2,1,0,0
79536,273,-8187,-549,-2,0,0,0
79541,266,-8187,-546,-2,0,0,0
79547,260,-8187,-546,-2,-1,0,0
79552,250,-8191,-548,-2,-1,0,0
79558,236,-8192,-550,-2,-1,0,0
79564,227,-8190,-557,-2,-1,0,0
79569,215,-8188,-556,-2,-1,0,0
79574,197,-8185,-560,-2,-1,0,0
79579,181,-8187,-564,-2,-1,0,0
79585,2443,-7061,9937,-8191,-569,-19862,0
79591,-10339,-2,-1,3617,-4461,11338,0
79596,-10339,-1,0,3618,-4460,11338,0
79601,-10339,-1,0,3619,-4459,11338,0
79607,-10339,-1,0,3619,-4458,11338,0
79612,-10340,-1,0,3619,-4457,11339,0
79618,-10340,-1,0,3619,-4455,11339,0
79623,-10341,-1,1,3619,-4454,11339,0
79629,-10341,-1,0,3619,-4453,11338,0
79633,-10342,-2,-1,3620,-4453,11338,0
79639,-10343,-2,-1,3621,-4452,11337,0
79645,-18271,-7976,9791,-8186,-436,-19862,0
79651,-10344,-1,-1,3623,-4453,11335,0
79657,-10345,-2,-2,3624,-4454,11334,0
79663,-10345,-2,-2,3626,-4455,11333,0
79667,-10345,-2,-2,3627,-4456,11332,0
79671,-10345,-2,-2,3628,-4457,11331,0
79675,-10345,-2,-3,3630,-4458,11330,0
79680,-10345,-2,-3,3632,-4459,11329,0
79686,-10345,-2,-3,3633,-4461,11328,0
79692,-10344,-2,-3,3635,-4462,11327,0
79697,-10344,-2,-3,3637,-4463,11326,0
79703,-10344,-2,-3,3638,-4465,11325,0
79709,-10344,-2,-3,3639,-4466,11325,0
79714,-10344,-2,-2,3640,-4468,11324,0
79720,11909,3643,-4471,25480,-10504,20070,0
79725,9335,29848,-13050,-391,-19862,18778,0
79731,-10344,-2,-3,3645,-4474,11320,0
79737,-10343,-2,-3,3646,-4475,11319,0
79743,-10343,-2,-3,3647,-4477,11319,0
79748,-10343,-2,-2,3648,-4478,11318,0
79752,-10343,-2,-2,3649,-4480,11317,0
79757,-10343,-2,-2,3650,-4481,11316,0
79763,-10343,-2,-2,3651,-4482,11315,0
79769,-10343,-2,-2,3652,-4484,11315,0
79774,-10343,-2,-3,3653,-4486,11314,0
79779,-10342,25480,-21773,3654,-4487,11313,0
79785,9772,14807,6911,29442,27150,3822,0
79790,11310,-10341,-2,-27317,3658,-4494,0
79795,11310,-10340,-2,14255,3660,-4496,0
79799,11309,-10340,-2,31147,3661,-4499,0
79804,11308,-10339,-2,-10604,3663,-4501,0
79809,11306,-10338,-2,-27913,3665,-4504,0
79813,11305,-10337,-2,-14516,3667,-4508,0
79818,11304,-10337,-2,-3006,3670,-4511,0
79824,11302,-10335,-2,-2287,3672,-4515,0
79829,11301,-10334,-2,-1776,3675,-4519,0
79833,11300,-10333,-2,26843,3678,-4522,0
79837,11299,-10332,-2,4661,3681,-4526,0
79841,11298,-10330,-2,-14353,3683,-4528,0
79845,11298,-10329,-2,25578,3684,-4530,0
79849,11297,-10329,-2,22241,3685,-4532,0
79852,11297,-10328,-2,9891,3686,-4533,0
79856,11297,-10328,-2,-19571,3686,-4534,0
79860,11297,-10328,-2,1861,3686,-4534,0
79864,11297,-10328,-2,1542,3687,-4535,0
79868,11297,-10327,-2,-26649,3687,-4535,0
79872,11297,-10327,-2,23975,3687,-4536,0
79877,11296,-10327,-2,-26268,3688,-4537,0
79881,11296,-10327,-2,-22465,3688,-4537,0
79885,11296,-10327,-2,-28642,3688,-4538,0
79889,11296,-10326,-2,22293,3689,-4538,0
79892,11296,-10326,-2,19135,3690,-4539,0
79896,11296,-10326,-2,25787,3690,-4539,0
79900,11295,-10326,-2,-15304,3691,-4539,0
79905,11295,-10326,-2,-22557,3691,-4539,0
79909,11295,-10326,-2,8766,3692,-4539,0
79913,11295,-10326,-2,-30079,3693,-4540,0
79917,11295,-10325,-2,30420,3693,-4540,0
79921,11294,-10325,-2,-20717,3694,-4540,0
79925,11294,-10325,-2,-17654,3695,-4540,0
79929,11294,-10325,-2,-24466,3696,-4541,0
79933,11294,-10325,-2,-21157,3697,-4541,0
79937,11293,-10325,-2,19008,3699,-4542,0
79941,11292,-10325,-2,16109,3700,-4542,0
79945,11292,-10324,-2,-5120,3701,-4543,0
79949,11291,-10324,-2,4890,3702,-4543,0
79953,11291,-10324,-2,-5141,3703,-4544,0
79957,11290,-10324,-2,-23204,3705,-4544,0
79961,11290,-10324,-2,26875,3706,-4545,0
79965,11290,-10324,-2,32369,3707,-4545,0
79969,11289,-10324,-2,27641,3709,-4546,0
79973,11289,-10324,-2,-4567,3710,-4546,0
79977,11288,-10324,-2,-13458,3711,-4546,0
79981,11287,-10324,-2,-2415,3713,-4546,0
79985,11287,-10324,-2,7130,3714,-4547,0
79989,11286,-10324,-2,5900,3715,-4547,0
79993,11286,-10324,-2,23537,3717,-4547,0
79996,11285,-10324,-2,19885,3718,-4548,0
80000,11284,-10324,-2,26166,3719,-4548,0
80004,11284,-10324,-2,-15216,3721,-4548,0
80008,11283,-10324,-2,-13255,3722,-4548,0
80012,11283,-10324,-2,7170,3723,-4549,0
80016,11282,-10325,-2,15135,3724,-4549,0
80020,11281,-10325,-2,22121,3725,-4549,0
80024,11281,-10325,-2,-9299,3726,-4549,0
80028,11280,-10325,-2,10666,3728,-4549,0
80032,11280,-10325,-2,-19039,3729,-4550,0
80036,11279,-10325,-2,-25785,3730,-4550,0
80040,11278,-10325,-2,-3518,3731,-4551,0
80044,11278,-10325,-2,-12348,3733,-4551,0
80048,11277,-10325,-2,-29276,3734,-4552,0
80052,11276,-10325,-2,-6300,3735,-4553,0
80056,11276,-10324,-2,-14548,3736,-4554,0
80060,11275,-10324,-2,6220,3738,-4554,0
80064,11275,-10324,-2,23996,3739,-4555,0
80068,11275,-10324,-2,-7559,3739,-4555,0
80072,11274,-10324,-2,2905,3740,-4555,0
80076,11274,-10324,-2,-6842,3740,-4556,0
80080,11274,-10324,-2,31727,3740,-4556,0
80084,11274,-10324,-2,-801,3741,-4556,0
80088,11273,-10324,-2,27362,3741,-4556,0
80092,11273,-10324,-2,4737,3741,-4557,0
80096,11273,-10325,-2,-24095,3741,-4557,0
80100,11273,-10325,-2,-11270,3741,-4557,0
80104,11273,-10325,-2,18546,3741,-4557,0
80108,11273,-10325,-2,15844,3741,-4557,0
80112,11273,-10325,-2,-23669,3741,-4557,0
80116,11273,-10325,-2,-10799,3740,-4557,0
80120,11273,-10325,-2,-9205,3740,-4557,0
80124,11273,-10325,-2,29675,3740,-4557,0
80128,11273,-10325,-2,-30688,3740,-4556,0
80132,11273,-10325,-2,-26254,3739,-4556,0
80136,11273,-10325,-2,-22374,3739,-4557,0
80140,11273,-10325,-2,-9716,3739,-4557,0
80145,11273,-10325,-2,19694,3739,-4557,0
80149,11273,-10325,-2,17066,3739,-4557,0
80153,11273,-10325,-2,-3878,3739,-4557,0
80158,11273,-10324,-2,24962,3739,-4558,0
80163,11273,-10324,-2,-15932,3740,-4559,0
80168,11273,-10324,-2,-32216,3740,-4559,0
80173,11273,-10323,-2,-8583,3740,-4560,0
80178,11273,-10323,-2,20981,3741,-4560,0
80183,11273,-10323,-2,8679,3741,-4561,0
80188,11273,-10322,-2,-1919,3741,-4561,0
80193,11273,-10322,-2,26509,3741,-4562,0
80197,11273,-10322,-2,-24043,3741,-4562,0
80202,11273,-10321,-2,-11173,3742,-4563,0
80207,11273,-10321,-2,-9473,3743,-4564,0
80211,11273,-10320,-2,10702,3743,-4565,0
80216,11273,-10320,-2,-9465,3744,-4565,0
80222,11273,-10319,-2,-26910,3745,-4566,0
80226,11273,-10319,-2,-13762,3746,-4567,0
80231,11272,-10319,-2,16331,3746,-4567,0
80236,11272,-10318,-2,-4639,3747,-4568,0
80241,11272,-10318,-2,-3872,3748,-4569,0
80247,11272,-10317,-2,-3346,3749,-4569,0
80252,11272,-10317,-2,-12227,3750,-4570,0
80257,11272,-10316,-2,-10429,3751,-4571,0
80262,11272,-10316,-2,313,3751,-4571,0
80267,11271,-10316,-2,18906,3752,-4572,0
80272,11271,-10315,-2,6953,3753,-4572,0
80277,11271,-10315,-2,-12705,3754,-4573,0
80282,11271,-10314,-2,-1427,3755,-4574,0
80288,11271,-10313,-2,-1092,3756,-4575,0
80292,11271,-10313,-2,-19364,3757,-4576,0
80297,11271,-10312,-2,-25852,3758,-4576,0
80302,11271,-10312,-2,24764,3758,-4576,0
80307,11271,-10312,-2,-25486,3759,-4576,0
80312,11271,-10312,-2,15692,3759,-4576,0
80317,11271,-10312,-2,22915,3759,-4576,0
80322,11271,-10312,-2,925,3759,-4576,0
80327,11271,-10312,-2,-27310,3758,-4575,0
80332,11271,-10312,-2,23197,3758,-4575,0
80337,11271,-10312,-2,29058,3758,-4574,0
80342,11271,-10313,-2,-22122,3758,-4574,0
80347,11271,-10313,-2,27697,3758,-4574,0
80352,11271,-10313,-2,14436,3758,-4573,0
80357,11271,-10313,-2,3042,3757,-4573,0
80362,11271,-10313,-2,30735,3757,-4572,0
80367,11271,-10314,-2,7549,3757,-4572,0
80372,11271,-10314,-2,-2783,3757,-4572,0
80378,11272,-10314,-2,-2412,3756,-4571,0
80383,11271,-10315,-2,-20891,3756,-4571,0
80388,11271,-10315,-2,10141,3756,-4571,0
80393,11271,-10315,-2,-10209,3756,-4570,0
80398,11271,-10316,-2,-8883,3755,-4570,0
80402,11271,-10316,-2,-7852,3755,-4570,0
80406,11271,-10317,-2,-6863,3754,-4570,0
80410,11270,-10317,-2,-15427,3754,-4570,0
80415,11270,-10318,-2,-32284,3754,-4570,0
80420,11269,-10318,-2,-18474,3754,-4570,0
80425,11268,-10318,-2,-15968,3755,-4571,0
80430,11268,-10318,-2,5029,3756,-4572,0
80434,11267,-10318,-2,-23765,3756,-4573,0
80440,11266,-10318,-2,-29678,3757,-4574,0
80446,11266,-10318,-2,30790,3758,-4575,0
80451,11265,-10318,-2,-29706,3759,-4576,0
80455,11265,-10318,-2,-25385,3760,-4577,0
80461,11264,-10318,-2,25032,3760,-4577,0
80467,11264,-10318,-2,-25467,3761,-4578,0
80472,11263,-10318,-2,6166,3762,-4579,0
80478,11263,-10318,-2,-13643,3763,-4580,0
80484,11262,-10318,-2,-11827,3764,-4580,0
80490,11261,-10318,-2,8447,3765,-4581,0
80494,11260,-10318,-2,16599,3766,-4582,0
80500,11260,-10318,-2,-23259,3767,-4583,0
80506,11259,-10318,-2,-1379,3769,-4584,0
80511,11258,-10317,-2,8044,3770,-4585,0
80516,11258,-10317,-2,-11849,3772,-4586,0
80522,11257,-10317,-2,17839,3773,-4587,0
80527,11256,-10316,-2,24650,3775,-4589,0
80532,11255,-10316,-2,-6893,3777,-4590,0
80538,11254,-10315,-2,-15268,3779,-4592,0
80544,11254,-10315,-2,-13035,3781,-4593,0
80550,11253,-10314,-2,-29838,3784,-4595,0
80555,11252,-10313,-2,-25630,3786,-4597,0
80560,11251,-10313,-2,24796,3788,-4599,0
80566,11250,-10312,-2,21123,3791,-4601,0
80572,11249,-10312,-2,8669,3793,-4603,0
80577,11248,-10311,-2,26148,3795,-4604,0
80583,11247,-10310,-2,31798,3798,-4606,0
80588,11246,-10310,-2,-28763,3800,-4608,0
80593,11246,-10309,-2,-5807,3801,-4609,0
80599,11245,-10309,-2,-14363,3803,-4610,0
80605,11244,-10309,-2,6378,3804,-4611,0
80610,11244,-10308,-2,-13356,3805,-4611,0
80615,11244,-10308,-2,-20755,3806,-4612,0
80621,11243,-10308,-2,-8380,3806,-4612,0
80627,11243,-10308,-2,-16569,3807,-4613,0
80633,11243,-10308,-2,23178,3807,-4613,0
80638,11242,-10308,-2,29173,3807,-4614,0
80644,11242,-10308,-2,-21812,3808,-4615,0
80650,11241,-10308,-2,-7,3808,-4616,0
80654,11240,-10309,-2,-9444,3809,-4617,0
80660,11240,-10309,-2,29154,3809,-4618,0
80665,11239,-10309,-2,-3217,3809,-4619,0
80669,11239,-10309,-2,25317,3810,-4619,0
80672,11238,-10309,-2,-15548,3810,-4620,0
80678,11238,-10309,-2,-22660,3810,-4621,0
80684,11238,-10309,-2,27632,3811,-4622,0
80689,11237,-10309,-2,-4153,3811,-4623,0
80694,11237,-10308,-2,15420,3811,-4624,0
80700,11237,-10308,-2,32172,3811,-4625,0
80706,11236,-10308,-2,-366,3811,-4626,0
80711,11236,-10308,-2,-182,3811,-4627,0
80717,11236,-10308,-2,54,3811,-4628,0
80722,11235,-10308,-2,-9286,3812,-4629,0
80728,11234,-10308,-2,-17319,3812,-4630,0
80733,11234,-10307,-2,-5435,3813,-4632,0
80739,11233,-10307,-2,4646,3814,-4634,0
80745,11232,-10307,-2,22752,3815,-4636,0
80750,11231,-10306,-2,28940,3816,-4638,0
80755,11230,-10305,-2,24912,3818,-4641,0
80760,11229,-10304,-2,-6563,3821,-4645,0
80764,11227,-10303,-2,-5336,3824,-4648,0
80768,11226,-10301,-2,23870,3827,-4652,0
80772,11225,-10300,-2,-26121,3831,-4656,0
80776,11223,-10298,-2,-22075,3835,-4660,0
80782,11221,-10296,-2,18695,3839,-4665,0
80788,11220,-10295,-2,-11866,3844,-4669,0
80793,11218,-10293,-2,-28757,3849,-4673,0
80799,11216,-10290,-1,3635,3854,-4678,0
80805,11214,-10288,-1,12579,3860,-4684,0
80810,11211,-10286,-1,29578,3866,-4690,0
80815,11208,-10283,-1,16074,3874,-4697,0
80820,11205,-10280,-1,-4807,3882,-4705,0
80826,11202,-10276,-1,23875,3891,-4714,0
80831,11198,-10272,-1,11186,3901,-4723,0
80835,11193,-10268,-1,-27872,3912,-4733,0
80841,11189,-10264,-1,22821,3924,-4745,0
80847,11183,-10259,-1,-8567,3937,-4757,0
80852,11178,-10253,-1,-26088,3951,-4770,0
80858,11172,-10248,-1,-22337,3966,-4783,0
80863,11166,-10242,-1,27592,3981,-4797,0
80867,11159,-10236,-1,4961,3997,-4813,0
80873,11152,-10229,-1,-14307,4015,-4829,0
80878,11144,-10222,-1,-12185,4033,-4847,0
80884,11136,-10214,0,-29163,4053,-4865,0
80890,11128,-10206,0,-24999,4074,-4884,0
80894,11118,-10197,0,6567,4096,-4905,0
80900,11109,-10188,0,-22394,4119,-4926,0
80905,11099,-10179,0,8932,4142,-4948,0
80910,11089,-10169,0,-20314,4166,-4970,0
80915,11079,-10160,0,29564,4190,-4992,0
80921,11069,-10150,0,25500,4213,-5013,0
80926,11059,-10141,0,31507,4236,-5034,0
80931,11050,-10132,0,-19627,4257,-5055,0
80935,11041,-10124,0,20609,4277,-5074,0
80941,11032,-10116,0,-10674,4297,-5093,0
80946,11023,-10109,0,-9388,4315,-5110,0
80950,11015,-10103,0,-17749,4332,-5126,0
80954,11007,-10097,0,3080,4347,-5141,0
80959,10999,-10092,0,11524,4362,-5154,0
80963,10992,-10088,0,-18910,4375,-5167,0
80967,10985,-10084,0,-16896,4387,-5179,0
80971,10979,-10081,0,3600,4399,-5190,0
80975,10972,-10077,0,-25570,4410,-5200,0
80979,10966,-10074,0,-13009,4421,-5210,0
80983,10960,-10072,0,7170,4430,-5219,0
80987,10955,-10070,0,15161,4439,-5226,0
80990,10951,-10068,0,12600,4446,-5233,0
80994,10946,-10067,0,10220,4452,-5239,0
80998,10942,-10066,0,17407,4458,-5245,0
81002,10937,-10066,-1,-32689,4464,-5250,0
81006,10933,-10065,-1,-19428,4469,-5256,0
81010,10929,-10065,-1,1351,4475,-5261,0
81014,10924,-10064,-1,472,4480,-5266,0
81018,10920,-10064,-1,-28146,4486,-5272,0
81022,10915,-10063,-1,-15243,4491,-5278,0
81026,10911,-10062,-1,-13515,4497,-5283,0
81030,10907,-10061,-1,-21551,4503,-5289,0
81034,10902,-10061,-1,-28413,4508,-5294,0
81038,10898,-10060,-1,3139,4514,-5299,0
81042,10894,-10060,-1,11416,4519,-5304,0
81046,10891,-10059,-2,-18659,4524,-5308,0
81050,10888,-10058,-2,-6847,4528,-5312,0
81054,10885,-10058,-2,3515,4532,-5316,0
81058,10882,-10057,-2,21835,4536,-5319,0
81062,10880,-10056,-2,26,4539,-5322,0
81066,10878,-10056,-2,9512,4543,-5325,0
81070,10876,-10055,-2,27055,4546,-5327,0
81074,10874,-10054,-2,32708,4549,-5330,0
81078,10872,-10054,-2,9399,4552,-5332,0
81082,10871,-10053,-2,8188,4555,-5335,0
81086,10869,-10052,-2,-21031,4559,-5338,0
81090,10867,-10050,-2,-27149,4562,-5341,0
81094,10865,-10049,-3,-23035,4566,-5345,0
81099,10863,-10048,-3,-28999,4569,-5348,0
81103,10861,-10046,-3,-24753,4572,-5351,0
81108,10860,-10046,-3,-11728,4574,-5354,0
81112,10858,-10045,-3,-537,4576,-5357,0
81116,10857,-10044,-3,27852,4578,-5360,0
81120,10856,-10043,-3,24191,4578,-5362,0
81124,10855,-10043,-3,-25767,4579,-5363,0
81128,10855,-10043,-3,25232,4578,-5365,0
81132,10855,-10043,-3,31277,4578,-5365,0
81136,10855,-10043,-3,-10308,4577,-5366,0
81140,10855,-10043,-3,-17984,4576,-5367,0
81144,10855,-10043,-3,12791,4575,-5368,0
81148,10855,-10042,-3,-26259,4575,-5370,0
81152,10855,-10042,-3,-3397,4574,-5371,0
81156,10855,-10041,-3,-21155,4574,-5373,0
81160,10855,-10040,-3,10679,4573,-5375,0
81164,10855,-10039,-3,-27542,4573,-5377,0
81168,10855,-10039,-3,5125,4572,-5378,0
81172,10856,-10038,-3,14279,4570,-5380,0
81176,10856,-10038,-3,31220,4569,-5381,0
81180,10856,-10038,-3,26867,4567,-5382,0
81184,10856,-10038,-3,32204,4565,-5383,0
81188,10856,-10038,-3,-9988,4563,-5384,0
81192,10856,-10039,-3,9891,4561,-5385,0
81196,10856,-10039,-3,-1039,4559,-5387,0
81200,10856,-10039,-3,27316,4558,-5388,0
81204,10856,-10038,-3,-4318,4557,-5390,0
81209,568,-8183,-357,-3,-2,0,0
81214,542,-8185,-373,-3,-2,0,0
81219,508,-8188,-392,-3,-2,0,0
81224,479,-8189,-410,-3,-1,0,0
81229,448,-8188,-424,-3,-1,0,0
81234,423,-8190,-440,-3,-1,0,0
81239,400,-8191,-456,-3,-2,0,0
81244,378,-8189,-473,-3,-1,0,0
81249,362,-8193,-484,-3,-1,0,0
81254,355,-8194,-495,-3,-1,0,0
81259,357,-8193,-505,-3,-2,-1,0
81264,355,-8189,-510,-3,-2,-1,0
81269,352,-8188,-510,-3,-3,-1,0
81274,349,-8188,-510,-3,-3,-1,0
81279,344,-8190,-512,-3,-3,-1,0
81284,349,-8190,-512,-3,-3,-1,0
81289,355,-8191,-505,-3,-4,-1,0
81294,367,-8193,-493,-3,-4,-1,0
81299,378,-8194,-477,-3,-4,-1,0
81304,392,-8193,-463,-3,-4,0,0
81309,406,-8191,-451,-3,-3,0,0
81314,418,-8190,-436,-3,-3,0,0
81319,430,-8193,-419,-3,-3,0,0
81324,439,-8195,-401,-3,-3,0,0
81329,444,-8195,-380,-3,-3,0,0
81334,452,-8196,-358,-3,-3,0,0
81339,459,-8197,-334,-3,-3,0,0
81344,460,-8196,-314,-3,-3,0,0
81349,461,-8195,-299,-3,-3,0,0
81354,461,-8192,-289,-3,-3,0,0
81360,456,-8193,-288,-3,-3,0,0
81364,449,-8193,-294,-3,-3,0,0
81370,440,-8192,-303,-3,-3,0,0
81374,422,-8194,-311,-3,-2,0,0
81379,406,-8200,-320,-3,-2,0,0
81385,391,-8199,-324,-3,-2,0,0
81391,379,-8197,-324,-3,-1,0,0
81395,368,-8194,-322,-3,-1,0,0
81401,357,-8190,-322,-3,-1,0,0
81406,353,-8190,-317,-3,-1,0,0
81411,352,-8190,-313,-3,-1,0,0
81416,356,-8190,-315,-3,-1,0,0
81422,360,-8189,-315,-3,-1,0,0
81427,364,-8191,-312,-3,-1,0,0
81432,364,-8193,-310,-3,-1,0,0
81437,360,-8197,-308,-3,-1,0,0
81443,352,-8198,-307,-3,-1,0,0
81448,342,-8196,-308,-3,-1,0,0
81452,330,-8196,-308,-3,-1,0,0
81456,320,-8195,-314,-3,-1,0,0
81460,310,-8194,-323,-3,-1,0,0
81464,297,-8193,-330,-3,-1,0,0
81470,287,-8194,-341,-3,-2,0,0
81475,274,-8195,-355,-3,-2,0,0
81480,260,-8196,-374,-3,-2,0,0
81485,247,-8194,-395,-3,-2,0,0
81490,235,-8191,-414,-3,-2,-1,0
81495,222,-8190,-431,-3,-2,-1,0
81500,212,-8193,-448,-3,-2,-1,0
81506,206,-8195,-453,-3,-1,-1,0
81512,203,-8197,-458,-3,-1,-1,0
81518,208,-8197,-459,-3,0,-1,0
81524,213,-8197,-458,-3,0,-1,0
81530,225,-8194,-459,-3,0,-1,0
81535,237,-8192,-459,-3,0,-1,0
81541,248,-8193,-462,-3,-1,-1,0
81547,259,-8193,-464,-3,-1,-1,0
81553,268,-8194,-474,-3,-1,-1,0
81559,273,-8193,-485,-3,-1,-1,0
81566,273,-8192,-497,-3,-1,-1,0
81572,272,-8191,-511,-3,-2,-1,0
81577,264,-8192,-521,-3,-2,-1,0
81583,253,-8192,-534,-3,-2,-1,0
81590,244,-8194,-550,-3,-2,-1,0
81595,232,-8195,-565,-3,-2,-1,0
81601,220,-8191,-581,-3,-3,-1,0
81607,207,-8194,-601,-3,-3,-1,0
81613,195,-8193,-616,-2,-3,-1,0
81619,190,-8192,-634,-2,-3,-2,0
81625,194,-8193,-646,-2,-3,-2,0
81631,190,-8195,-660,-2,-4,-2,0
81636,191,-8197,-670,-2,-4,-2,0
81642,199,-8196,-678,-2,-4,-2,0
81648,205,-8192,-681,-2,-4,-2,0
81654,217,-8188,-678,-2,-4,-2,0
81660,229,-8189,-668,-2,-4,-2,0
81666,251,-8188,-657,-2,-3,-2,0
81671,281,-8189,-649,-2,-3,-2,0
81676,313,-8187,-641,-2,-2,-2,0
81682,350,-8186,-634,-2,-3,-2,0
81688,380,-8187,-625,-2,-3,-2,0
81694,406,-8186,-613,-2,-4,-2,0
81700,425,-8184,-607,-2,-5,-2,0
81706,433,-8183,-596,-1,-6,-2,0
81712,435,-8183,-587,-1,-7,-2,0
81717,435,-8185,-578,-1,-8,-2,0
81723,438,-8186,-572,-1,-8,-2,0
81729,443,-8186,-564,-1,-9,-2,0
81734,454,-8185,-553,-1,-9,-2,0
81741,467,-8183,-549,-1,-9,-2,0
81747,481,-8180,-542,-1,-9,-2,0
81753,504,-8177,-532,-1,-9,-2,0
81758,531,-8176,-514,-1,-8,-1,0
81764,557,-8178,-491,-1,-8,-1,0
81770,579,-8180,-469,-1,-8,-1,0
81775,599,-8180,-452,-1,-7,-1,0
81781,618,-8181,-428,-1,-7,-1,0
81785,633,-8184,-409,-1,-7,-1,0
81790,647,-8183,-396,-1,-6,-1,0
81795,657,-8185,-383,-1,-6,-1,0
81801,667,-8186,-375,-1,-6,-1,0
81807,675,-8189,-367,-2,-5,-1,0
81813,686,-8188,-365,-2,-5,0,0
81819,700,-8187,-363,-2,-5,0,0
81825,710,-8186,-356,-2,-5,0,0
81830,720,-8187,-342,-2,-5,0,0
81835,729,-8186,-329,-2,-5,0,0
81841,736,-8184,-322,-2,-5,0,0
81847,737,-8184,-318,-2,-6,0,0
81852,733,-8181,-324,-2,-6,0,0
81857,722,-8182,-329,-2,-7,0,0
81863,705,-8186,-341,-2,-8,0,0
81869,679,-8188,-364,-2,-9,0,0
81874,649,-8191,-385,-2,-10,0,0
81880,614,-8192,-403,-2,-10,0,0
81886,582,-8192,-414,-2,-10,0,0
81892,552,-8192,-422,-2,-11,0,0
81897,523,-8190,-424,-2,-11,0,0
81903,500,-8191,-428,-2,-11,0,0
81909,483,-8191,-427,-2,-11,0,0
81914,472,-8189,-428,-2,-12,0,0
81920,462,-8187,-427,-2,-12,0,0
81926,457,-8182,-424,-2,-12,0,0
81932,454,-8181,-419,-2,-12,0,0
81937,452,-8184,-409,-2,-12,0,0
81943,452,-8187,-399,-2,-12,0,0
81948,450,-8189,-387,-2,-11,0,0
81954,448,-8191,-370,-2,-11,0,0
81960,445,-8191,-355,-2,-12,0,0
81966,441,-8191,-341,-2,-13,0,0
81972,434,-8193,-323,-2,-13,0,0
81976,428,-8194,-309,-2,-14,0,0
81982,425,-8195,-298,-2,-15,0,0
81988,420,-8192,-290,-2,-15,0,0
81994,416,-8194,-285,-2,-16,0,0
82000,415,-8195,-279,-2,-16,0,0
82006,417,-8194,-273,-2,-16,0,0
82012,423,-8191,-266,-2,-16,0,0
82017,438,-8190,-261,-2,-16,1,0
82023,458,-8192,-255,-2,-16,1,0
82028,484,-8194,-249,-2,-16,1,0
82034,517,-8195,-244,-2,-15,1,0
82040,553,-8197,-238,-2,-15,1,0
82046,592,-8193,-230,-2,-15,1,0
82051,630,-8193,-218,-3,-15,1,0
82056,661,-8194,-209,-3,-15,1,0
82062,686,-8192,-197,-3,-16,1,0
82068,702,-8191,-188,-3,-16,1,0
82074,714,-8190,-183,-3,-16,1,0
82079,721,-8189,-185,-3,-17,2,0
82083,722,-8191,-186,-3,-17,2,0
82087,715,-8189,-189,-3,-18,2,0
82091,706,-8189,-195,-3,-18,2,0
82096,694,-8191,-201,-3,-18,2,0
82101,680,-8189,-207,-3,-18,2,0
82106,661,-8190,-213,-3,-18,2,0
82110,642,-8188,-213,-3,-18,2,0
82115,621,-8188,-220,-3,-17,2,0
82119,601,-8187,-227,-3,-17,2,0
82123,583,-8186,-232,-3,-16,2,0
82127,563,-8187,-241,-3,-15,3,0
82131,544,-8190,-250,-4,-14,3,0
82135,523,-8192,-257,-4,-13,3,0
82139,504,-8192,-254,-4,-13,3,0
82143,488,-8190,-251,-4,-12,3,0
82147,473,-8188,-245,-4,-12,3,0
82151,457,-8188,-244,-4,-12,3,0
82155,437,-8189,-245,-4,-12,3,0
82159,415,-8188,-252,-4,-13,3,0
82163,391,-8190,-264,-4,-13,3,0
82167,362,-8191,-276,-4,-14,3,0
82171,331,-8193,-288,-4,-14,3,0
82175,305,-8192,-297,-4,-13,3,0
82179,288,-8191,-298,-4,-13,3,0
82183,286,-8190,-288,-4,-12,3,0
82187,282,-8189,-277,-4,-11,3,0
82191,289,-8190,-259,-4,-10,3,0
82195,293,-8191,-244,-4,-10,3,0
82199,304,-8191,-226,-4,-10,3,0
82203,315,-8194,-216,-4,-10,3,0
82207,313,-8195,-212,-5,-11,3,0
82211,316,-8192,-212,-5,-12,3,0
82215,308,-8193,-226,-5,-11,3,0
82220,299,-8190,-240,-5,-12,3,0
82225,287,-8190,-266,-5,-12,3,0
82230,266,-8191,-295,-5,-13,3,0
82235,244,-8185,-333,-5,-14,3,0
82240,207,-8186,-380,-5,-16,3,0
82245,168,-8185,-417,-5,-17,3,0
82250,122,-8185,-466,-5,-17,3,0
82255,68,-8184,-506,-5,-17,2,0
82260,13,-8183,-542,-5,-16,2,0
82265,-47,-8182,-565,-5,-15,2,0
82270,-99,-8184,-587,-4,-12,2,0
82275,-146,-8187,-609,-4,-9,2,0
82280,-182,-8186,-631,-4,-6,2,0
82285,-201,-8183,-656,-4,-3,2,0
82291,-213,-8183,-685,-4,-1,2,0
82295,-216,-8182,-718,-4,0,2,0
82300,-215,-8184,-743,-4,0,2,0
82304,-211,-8183,-765,-4,1,2,0
82309,-200,-8182,-781,-4,2,1,0
82313,-191,-8180,-791,-4,3,1,0
82317,-182,-8177,-803,-4,4,1,0
82321,-174,-8177,-811,-4,5,1,0
82325,-168,-8177,-817,-3,5,1,0
82329,-158,-8179,-826,-3,6,1,0
82333,-141,-8180,-829,-3,7,1,0
82338,-115,-8183,-831,-3,7,1,0
82342,-77,-8181,-829,-3,8,1,0
82346,-26,-8180,-819,-3,8,1,0
82350,32,-8180,-810,-3,7,1,0
82354,98,-8178,-805,-3,7,1,0
82358,167,-8175,-797,-3,5,1,0
82361,231,-8174,-795,-3,4,1,0
82365,287,-8177,-800,-3,2,1,0
82369,332,-8179,-804,-3,0,1,0
82373,362,-8179,-804,-2,-1,1,0
82377,381,-8179,-804,-2,-2,2,0
82382,390,-8180,-805,-2,-3,2,0
82386,389,-8181,-805,-2,-3,2,0
82390,386,-8184,-806,-2,-2,2,0
82394,381,-8185,-806,-2,0,2,0
82398,384,-8183,-801,-2,1,2,0
82401,388,-8181,-793,-2,2,2,0
82405,398,-8179,-784,-2,3,2,0
82409,407,-8180,-768,-2,3,2,0
82413,414,-8179,-750,-2,3,2,0
82417,418,-8179,-724,-2,2,3,0
82421,418,-8178,-687,-2,2,3,0
82425,413,-8178,-651,-2,1,3,0
82429,402,-8175,-616,-2,0,3,0
82433,386,-8172,-575,-2,0,3,0
82437,366,-8172,-538,-2,-1,3,0
82441,342,-8170,-498,-2,-3,3,0
82445,313,-8170,-465,-2,-4,3,0
82449,282,-8170,-439,-2,-5,3,0
82453,252,-8171,-421,-2,-6,3,0
82457,224,-8174,-410,-2,-6,3,0
82461,190,-8178,-410,-2,-7,3,0
82465,150,-8183,-422,-2,-8,3,0
82469,107,-8184,-439,-2,-9,2,0
82473,60,-8183,-458,-2,-9,2,0
82477,12,-8185,-477,-2,-9,2,0
82481,-40,-8182,-493,-2,-8,2,0
82486,-95,-8179,-506,-2,-7,2,0
82490,-149,-8180,-513,-2,-5,2,0
82494,-196,-8184,-518,-2,-3,2,0
82498,-232,-8185,-516,-2,-1,2,0
82502,-258,-8186,-511,-2,0,2,0
82507,-279,-8187,-508,-2,1,2,0
82512,-296,-8189,-506,-2,1,2,0
82517,-306,-8191,-506,-2,1,1,0
82522,-317,-8194,-507,-2,1,1,0
82527,-328,-8191,-504,-2,1,1,0
82532,-343,-8191,-500,-2,1,1,0
82537,-358,-8190,-506,-2,1,1,0
82542,-378,-8192,-520,-2,0,1,0
82547,-400,-8196,-539,-2,0,1,0
82552,-417,-8196,-558,-2,0,0,0
82557,-431,-8193,-574,-2,1,0,0
82562,-445,-8191,-585,-2,1,0,0
82567,-454,-8188,-590,-2,1,0,0
82572,-454,-8186,-588,-2,1,0,0
82577,-449,-8187,-584,-2,1,0,0
82583,-435,-8188,-581,-2,1,0,0
82588,-414,-8190,-581,-2,0,0,0
82594,-387,-8192,-582,-2,-1,-1,0
82598,-361,-8195,-585,-2,-1,-1,0
82604,-334,-8199,-582,-2,-2,-1,0
82610,-313,-8200,-581,-2,-2,-1,0
82615,-293,-8198,-580,-2,-2,-1,0
82621,-276,-8194,-582,-2,-3,-1,0
82627,-261,-8190,-577,-2,-3,-1,0
82633,-251,-8188,-576,-2,-3,-1,0
82638,-243,-8188,-575,-2,-3,-1,0
82644,-233,-8187,-572,-2,-3,-1,0
82650,-221,-8190,-571,-2,-3,-1,0
82655,-210,-8188,-569,-2,-3,-2,0
82660,-194,-8186,-574,-2,-3,-2,0
82665,-178,-8188,-588,-2,-3,-2,0
82670,-165,-8190,-598,-2,-4,-2,0
82674,-151,-8189,-608,-2,-4,-2,0
82680,-141,-8190,-614,-2,-4,-2,0
82685,-137,-8190,-617,-2,-4,-2,0
82690,-129,-8190,-616,-2,-4,-2,0
82695,-122,-8188,-609,-2,-4,-2,0
82701,-112,-8184,-602,-2,-3,-2,0
82706,-99,-8183,-595,-2,-3,-2,0
82711,-87,-8185,-586,-2,-2,-2,0
82716,-73,-8185,-584,-2,-2,-2,0
82722,-54,-8186,-583,-2,-2,-2,0
82727,-34,-8184,-585,-2,-2,-2,0
82732,-9,-8183,-582,-2,-1,-2,0
82737,14,-8182,-574,-2,-1,-2,0
82743,38,-8184,-568,-2,-1,-2,0
82748,59,-8184,-558,-2,-1,-2,0
82754,77,-8185,-546,-2,-2,-2,0
82760,90,-8183,-540,-2,-2,-2,0
82765,99,-8183,-540,-2,-3,-2,0
82770,103,-8184,-541,-2,-4,-2,0
82775,103,-8187,-548,-2,-4,-2,0
82780,103,-8187,-553,-2,-5,-2,0
82786,99,-8190,-559,-2,-5,-2,0
82792,91,-8191,-570,-2,-5,-2,0
82797,81,-8190,-585,-2,-6,-2,0
82803,73,-8189,-597,-2,-5,-2,0
82809,65,-8187,-606,-2,-5,-2,0
82815,56,-8186,-613,-2,-5,-2,0
82821,49,-8185,-618,-2,-4,-2,0
82827,46,-8188,-619,-2,-4,-2,0
82833,41,-8191,-616,-2,-4,-2,0
82838,38,-8189,-614,-2,-4,-2,0
82844,41,-8188,-610,-2,-4,-2,0
82850,48,-8188,-605,-2,-5,-2,0
82855,57,-8191,-598,-2,-5,-2,0
82861,67,-8192,-594,-2,-6,-2,0
82867,77,-8192,-589,-2,-6,-2,0
82873,85,-8192,-588,-1,-7,-2,0
82878,89,-8191,-579,-1,-7,-2,0
82884,96,-8188,-574,-1,-6,-2,0
82890,101,-8184,-569,-2,-6,-2,0
82895,108,-8184,-569,-1,-6,-2,0
82902,116,-8183,-569,-1,-5,-2,0
82908,124,-8182,-565,-1,-5,-2,0
82913,132,-8181,-567,-1,-4,-2,0
82918,140,-8183,-565,-1,-4,-2,0
82925,150,-8185,-563,-1,-4,-2,0
82930,160,-8185,-559,-1,-4,-2,0
82936,172,-8184,-558,-1,-5,-2,0
82942,183,-8181,-556,-1,-5,-2,0
82948,195,-8182,-549,-1,-5,-2,0
82954,206,-8181,-548,-1,-6,-2,0
82960,216,-8182,-544,-1,-6,-2,0
82966,227,-8182,-542,-1,-6,-2,0
82972,238,-8182,-544,-1,-6,-2,0
82978,251,-8181,-542,-1,-6,-2,0
82983,265,-8181,-536,-1,-6,-2,0
82989,283,-8181,-530,-1,-6,-1,0
82995,297,-8182,-522,-1,-6,-1,0
83001,310,-8183,-518,-1,-7,-1,0
83008,318,-8185,-508,-1,-7,-1,0
83013,324,-8189,-497,-1,-7,-1,0
83018,320,-8188,-487,-1,-8,-1,0
83024,314,-8187,-479,-1,-8,-1,0
83031,306,-8187,-470,-2,-8,-1,0
83036,296,-8188,-463,-2,-8,-1,0
83042,288,-8189,-457,-2,-7,-1,0
83048,283,-8189,-455,-2,-7,-1,0
83054,281,-8190,-448,-2,-7,-1,0
83060,284,-8191,-447,-2,-6,-1,0
83066,284,-8191,-454,-2,-6,-1,0
83072,287,-8190,-452,-2,-6,-1,0
83078,285,-8188,-451,-2,-6,-1,0
83082,280,-8187,-449,-2,-5,-1,0
83086,276,-8184,-438,-2,-5,-1,0
83090,270,-8183,-427,-2,-4,-1,0
83094,265,-8186,-417,-2,-3,-1,0
83100,263,-8188,-413,-2,-3,0,0
83106,264,-8192,-404,-2,-2,0,0
83111,265,-8193,-399,-2,-2,0,0
83116,268,-8191,-391,-2,-2,0,0
83121,273,-8194,-388,-2,-2,0,0
83127,277,-8191,-385,-2,-2,0,0
83132,278,-8188,-383,-2,-2,0,0
83137,269,-8190,-385,-2,-2,0,0
83143,257,-8189,-392,-2,-2,0,0
83148,242,-8189,-396,-2,-2,0,0
83153,227,-8188,-403,-2,-2,0,0
83158,215,-8187,-408,-2,-2,0,0
83164,207,-8186,-412,-2,-2,0,0
83168,205,-8186,-419,-2,-1,0,0
83172,206,-8188,-425,-2,-1,0,0
83176,206,-8188,-429,-2,-1,0,0
83180,206,-8188,-431,-2,-1,0,0
83186,205,-8187,-431,-2,-1,0,0
83192,205,-8186,-427,-2,-1,0,0
83196,202,-8188,-427,-3,-1,0,0
83202,198,-8188,-422,-3,-1,0,0
83208,190,-8190,-420,-3,-2,0,0
83213,183,-8189,-416,-3,-2,0,0
83218,178,-8188,-411,-3,-2,0,0
83223,174,-8188,-407,-3,-2,0,0
83228,170,-8191,-402,-3,-2,0,0
83232,164,-8193,-400,-3,-2,0,0
83236,161,-8194,-394,-3,-2,0,0
83241,165,-8193,-384,-3,-2,0,0
83246,168,-8196,-364,-3,-1,0,0
83251,172,-8195,-336,-3,-2,0,0
83256,170,-8198,-296,-3,-1,0,0
83261,169,-8198,-255,-3,-1,0,0
83266,162,-8195,-228,-3,1,0,0
83270,133,-8192,-225,-3,2,0,0
83274,86,-8193,-246,-3,5,0,0
83278,28,-8196,-304,-3,10,0,0
83282,-44,-8199,-385,-3,16,0,0
83286,-108,-8196,-482,-3,25,0,0
83290,-172,-8196,-586,-4,38,1,0
83294,-292,-8194,-695,-4,52,1,0
83298,-304,-8190,-795,-3,64,1,0
83302,-301,-8185,-846,-3,77,1,0
83306,-277,-8190,-898,-3,87,1,0
83310,-217,-8269,-925,-2,92,1,0
83314,-142,-8533,-965,-2,90,1,0
83318,1,-8952,-991,-1,84,0,0
83322,173,-9475,-990,-1,72,0,0
83326,357,-10022,-950,-1,54,-1,0
83330,510,-10530,-869,0,33,-1,0
83334,624,-10944,-768,0,14,-2,0
83338,707,-11242,-691,1,1,-2,0
83342,758,-11414,-649,1,-6,-2,0
83346,767,-11462,-663,2,-9,-2,0
83350,742,-11403,-717,2,-7,-2,0
83355,671,-11256,-784,2,-1,-2,0
83360,589,-11036,-843,3,8,-1,0
83364,487,-10771,-895,3,18,-1,0
83370,385,-10471,-927,4,26,-1,0
83374,287,-10155,-950,4,33,-1,0
83379,210,-9834,-960,5,38,-1,0
83385,150,-9513,-952,5,41,-1,0
83389,116,-9192,-915,6,41,-2,0
83394,91,-8880,-861,6,39,-2,0
83398,64,-8584,-782,6,37,-2,0
83403,54,-8304,-714,7,36,-2,0
83408,56,-8037,-643,7,35,-2,0
83413,61,-7782,-582,7,33,-2,0
83418,78,-7541,-521,7,31,-2,0
83422,94,-7317,-461,7,28,-2,0
83427,93,-7112,-405,7,23,-3,0
83432,85,-6926,-357,7,20,-3,0
83437,67,-6753,-320,8,18,-3,0
83442,46,-6589,-295,8,18,-3,0
83447,34,-6436,-280,8,18,-3,0
83451,27,-6290,-270,8,18,-3,0
83456,22,-6149,-260,7,18,-3,0
83461,22,-6008,-233,7,18,-3,0
83466,28,-5864,-193,7,18,-3,0
83470,35,-5714,-147,7,18,-3,0
83474,46,-5557,-102,7,17,-3,0
83478,56,-5397,-59,7,17,-3,0
83483,64,-5238,-18,7,16,-3,0
83489,71,-5074,30,6,15,-3,0
83494,75,-4909,81,6,15,-3,0
83498,75,-4746,131,6,14,-3,0
83503,67,-4589,179,5,13,-3,0
83508,48,-4433,222,5,10,-4,0
83513,29,-4273,269,4,7,-4,0
83517,3,-4102,331,4,4,-4,0
83522,-26,-3922,407,3,0,-5,0
83527,-55,-3733,496,2,-4,-5,0
83533,-82,-3551,575,2,-7,-5,0
83538,-99,-3382,640,1,-11,-6,0
83544,-109,-3229,697,0,-15,-7,0
83549,-109,-3080,754,-1,-19,-7,0
83553,-99,-2933,822,-2,-24,-8,0
83558,-63,-2786,883,-3,-32,-9,0
83563,9,-2673,902,-4,-42,-9,0
83567,131,-2662,816,-4,-54,-10,0
83572,292,-2820,571,-4,-64,-10,0
83576,538,-4757,-115,-3,-72,-10,0
83580,1301,-6417,-668,3,-89,-8,0
83584,1941,-5005,-623,0,-170,-10,0
83588,1887,-4250,-691,0,-237,-9,0
83592,1360,-3872,-757,0,-218,-7,0
83596,806,-3861,-1020,-1,-124,-4,0
83601,512,-5649,-1243,-1,4,-1,0
83605,296,-5991,-1551,-4,103,0,0
83609,71,-6295,-1565,-5,148,0,0
83613,-57,-6888,-1539,-5,165,0,0
83617,-116,-7658,-1400,-3,163,-2,0
83621,-120,-8470,-1384,-2,136,-3,0
83625,-74,-9261,-1227,0,90,-3,0
83629,81,-9943,-1046,0,38,-4,0
83633,391,-10467,-771,1,1,-4,0
83637,670,-10829,-633,1,-14,-4,0
83641,924,-11063,-581,2,-21,-4,0
83645,1073,-11165,-583,2,-26,-4,0
83649,1090,-11136,-577,2,-30,-4,0
83653,985,-10983,-560,1,-29,-3,0
83657,817,-10729,-514,1,-23,-3,0
83661,670,-10418,-484,2,-14,-2,0
83665,578,-10063,-526,2,-5,-2,0
83669,502,-9684,-611,2,6,-1,0
83673,466,-9301,-671,2,15,-1,0
83677,414,-8926,-712,2,20,-1,0
83681,353,-8562,-691,3,21,-1,0
83686,254,-8219,-628,3,19,-1,0
83691,197,-7902,-533,3,15,-1,0
83696,147,-7608,-444,3,12,-2,0
83701,131,-7328,-367,3,7,-2,0
83706,139,-7049,-317,3,2,-2,0
83711,158,-6770,-258,3,-2,-2,0
83716,147,-6492,-203,3,-4,-2,0
83721,150,-6216,-140,3,-5,-2,0
83726,122,-5949,-90,3,-5,-2,0
83731,98,-5691,-38,2,-5,-2,0
83736,92,-5440,4,2,-4,-2,0
83741,94,-5210,47,2,-4,-2,0
83746,129,-4992,50,1,-5,-2,0
83751,136,-4800,105,1,-7,-2,0
83756,134,-4620,126,1,-11,-2,0
83761,126,-4455,157,1,-15,-2,0
83766,142,-4299,153,0,-16,-2,0
83771,129,-4148,163,0,-16,-3,0
83776,136,-3993,144,0,-17,-3,0
83781,140,-3835,142,-1,-17,-3,0
83786,130,-3676,135,-1,-16,-3,0
83791,135,-3512,146,-1,-15,-3,0
83796,155,-3343,145,-1,-14,-3,0
83801,159,-3172,146,-2,-13,-3,0
83806,188,-2996,132,-2,-14,-3,0
83811,212,-2815,123,-2,-16,-4,0
83816,230,-2632,108,-3,-19,-4,0
83822,271,-2448,94,-3,-24,-4,0
83827,301,-2260,69,-3,-28,-4,0
83833,334,-2078,39,-3,-35,-5,0
83837,390,-1910,-8,-3,-41,-5,0
83843,604,-3977,-337,3,-50,-2,0
83849,1099,-2248,-927,-8,-129,-8,0
83854,1098,-626,-111,-5,-224,-9,0
83859,1050,-2876,-158,-5,-248,-8,0
83864,1029,-3216,-560,-4,-192,-8,0
83869,924,-3646,-675,-1,-138,-4,0
83874,742,-4264,-752,-1,-77,-1,0
83878,460,-4899,-673,-2,-18,1,0
83883,328,-5429,-679,-3,35,1,0
83889,141,-5856,-565,-2,71,2,0
83894,126,-6217,-596,-2,80,1,0
83898,-138,-6519,-581,-2,79,1,0
83903,-331,-6786,-597,-2,69,0,0
83909,-573,-7015,-533,-3,66,0,0
83914,-777,-7205,-412,-3,64,0,0
83919,-832,-7360,-285,-3,63,0,0
83924,-784,-7481,-101,-3,61,0,0
83930,-542,-7581,18,-2,53,0,0
83935,-309,-7661,158,-2,40,-1,0
83941,23,-7729,253,-2,21,-2,0
83947,234,-7789,316,-2,4,-2,0
83953,384,-7847,371,-2,-12,-3,0
83958,464,-7900,383,-2,-21,-3,0
83964,428,-7944,390,-2,-27,-3,0
83969,395,-7985,381,-2,-30,-3,0
83975,335,-8017,383,-3,-25,-3,0
83981,334,-8045,356,-3,-20,-2,0
83987,370,-8066,318,-3,-15,-2,0
83993,493,-8083,256,-3,-11,-2,0
83998,574,-8095,187,-3,-11,-2,0
84003,677,-8107,126,-3,-16,-2,0
84009,748,-8117,60,-3,-19,-3,0
84015,707,-8124,-6,-3,-22,-3,0
84021,683,-8137,-64,-3,-25,-3,0
84027,588,-8145,-126,-3,-23,-3,0
84033,473,-8155,-189,-2,-21,-3,0
84038,403,-8160,-245,-2,-17,-2,0
84044,364,-8164,-310,-2,-10,-2,0
84051,353,-8166,-361,-3,-6,-2,0
84055,411,-8164,-389,-3,-4,-2,0
84061,475,-8163,-404,-3,-2,-2,0
84066,529,-8163,-397,-2,-3,-2,0
84072,627,-8164,-374,-2,-5,-2,0
84077,657,-8167,-338,-2,-6,-2,0
84083,693,-8170,-298,-2,-10,-2,0
84089,724,-8171,-257,-2,-12,-2,0
84095,703,-8170,-234,-2,-13,-2,0
84102,710,-8173,-208,-2,-15,-2,0
84108,722,-8177,-201,-2,-15,-2,0
84113,713,-8177,-217,-2,-14,-2,0
84118,746,-8179,-220,-2,-14,-2,0
84124,777,-8182,-223,-2,-13,-2,0
84131,775,-8181,-225,-2,-12,-2,0
84136,808,-8180,-215,-2,-13,-2,0
84143,813,-8184,-201,-2,-12,-2,0
84149,788,-8186,-189,-2,-13,-2,0
84155,789,-8185,-172,-2,-13,-1,0
84159,766,-8183,-160,-2,-11,-1,0
84165,743,-8183,-156,-2,-10,-1,0
84171,747,-8184,-158,-2,-9,-1,0
84177,734,-8186,-180,-2,-7,-1,0
84183,723,-8184,-202,-2,-6,-1,0
84189,728,-8184,-226,-2,-4,-1,0
84195,711,-8183,-250,-2,-2,-1,0
84200,705,-8182,-264,-2,-1,-1,0
84206,699,-8181,-267,-2,0,-1,0
84212,670,-8179,-273,-2,0,-1,0
84218,648,-8181,-266,-2,-1,-1,0
84224,623,-8182,-258,-2,0,-1,0
84229,596,-8182,-257,-2,0,-1,0
84235,596,-8185,-257,-2,0,-1,0
84241,593,-8186,-259,-2,1,-1,0
84247,595,-8184,-261,-2,1,-1,0
84252,615,-8182,-260,-2,0,-1,0
84257,622,-8183,-261,-2,1,-1,0
84263,630,-8181,-257,-2,0,-1,0
84269,645,-8177,-248,-2,0,-1,0
84275,644,-8177,-239,-2,0,-1,0
84281,649,-8178,-229,-2,0,-1,0
84287,657,-8176,-216,-2,-1,-1,0
84292,661,-8176,-210,-2,-1,-1,0
84297,673,-8177,-205,-2,-2,-1,0
84304,682,-8179,-203,-2,-2,-1,0
84310,689,-8180,-202,-2,-3,-1,0
84316,703,-8179,-201,-2,-3,-1,0
84322,706,-8179,-203,-2,-3,-1,0
84328,711,-8180,-205,-2,-3,-1,0
84335,718,-8181,-204,-2,-3,-1,0
84340,717,-8181,-202,-2,-3,-1,0
84346,722,-8181,-196,-2,-3,0,0
84351,729,-8178,-192,-2,-2,0,0
84355,731,-8181,-197,-1,-2,0,0
84359,740,-8182,-201,-1,-2,0,0
84363,746,-8184,-208,-2,-2,0,0
84367,746,-8187,-221,-1,-2,0,0
84371,750,-8189,-227,-1,-2,0,0
84375,747,-8189,-235,-1,-2,0,0
84379,744,-8191,-240,-1,-2,0,0
84383,747,-8192,-238,-1,-1,0,0
84387,749,-8190,-234,-1,-1,0,0
84391,761,-8188,-226,-1,-1,0,0
84395,775,-8186,-216,-1,-1,0,0
84399,790,-8188,-208,-1,-1,0,0
84403,813,-8188,-194,-1,-1,0,0
84407,829,-8185,-179,-1,-1,0,0
84411,845,-8182,-166,-1,-1,1,0
84415,865,-8181,-153,-1,0,1,0
84419,875,-8178,-138,-1,1,1,0
84423,884,-8177,-127,-1,1,1,0
84427,895,-8179,-111,-2,2,1,0
84431,895,-8179,-102,-2,3,1,0
84435,892,-8180,-92,-2,4,1,0
84439,893,-8179,-79,-2,5,1,0
84443,884,-8181,-70,-2,6,1,0
84447,878,-8179,-70,-2,6,1,0
84451,862,-8180,-71,-2,6,1,0
84455,844,-8179,-75,-2,6,2,0
84459,824,-8180,-76,-2,6,2,0
84463,798,-8182,-76,-2,7,2,0
84467,774,-8184,-79,-2,7,2,0
84471,747,-8183,-79,-2,7,2,0
84475,714,-8184,-82,-2,7,2,0
84479,685,-8185,-84,-2,7,2,0
84483,654,-8185,-83,-2,7,2,0
84487,616,-8184,-78,-2,7,2,0
84491,585,-8184,-76,-2,6,2,0
84495,547,-8184,-74,-2,6,2,0
84500,509,-8185,-68,-2,6,1,0
84505,477,-8183,-57,-2,5,1,0
84510,441,-8185,-50,-2,5,1,0
84514,413,-8189,-45,-2,5,1,0
84519,390,-8190,-39,-2,5,1,0
84524,366,-8187,-35,-2,4,1,0
84529,347,-8184,-28,-2,3,1,0
84534,329,-8184,-19,-2,3,1,0
84539,307,-8186,-11,-2,2,1,0
84544,292,-8187,-6,-2,1,1,0
84549,268,-8190,-11,-2,0,0,0
84553,239,-8194,-15,-2,-1,0,0
84557,220,-8194,-22,-2,-1,0,0
84563,193,-8199,-38,-2,-1,0,0
84568,165,-8201,-49,-2,-2,0,0
84573,152,-8197,-63,-2,-2,0,0
84578,135,-8198,-79,-2,-2,-1,0
84583,124,-8196,-95,-2,-2,-1,0
84589,119,-8195,-107,-2,-2,-1,0
84594,109,-8195,-118,-2,-2,-1,0
84599,110,-8196,-127,-2,-2,-1,0
84605,116,-8199,-127,-2,-2,-1,0
84612,118,-8199,-130,-2,-2,-1,0
84617,135,-8197,-128,-2,-2,-1,0
84623,152,-8198,-128,-2,-2,-1,0
84629,162,-8199,-132,-2,-2,-2,0
84636,186,-8201,-133,-2,-2,-2,0
84642,198,-8202,-139,-2,-2,-2,0
84648,211,-8200,-149,-2,-3,-2,0
84654,230,-8195,-163,-2,-3,-2,0
84659,240,-8191,-172,-2,-3,-2,0
84666,255,-8192,-178,-2,-4,-2,0
84672,276,-8195,-179,-2,-4,-2,0
84677,283,-8197,-182,-2,-4,-2,0
84683,305,-8198,-182,-2,-4,-2,0
84688,328,-8196,-177,-2,-4,-2,0
84694,346,-8197,-174,-2,-4,-2,0
84699,376,-8197,-167,-2,-4,-2,0
84705,404,-8193,-158,-2,-4,-2,0
84712,429,-8192,-151,-2,-4,-2,0
84717,462,-8191,-140,-2,-4,-2,0
84723,487,-8191,-128,-2,-4,-2,0
84729,508,-8189,-116,-2,-4,-2,0
84735,531,-8187,-103,-2,-4,-2,0
84740,544,-8188,-99,-2,-3,-2,0
84746,559,-8189,-96,-2,-3,-2,0
84752,576,-8188,-87,-2,-3,-2,0
84757,582,-8188,-82,-2,-3,-2,0
84764,592,-8188,-80,-2,-3,-2,0
84768,604,-8189,-78,-2,-3,-2,0
84772,605,-8190,-80,-2,-3,-2,0
84776,610,-8189,-83,-2,-3,-2,0
84782,613,-8189,-84,-2,-3,-2,0
84786,603,-8189,-96,-2,-2,-2,0
84790,598,-8190,-105,-2,-2,-2,0
84794,591,-8189,-110,-2,-1,-2,0
84799,586,-8187,-115,-2,-1,-2,0
84803,588,-8187,-114,-2,0,-2,0
84807,595,-8188,-113,-2,0,-2,0
84811,601,-8187,-110,-2,1,-2,0
84815,615,-8187,-106,-2,1,-2,0
84819,626,-8186,-104,-2,1,-2,0
84823,634,-8184,-107,-2,1,-2,0
84827,639,-8183,-107,-2,1,-2,0
84831,641,-8181,-109,-2,1,-2,0
84835,638,-8179,-112,-2,1,-2,0
84839,642,-8178,-110,-2,1,-2,0
84843,643,-8180,-112,-2,1,-2,0
84847,644,-8183,-118,-2,1,-2,0
84851,650,-8187,-123,-2,1,-2,0
84855,654,-8190,-131,-2,1,-2,0
84859,655,-8188,-143,-2,2,-2,0
84863,658,-8184,-158,-2,2,-2,0
84867,660,-8184,-171,-2,4,-2,0
84871,659,-8185,-181,-2,5,-2,0
84875,662,-8185,-187,-2,6,-2,0
84879,660,-8183,-190,-2,7,-2,0
84883,656,-8181,-191,-2,8,-2,0
84887,655,-8179,-188,-2,9,-2,0
84891,651,-8180,-182,-2,9,-2,0
84895,649,-8179,-176,-2,9,-1,0
84899,658,-8178,-167,-2,10,-2,0
84903,663,-8181,-163,-2,11,-2,0
84907,669,-8181,-153,-2,10,-1,0
84911,680,-8181,-151,-2,10,-1,0
84915,676,-8183,-154,-2,10,-1,0
84919,675,-8184,-154,-2,10,-1,0
84923,672,-8183,-153,-2,11,-1,0
84927,659,-8182,-152,-2,11,-1,0
84931,654,-8183,-148,-2,12,-1,0
84935,644,-8185,-149,-2,12,-1,0
84939,631,-8187,-147,-2,12,-1,0
84943,632,-8190,-145,-2,12,-1,0
84947,627,-8190,-143,-2,13,-1,0
84951,625,-8191,-141,-2,14,-1,0
84955,631,-8191,-137,-2,14,-1,0
84959,632,-8189,-132,-2,15,-1,0
84963,637,-8188,-128,-2,16,-1,0
84967,648,-8186,-124,-2,17,-1,0
84971,651,-8187,-119,-2,17,-1,0
84975,662,-8187,-114,-3,18,-1,0
84980,672,-8188,-110,-3,18,-1,0
84985,675,-8185,-112,-3,18,-1,0
84990,682,-8186,-114,-2,18,-1,0
84995,688,-8188,-119,-2,17,-1,0
85000,684,-8185,-131,-2,17,-1,0
85005,686,-8185,-141,-2,16,-1,0
85009,684,-8187,-157,-2,16,-1,0
85015,675,-8189,-169,-2,15,-1,0
85020,674,-8189,-179,-2,15,-1,0
85025,672,-8186,-188,-2,15,-1,0
85030,668,-8186,-198,-2,15,-1,0
85035,674,-8185,-207,-2,14,-1,0
85040,674,-8184,-219,-2,14,-1,0
85046,674,-8181,-228,-2,13,-1,0
85051,680,-8182,-235,-2,11,-1,0
85057,682,-8181,-243,-2,11,-1,0
85062,681,-8179,-249,-2,9,-1,0
85067,686,-8179,-253,-2,8,-1,0
85073,682,-8178,-254,-2,8,-1,0
85078,686,-8178,-252,-2,7,-1,0
85082,694,-8177,-247,-2,7,-1,0
85087,699,-8176,-242,-2,7,-1,0
85092,709,-8180,-236,-2,8,-1,0
85097,715,-8183,-226,-2,8,-1,0
85102,720,-8181,-218,-2,9,-1,0
85107,728,-8176,-205,-2,10,-1,0
85112,732,-8173,-196,-2,11,-1,0
85117,736,-8173,-185,-2,11,-1,0
85123,743,-8176,-171,-2,12,-1,0
85128,747,-8177,-154,-2,12,-1,0
85134,753,-8176,-141,-2,12,-1,0
85138,761,-8176,-127,-2,12,-1,0
85144,770,-8176,-114,-2,12,-1,0
85149,775,-8177,-103,-2,12,-1,0
85154,779,-8174,-96,-2,12,-1,0
85158,779,-8178,-88,-2,12,-1,0
85163,776,-8178,-81,-2,12,-1,0
85169,772,-8180,-77,-2,12,-1,0
85174,768,-8183,-74,-2,13,-1,0
85179,765,-8185,-70,-2,13,-1,0
85184,766,-8187,-68,-2,13,-1,0
85190,766,-8188,-66,-2,13,-1,0
85196,766,-8188,-59,-2,12,-1,0
85200,767,-8185,-51,-2,12,-1,0
85206,768,-8183,-43,-2,12,-1,0
85212,770,-8183,-34,-2,12,0,0
85217,775,-8181,-23,-2,12,0,0
85223,782,-8179,-13,-2,12,0,0
85228,792,-8180,-6,-2,12,0,0
85234,800,-8181,2,-2,12,0,0
85238,807,-8182,8,-2,12,0,0
85244,811,-8183,13,-2,13,0,0
85249,810,-8183,15,-2,13,0,0
85254,806,-8183,20,-2,13,0,0
85259,800,-8182,22,-2,13,0,0
85264,795,-8183,25,-2,13,0,0
85270,784,-8184,24,-2,13,0,0
85275,775,-8185,22,-2,13,0,0
85280,768,-8184,14,-2,13,0,0
85285,760,-8182,10,-2,13,0,0
85290,755,-8183,0,-2,13,0,0
85296,747,-8187,-3,-2,13,0,0
85301,739,-8187,-3,-3,13,0,0
85306,731,-8187,-6,-2,13,0,0
85312,722,-8189,-5,-2,13,0,0
85317,711,-8190,-5,-3,13,0,0
85323,703,-8188,-4,-3,13,0,0
85328,692,-8189,-4,-3,13,0,0
85334,683,-8189,-10,-3,13,0,0
85339,675,-8187,-13,-3,13,0,0
85344,666,-8187,-22,-3,14,0,0
85349,664,-8185,-27,-3,14,0,0
85354,658,-8183,-29,-3,15,0,0
85359,646,-8182,-31,-3,15,0,0
85365,641,-8186,-32,-3,15,0,0
85370,632,-8189,-28,-3,15,0,0
85376,625,-8192,-31,-3,15,0,0
85382,621,-8190,-35,-3,15,0,0
85387,614,-8191,-38,-3,15,0,0
85393,609,-8191,-44,-3,14,0,0
85398,605,-8192,-56,-3,14,0,0
85403,597,-8191,-67,-3,14,0,0
85409,588,-8194,-75,-3,13,0,0
85415,583,-8192,-84,-3,13,0,0
85419,572,-8191,-94,-3,13,0,0
85425,568,-8189,-104,-3,13,0,0
85430,563,-8189,-109,-3,12,0,0
85436,557,-8186,-112,-3,12,0,0
85441,556,-8187,-110,-3,12,0,0
85447,558,-8186,-107,-3,12,0,0
85452,561,-8184,-107,-3,12,0,0
85458,568,-8182,-109,-3,12,0,0
85463,576,-8183,-109,-3,13,0,0
85469,585,-8184,-104,-3,13,0,0
85474,597,-8184,-95,-3,13,0,0
85479,606,-8183,-88,-3,13,-1,0
85484,618,-8182,-74,-3,13,0,0
85489,631,-8182,-72,-3,14,0,0
85494,640,-8183,-70,-3,14,0,0
85498,654,-8178,-67,-3,14,0,0
85502,670,-8176,-64,-3,15,0,0
85506,682,-8176,-64,-3,15,0,0
85510,691,-8178,-61,-3,15,0,0
85514,694,-8177,-61,-3,15,0,0
85518,692,-8177,-63,-3,15,0,0
85523,689,-8177,-72,-3,16,0,0
85527,681,-8179,-80,-3,16,0,0
85531,673,-8181,-90,-3,16,0,0
85535,668,-8181,-98,-3,16,0,0
85539,659,-8181,-102,-3,16,0,0
85543,655,-8181,-109,-3,16,0,0
85547,650,-8183,-116,-3,15,0,0
85551,642,-8184,-117,-3,15,0,0
85555,637,-8183,-123,-3,14,0,0
85559,632,-8180,-130,-3,14,0,0
85563,626,-8180,-140,-3,13,0,0
85567,622,-8178,-144,-3,13,0,0
85571,616,-8178,-150,-3,12,0,0
85575,608,-8178,-157,-2,12,0,0
85579,599,-8179,-162,-2,12,-1,0
85583,589,-8179,-168,-2,13,-1,0
85587,580,-8181,-171,-2,13,-1,0
85591,577,-8183,-173,-2,13,-1,0
85595,579,-8184,-172,-2,13,-1,0
85599,590,-8186,-164,-2,13,-1,0
85604,599,-8184,-151,-2,13,-1,0
85609,607,-8185,-137,-2,12,-1,0
85614,623,-8184,-127,-2,12,-1,0
85619,641,-8182,-119,-2,11,-1,0
85624,641,-8182,-116,-2,9,-1,0
85629,636,-8182,-115,-2,8,-1,0
85634,621,-8183,-125,-2,7,-1,0
85639,604,-8185,-133,-2,7,-1,0
85644,585,-8186,-148,-2,7,-1,0
85649,562,-8183,-158,-2,7,-1,0
85654,544,-8181,-165,-2,8,-1,0
85659,526,-8180,-178,-2,8,-1,0
85664,516,-8180,-183,-2,9,-1,0
85669,508,-8180,-190,-2,9,-1,0
85673,504,-8179,-198,-2,9,-1,0
85679,499,-8177,-206,-2,9,-1,0
85684,496,-8179,-212,-2,9,-1,0
85689,495,-8181,-212,-2,10,-1,0
85694,496,-8183,-209,-2,10,-1,0
85699,501,-8184,-196,-2,10,-1,0
85704,512,-8181,-180,-2,11,-1,0
85709,525,-8180,-168,-2,11,-1,0
85714,540,-8182,-155,-2,11,-1,0
85719,559,-8183,-141,-2,10,-1,0
85724,580,-8185,-124,-2,10,-1,0
85730,594,-8184,-105,-2,10,-1,0
85736,608,-8184,-89,-2,10,-1,0
85741,622,-8185,-82,-2,10,-1,0
85746,632,-8187,-75,-2,10,-1,0
85752,638,-8186,-72,-2,10,-1,0
85758,640,-8188,-70,-2,9,-1,0
85764,638,-8190,-67,-2,9,-1,0
85770,636,-8190,-66,-2,9,-1,0
85775,634,-8190,-66,-2,9,-1,0
85780,636,-8188,-68,-2,8,-1,0
85786,640,-8187,-69,-2,8,-1,0
85791,640,-8187,-75,-2,8,-1,0
85797,646,-8185,-80,-2,8,-1,0
85803,657,-8184,-80,-2,8,-1,0
85809,665,-8183,-82,-2,8,-1,0
85815,677,-8180,-79,-2,9,-1,0
85821,691,-8178,-71,-2,9,-1,0
85827,701,-8177,-68,-2,10,-1,0
85831,718,-8176,-60,-2,10,-1,0
85835,736,-8177,-52,-2,10,-1,0
85839,750,-8180,-44,-2,10,-1,0
85845,765,-8182,-33,-2,10,-1,0
85851,774,-8182,-30,-2,10,-1,0
85857,785,-8181,-29,-2,10,-1,0
85861,792,-8184,-27,-2,10,-1,0
85867,793,-8187,-33,-2,10,-1,0
85871,787,-8187,-39,-2,9,-1,0
85876,777,-8185,-46,-2,9,-1,0
85881,767,-8188,-54,-2,9,-1,0
85885,757,-8188,-65,-2,9,-1,0
85891,747,-8189,-82,-2,8,-1,0
85896,733,-8188,-99,-2,8,-1,0
85901,721,-8190,-120,-2,7,-1,0
85906,704,-8190,-143,-1,6,-1,0
85912,684,-8188,-167,-1,6,-1,0
85917,665,-8188,-193,-1,5,-1,0
85922,644,-8187,-219,-1,5,-1,0
85927,625,-8185,-243,-1,4,-1,0
85932,603,-8181,-264,-1,3,-1,0
85938,583,-8181,-280,-1,2,-1,0
85943,562,-8181,-293,-1,1,-1,0
85949,544,-8181,-308,-1,0,-2,0
85954,526,-8179,-319,-1,-1,-2,0
85959,511,-8179,-332,0,-1,-2,0
85964,498,-8179,-345,0,-1,-2,0
85970,492,-8179,-352,0,-1,-2,0
85975,493,-8178,-352,0,-1,-2,0
85979,504,-8175,-342,0,-1,-2,0
85985,523,-8174,-326,0,0,-2,0
85991,553,-8173,-308,0,1,-2,0
85997,586,-8171,-283,0,1,-2,0
86001,624,-8170,-249,0,1,-2,0
86004,660,-8171,-214,0,1,-2,0
86008,694,-8170,-177,0,1,-2,0
86012,723,-8172,-140,0,1,-2,0
86016,754,-8177,-103,0,0,-2,0
86020,787,-8182,-69,0,0,-2,0
86024,820,-8184,-39,0,1,-2,0
86028,856,-8181,-5,0,1,-2,0
86032,893,-8180,25,0,1,-1,0
86036,930,-8177,60,0,1,-1,0
86040,964,-8177,99,0,1,-1,0
86044,995,-8177,135,0,1,-1,0
86047,1022,-8180,168,-1,2,-1,0
86051,1044,-8178,204,-1,2,-1,0
86055,1063,-8177,239,-1,3,-1,0
86059,1080,-8178,265,-1,3,0,0
86063,1091,-8178,292,-1,4,0,0
86068,1098,-8176,317,-1,4,0,0
86073,1102,-8179,335,-1,4,0,0
86078,1101,-8180,350,-1,5,0,0
86083,1093,-8180,358,-1,5,0,0
86088,1082,-8175,364,-2,6,0,0
86093,1066,-8173,366,-2,6,0,0
86098,1046,-8175,359,-2,6,0,0
86103,1023,-8177,351,-2,6,0,0
86108,989,-8177,331,-2,6,1,0
86113,955,-8176,311,-2,6,1,0
86118,919,-8178,292,-2,6,1,0
86123,886,-8179,276,-2,6,1,0
86128,853,-8181,258,-2,6,1,0
86133,822,-8181,243,-2,5,1,0
86138,793,-8180,228,-2,5,1,0
86143,760,-8181,211,-2,5,0,0
86148,730,-8179,188,-2,4,0,0
86153,698,-8177,160,-2,3,0,0
86158,662,-8176,139,-2,2,0,0
86163,627,-8176,114,-2,1,0,0
86168,591,-8178,85,-2,0,0,0
86173,556,-8181,51,-2,-1,0,0
86178,523,-8185,22,-2,-1,0,0
86183,491,-8188,-10,-2,-3,0,0
86188,458,-8188,-42,-2,-4,0,0
86193,421,-8189,-75,-2,-5,-1,0
86198,383,-8191,-111,-2,-6,-1,0
86203,356,-8193,-142,-2,-6,-1,0
86208,332,-8192,-170,-2,-7,-1,0
86213,313,-8189,-194,-1,-7,-1,0
86218,304,-8188,-210,-1,-7,-1,0
86223,298,-8188,-221,-1,-7,-1,0
86229,303,-8187,-225,-1,-7,-1,0
86235,313,-8185,-222,-1,-7,-2,0
86239,331,-8184,-215,-1,-7,-2,0
86245,357,-8183,-204,-1,-6,-2,0
86251,390,-8183,-184,-1,-6,-2,0
86257,425,-8180,-161,-1,-6,-2,0
86263,464,-8178,-136,-1,-6,-2,0
86268,505,-8177,-109,-1,-6,-2,0
86274,545,-8177,-85,-1,-6,-2,0
86279,582,-8176,-62,-1,-6,-2,0
86284,620,-8177,-43,-1,-7,-2,0
86290,652,-8178,-27,-1,-7,-2,0
86295,681,-8178,-15,-1,-7,-2,0
86299,706,-8178,-3,-1,-8,-2,0
86304,726,-8176,12,-1,-7,-2,0
86309,744,-8176,30,-1,-7,-2,0
86314,766,-8174,42,-1,-7,-2,0
86319,784,-8172,56,-1,-6,-2,0
86324,798,-8175,73,-1,-5,-1,0
86330,812,-8180,94,-1,-4,-1,0
86335,841,-8180,110,-1,-3,-1,0
86340,864,-8178,132,-1,-3,-1,0
86345,885,-8175,152,-1,-3,-1,0
86351,901,-8173,172,-1,-3,-1,0
86356,918,-8173,189,-1,-2,-1,0
86361,931,-8173,199,-1,-2,-1,0
86367,940,-8173,217,-2,-2,-1,0
86372,943,-8172,232,-2,-1,-1,0
86378,943,-8173,237,-2,-1,-1,0
86383,946,-8175,247,-2,-1,0,0
86387,948,-8176,250,-2,0,0,0
86391,959,-8177,258,-2,0,0,0
86395,968,-8177,269,-2,1,0,0
86398,976,-8177,280,-2,1,0,0
86403,979,-8178,284,-2,0,0,0
86407,977,-8180,287,-2,1,0,0
86410,977,-8182,290,-2,1,0,0
86414,971,-8182,290,-2,1,0,0
86419,966,-8181,291,-3,1,0,0
86423,959,-8178,288,-3,1,0,0
86428,951,-8176,278,-3,1,0,0
86433,944,-8173,266,-3,1,0,0
86438,938,-8175,251,-3,1,0,0
86443,930,-8175,235,-3,1,0,0
86448,916,-8175,210,-3,0,0,0
86453,894,-8176,187,-3,0,0,0
86458,869,-8174,163,-3,0,0,0
86463,841,-8172,136,-3,-1,0,0
86467,811,-8171,107,-3,-1,0,0
86473,783,-8173,75,-3,-1,1,0
86478,754,-8175,41,-3,-1,0,0
86483,726,-8177,6,-3,-1,0,0
86488,698,-8177,-31,-3,-1,0,0
86493,666,-8178,-64,-2,-1,0,0
86497,631,-8178,-97,-2,-2,0,0
86502,595,-8177,-132,-2,-2,0,0
86508,551,-8177,-170,-2,-3,0,0
86513,504,-8178,-210,-2,-4,0,0
86518,458,-8179,-236,-2,-5,0,0
86523,410,-8180,-271,-2,-5,-1,0
86529,368,-8180,-310,-2,-6,-1,0
86535,332,-8182,-345,-1,-7,-1,0
86540,303,-8181,-372,-1,-8,-1,0
86546,285,-8181,-391,-1,-8,-1,0
86551,273,-8180,-406,-1,-9,-1,0
86558,266,-8181,-418,-1,-9,-2,0
86564,264,-8181,-422,-1,-10,-2,0
86569,265,-8182,-419,0,-11,-2,0
86575,271,-8185,-411,0,-12,-2,0
86580,278,-8186,-397,0,-13,-2,0
86586,291,-8184,-374,0,-14,-2,0
86592,306,-8186,-348,0,-14,-2,0
86598,329,-8185,-315,0,-14,-3,0
86603,358,-8183,-274,0,-15,-3,0
86609,398,-8180,-231,0,-15,-3,0
86614,443,-8177,-182,0,-15,-3,0
86618,493,-8179,-127,0,-15,-3,0
86623,546,-8179,-74,0,-14,-3,0
86629,608,-8178,-15,0,-14,-3,0
86634,669,-8178,40,0,-14,-3,0
86639,727,-8176,99,0,-13,-2,0
86644,790,-8174,164,0,-13,-2,0
86650,850,-8174,221,0,-12,-2,0
86654,909,-8175,274,-1,-11,-2,0
86658,967,-8176,328,-1,-10,-2,0
86662,1025,-8177,374,-1,-9,-2,0
86666,1072,-8177,417,-1,-9,-2,0
86670,1113,-8174,455,-1,-8,-1,0
86674,1148,-8169,485,-1,-6,-1,0
86678,1184,-8170,510,-2,-5,-1,0
86682,1212,-8167,529,-2,-4,-1,0
86686,1233,-8164,546,-2,-4,-1,0
86690,1249,-8163,559,-2,-3,0,0
86694,1257,-8164,570,-2,-2,0,0
86698,1264,-8166,569,-2,-2,0,0
86702,1270,-8167,567,-3,-1,0,0
86707,1266,-8167,556,-3,-1,0,0
86712,1257,-8168,535,-3,-1,0,0
86717,1241,-8171,512,-3,-1,1,0
86722,1218,-8170,489,-3,0,1,0
86727,1196,-8169,459,-3,0,1,0
86732,1168,-8169,433,-3,1,1,0
86737,1137,-8170,404,-3,1,1,0
86742,1104,-8168,372,-3,1,1,0
86747,1067,-8169,343,-3,1,1,0
86752,1026,-8169,309,-4,1,1,0
86757,984,-8171,271,-3,1,1,0
86762,938,-8171,228,-3,1,1,0
86767,890,-8174,185,-3,1,1,0
86772,840,-8178,139,-3,1,1,0
86777,796,-8182,98,-3,1,1,0
86782,756,-8182,63,-3,1,1,0
86788,725,-8183,34,-3,1,1,0
86793,700,-8182,16,-3,1,1,0
86798,682,-8182,1,-3,2,1,0
86804,674,-8183,-3,-3,2,1,0
86809,674,-8182,-1,-3,2,1,0
86815,677,-8180,-1,-3,1,1,0
86820,686,-8178,-4,-3,1,1,0
86825,701,-8176,-4,-3,1,1,0
86830,722,-8179,-2,-3,1,1,0
86836,739,-8182,5,-3,0,1,0
86840,754,-8178,13,-3,-1,1,0
86846,770,-8175,21,-3,-2,1,0
86851,783,-8173,26,-3,-2,1,0
86857,794,-8174,26,-3,-2,1,0
86861,802,-8174,16,-3,-2,1,0
86867,806,-8176,6,-3,-2,1,0
86872,810,-8175,-1,-3,-2,1,0
86878,810,-8172,-6,-3,-2,1,0
86884,811,-8170,-2,-3,-1,1,0
86890,816,-8168,5,-3,0,1,0
86895,821,-8167,13,-3,0,1,0
86900,826,-8168,21,-3,0,1,0
86905,832,-8171,31,-3,0,1,0
86911,839,-8173,39,-3,0,1,0
86916,845,-8174,42,-3,1,1,0
86921,852,-8175,43,-3,1,1,0
86926,860,-8177,39,-3,1,1,0
86931,866,-8177,35,-3,2,1,0
86937,873,-8175,30,-3,2,1,0
86941,876,-8173,26,-3,2,1,0
86947,880,-8172,22,-3,3,2,0
86952,883,-8169,11,-3,3,2,0
86957,882,-8167,0,-3,3,2,0
86962,877,-8167,-11,-3,2,2,0
86967,865,-8167,-24,-3,2,2,0
86973,848,-8168,-37,-3,2,2,0
86979,831,-8169,-49,-3,2,2,0
86984,809,-8169,-71,-3,1,2,0
86990,782,-8170,-89,-3,1,2,0
86995,751,-8172,-106,-3,1,2,0
87000,721,-8172,-119,-3,2,2,0
87005,698,-8173,-129,-3,2,2,0
87011,676,-8176,-133,-3,3,2,0
87016,663,-8180,-136,-3,4,2,0
87021,653,-8179,-135,-3,5,2,0
87027,644,-8183,-124,-3,5,2,0
87033,635,-8183,-113,-3,5,2,0
87038,631,-8182,-107,-3,5,2,0
87044,623,-8181,-100,-3,5,2,0
87050,617,-8182,-95,-3,5,2,0
87055,612,-8180,-84,-3,4,2,0
87060,606,-8178,-75,-3,4,1,0
87066,601,-8176,-70,-3,3,1,0
87071,594,-8177,-69,-2,2,1,0
87077,584,-8178,-69,-2,2,1,0
87082,572,-8178,-70,-2,1,1,0
87087,560,-8177,-70,-2,0,1,0
87093,544,-8175,-74,-2,0,1,0
87099,530,-8178,-76,-2,-1,1,0
87104,517,-8182,-78,-2,-1,1,0
87110,506,-8180,-78,-2,-1,1,0
87116,497,-8180,-75,-2,-2,1,0
87121,493,-8180,-69,-2,-2,1,0
87127,492,-8180,-64,-2,-2,1,0
87132,496,-8178,-52,-2,-2,1,0
87138,508,-8177,-44,-2,-1,1,0
87143,527,-8179,-33,-2,-1,1,0
87149,550,-8178,-23,-2,-1,1,0
87154,572,-8183,-13,-2,-1,1,0
87160,591,-8182,1,-2,-1,1,0
87165,603,-8181,18,-2,-1,1,0
87171,614,-8182,36,-2,-1,1,0
87176,622,-8184,49,-2,-1,1,0
87181,629,-8184,62,-2,-1,1,0
87187,638,-8185,71,-2,-1,1,0
87192,649,-8186,81,-2,-1,1,0
87198,658,-8186,82,-2,-2,1,0
87203,666,-8188,83,-2,-2,1,0
87208,672,-8185,83,-3,-2,1,0
87213,672,-8185,82,-3,-2,1,0
87219,667,-8184,79,-3,-2,1,0
87223,660,-8184,76,-3,-2,1,0
87227,653,-8183,73,-3,-2,1,0
87231,647,-8182,74,-3,-2,1,0
87235,643,-8181,76,-3,-2,1,0
87239,639,-8183,77,-3,-1,1,0
87243,640,-8182,82,-3,-1,1,0
87247,639,-8183,84,-3,-1,1,0
87251,637,-8182,85,-3,-2,1,0
87255,635,-8182,86,-3,-2,1,0
87259,628,-8183,85,-3,-2,1,0
87263,621,-8184,82,-3,-2,1,0
87267,612,-8187,79,-3,-2,1,0
87271,606,-8187,74,-3,-2,1,0
87275,595,-8187,73,-3,-2,1,0
87279,581,-8186,73,-3,-1,1,0
87283,566,-8185,75,-3,-1,1,0
87287,555,-8186,71,-3,-1,1,0
87291,545,-8187,72,-3,-1,1,0
87295,536,-8188,74,-3,-1,1,0
87299,524,-8189,74,-3,-2,1,0
87303,509,-8189,70,-3,-2,1,0
87307,490,-8189,68,-3,-2,1,0
87311,471,-8189,65,-3,-2,1,0
87315,450,-8189,59,-3,-2,1,0
87319,431,-8189,55,-3,-3,1,0
87323,419,-8189,50,-3,-3,0,0
87327,409,-8187,47,-3,-3,0,0
87331,398,-8186,45,-3,-4,0,0
87335,388,-8188,42,-3,-4,0,0
87339,376,-8189,37,-3,-5,0,0
87343,364,-8191,34,-3,-6,0,0
87347,354,-8194,28,-3,-7,0,0
87351,341,-8191,20,-3,-8,0,0
87356,326,-8190,16,-3,-9,0,0
87361,312,-8193,10,-3,-10,0,0
87366,303,-8195,12,-3,-10,-1,0
87371,298,-8197,9,-3,-10,-1,0
87376,298,-8196,6,-3,-11,-1,0
87381,298,-8196,0,-3,-11,-1,0
87386,300,-8196,0,-3,-12,-1,0
87391,302,-8197,1,-3,-12,-1,0
87396,302,-8195,6,-3,-12,-1,0
87401,306,-8193,13,-3,-12,-1,0
87406,315,-8192,18,-3,-12,-1,0
87411,329,-8192,25,-3,-12,-1,0
87416,345,-8189,31,-3,-12,-1,0
87421,361,-8186,32,-3,-12,-1,0
87426,372,-8184,29,-3,-12,-1,0
87431,375,-8182,19,-3,-12,-2,0
87436,371,-8182,1,-3,-11,-2,0
87441,357,-8185,-23,-3,-10,-2,0
87446,332,-8186,-61,-3,-8,-2,0
87452,306,-8185,-102,-3,-6,-2,0
87457,283,-8183,-140,-3,-2,-2,0
87462,265,-8183,-171,-3,1,-2,0
87468,254,-8183,-198,-3,4,-2,0
87473,245,-8181,-217,-3,8,-2,0
87478,237,-8180,-223,-3,13,-2,0
87482,238,-8179,-228,-3,18,-2,0
87488,254,-8181,-228,-3,26,-2,0
87493,284,-8179,-222,-3,33,-1,0
87499,330,-8181,-214,-4,41,-1,0
87504,389,-8187,-206,-4,48,-1,0
87510,458,-8189,-203,-4,55,-1,0
87515,542,-8194,-203,-4,61,-1,0
87519,646,-8237,-191,-4,64,0,0
87523,759,-8412,-191,-4,64,0,0
87527,867,-8709,-211,-4,59,0,0
87531,957,-9087,-224,-4,49,0,0
87537,1028,-9500,-213,-4,35,0,0
87541,1090,-9903,-184,-4,21,0,0
87547,1146,-10262,-151,-3,9,0,0
87552,1195,-10568,-141,-3,-1,0,0
87557,1234,-10805,-152,-3,-8,0,0
87561,1253,-10954,-168,-3,-12,0,0
87567,1242,-11011,-183,-3,-14,1,0
87572,1198,-10986,-196,-3,-14,1,0
87578,1130,-10885,-206,-3,-13,1,0
87582,1052,-10724,-228,-3,-10,2,0
87588,980,-10521,-260,-3,-7,2,0
87593,912,-10293,-295,-3,-2,2,0
87598,851,-10044,-327,-3,1,2,0
87603,788,-9790,-349,-3,4,2,0
87608,721,-9535,-363,-3,7,2,0
87612,659,-9283,-362,-3,8,3,0
87618,605,-9045,-349,-3,10,3,0
87623,563,-8818,-330,-3,12,3,0
87627,539,-8607,-307,-3,14,3,0
87633,527,-8407,-285,-3,14,3,0
87638,522,-8217,-259,-3,14,3,0
87643,517,-8039,-228,-3,13,3,0
87648,510,-7868,-200,-3,12,3,0
87653,499,-7698,-175,-3,12,3,0
87658,484,-7533,-160,-3,11,3,0
87664,467,-7368,-152,-3,11,3,0
87668,450,-7199,-144,-3,10,3,0
87674,434,-7035,-139,-3,10,3,0
87679,420,-6869,-138,-3,9,3,0
87683,403,-6705,-137,-3,9,3,0
87687,382,-6541,-136,-3,8,3,0
87691,360,-6377,-134,-3,7,3,0
87696,338,-6212,-132,-3,6,3,0
87701,317,-6048,-132,-3,5,3,0
87706,298,-5880,-137,-3,5,3,0
87711,283,-5714,-139,-4,5,3,0
87716,270,-5546,-130,-4,5,3,0
87721,264,-5373,-113,-4,5,3,0
87726,258,-5198,-88,-4,5,3,0
87732,256,-5023,-62,-4,5,3,0
87737,261,-4850,-36,-4,4,3,0
87741,267,-4677,-3,-5,3,3,0
87747,275,-4504,30,-5,2,3,0
87752,284,-4331,65,-5,0,3,0
87757,291,-4160,112,-6,-1,3,0
87761,301,-3990,159,-6,-2,2,0
87766,313,-3819,205,-6,-4,2,0
87771,325,-3655,251,-7,-6,2,0
87776,345,-3497,292,-7,-7,2,0
87781,371,-3356,322,-8,-10,2,0
87786,405,-3243,333,-8,-12,2,0
87791,445,-3169,328,-9,-13,2,0
87796,486,-3149,300,-9,-15,2,0
87801,523,-3190,254,-9,-17,2,0
87806,552,-3304,182,-9,-17,2,0
87811,573,-3521,79,-9,-17,2,0
87816,591,-3837,-55,-9,-14,2,0
87821,623,-4497,-240,-9,-9,2,0
87826,716,-6194,-604,-5,-22,1,0
87831,779,-4895,-97,-11,-86,0,0
87836,1151,-3896,139,-9,-164,-1,0
87841,957,-3115,479,-9,-183,0,0
87846,777,-2608,636,-8,-151,0,0
87851,609,-4164,523,-7,-78,1,0
87856,556,-5646,-239,-7,-5,2,0
87861,565,-5417,30,-6,40,4,0
87866,378,-5761,-351,-6,79,4,0
87871,16,-6302,-639,-6,118,3,0
87876,-98,-6433,-538,-5,142,1,0
87881,-246,-6648,-710,-4,149,-1,0
87886,-119,-7051,-642,-3,132,-4,0
87891,-215,-7519,-647,-2,100,-3,0
87896,-187,-7971,-589,-2,46,-2,0
87901,-91,-8388,-499,-2,3,-2,0
87906,188,-8744,-385,-2,-20,-4,0
87911,451,-9012,-338,-1,-29,-5,0
87916,676,-9208,-345,0,-42,-5,0
87921,666,-9329,-385,0,-54,-5,0
87926,615,-9377,-403,-1,-57,-4,0
87931,475,-9351,-324,-1,-42,-4,0
87936,389,-9261,-222,-1,-22,-4,0
87941,331,-9129,-176,-1,-8,-3,0
87946,349,-8966,-184,-1,-3,-3,0
87951,370,-8787,-243,-1,-2,-3,0
87957,420,-8593,-315,-1,-3,-3,0
87962,408,-8385,-346,-1,-4,-3,0
87967,376,-8170,-366,-1,-6,-3,0
87973,294,-7955,-366,-1,-10,-3,0
87978,204,-7745,-345,-1,-14,-3,0
87983,147,-7536,-348,0,-16,-3,0
87989,120,-7326,-356,0,-17,-4,0
87994,131,-7119,-362,0,-18,-4,0
87999,148,-6915,-370,0,-18,-4,0
88004,176,-6717,-373,0,-19,-4,0
88009,209,-6528,-361,0,-18,-4,0
88014,239,-6346,-352,0,-17,-4,0
88020,241,-6168,-326,0,-16,-4,0
88025,274,-5997,-300,0,-16,-4,0
88030,286,-5830,-268,0,-16,-4,0
88036,332,-5667,-259,0,-17,-4,0
88040,374,-5506,-245,0,-19,-4,0
88046,411,-5343,-240,0,-22,-4,0
88051,440,-5177,-231,0,-26,-4,0
88057,469,-5003,-215,0,-29,-4,0
88061,474,-4822,-199,0,-31,-4,0
88067,497,-4632,-188,-1,-34,-4,0
88073,501,-4429,-165,-1,-35,-4,0
88079,511,-4217,-146,-1,-38,-4,0
88085,673,-5955,-200,2,-42,-4,0
88091,1027,-5564,-48,-2,-70,-5,0
88097,1166,-4455,87,-1,-116,-5,0
88102,1177,-5724,342,-1,-157,-5,0
88108,1319,-5849,151,-3,-167,-6,0
88114,1077,-7351,423,-2,-168,-5,0
88119,1113,-7586,299,-3,-167,-4,0
88125,1033,-7631,228,-3,-143,-3,0
88131,902,-7675,253,-3,-112,-2,0
88137,760,-7733,132,-2,-68,-1,0
88142,633,-7822,49,-1,-29,-1,0
88147,579,-7900,-109,-2,-3,0,0
88153,452,-7970,-303,-2,16,0,0
88159,418,-8021,-375,-3,20,1,0
88163,252,-8056,-518,-4,32,1,0
88168,209,-8083,-515,-4,42,1,0
88174,149,-8102,-495,-4,51,1,0
88180,106,-8114,-433,-4,56,1,0
88185,124,-8124,-317,-4,57,1,0
88190,99,-8130,-235,-4,56,1,0
88196,161,-8136,-136,-4,51,0,0
88201,134,-8143,-66,-4,44,0,0
88206,190,-8150,0,-4,35,0,0
88212,181,-8161,54,-4,30,0,0
88216,178,-8172,77,-4,24,0,0
88220,224,-8180,113,-4,22,-1,0
88224,236,-8191,109,-4,21,-1,0
88228,298,-8197,141,-4,18,-1,0
88232,358,-8197,162,-4,16,-1,0
88235,441,-8194,167,-4,13,-1,0
88239,494,-8193,192,-4,9,-1,0
88243,578,-8192,175,-4,4,-1,0
88247,600,-8186,172,-4,0,-1,0
88251,605,-8186,136,-4,-5,-1,0
88255,607,-8188,91,-4,-8,-1,0
88259,539,-8187,29,-4,-8,-1,0
88263,528,-8185,-59,-4,-9,-1,0
88267,494,-8183,-129,-4,-6,-1,0
88271,462,-8183,-216,-4,-4,-1,0
88276,467,-8181,-281,-4,-3,-1,0
88280,484,-8181,-350,-4,-1,-1,0
88284,487,-8183,-395,-4,-1,-1,0
88288,513,-8184,-421,-4,-3,-1,0
88292,525,-8185,-450,-4,-4,-2,0
88296,506,-8185,-461,-4,-5,-2,0
88301,528,-8184,-483,-4,-7,-2,0
88305,510,-8184,-500,-4,-7,-2,0
88310,499,-8183,-526,-3,-8,-2,0
88315,511,-8183,-543,-3,-7,-2,0
88320,516,-8182,-562,-3,-6,-2,0
88325,534,-8183,-581,-3,-6,-2,0
88330,557,-8185,-585,-3,-6,-2,0
88335,573,-8186,-592,-3,-6,-2,0
88340,588,-8186,-583,-3,-7,-2,0
88345,607,-8187,-568,-3,-8,-2,0
88350,598,-8188,-556,-3,-9,-2,0
88355,603,-8189,-540,-3,-10,-2,0
88360,598,-8193,-532,-3,-10,-2,0
88365,584,-8191,-531,-3,-11,-2,0
88370,588,-8190,-537,-2,-11,-2,0
88375,581,-8189,-542,-2,-10,-2,0
88380,578,-8190,-557,-2,-8,-2,0
88385,581,-8190,-564,-2,-7,-2,0
88390,584,-8189,-564,-2,-6,-2,0
88395,576,-8188,-562,-2,-6,-2,0
88400,573,-8191,-551,-2,-6,-2,0
88405,568,-8189,-536,-2,-6,-2,0
88410,555,-8189,-527,-2,-6,-2,0
88415,549,-8189,-515,-2,-7,-2,0
88420,542,-8187,-513,-2,-7,-2,0
88425,538,-8188,-511,-2,-7,-2,0
88430,535,-8189,-508,-2,-7,-2,0
88435,542,-8190,-510,-2,-6,-2,0
88440,545,-8189,-508,-2,-5,-2,0
88445,552,-8191,-498,-2,-5,-2,0
88450,571,-8190,-493,-2,-4,-2,0
88455,581,-8187,-486,-2,-4,-2,0
88460,599,-8187,-473,-2,-4,-2,0
88465,617,-8187,-461,-2,-3,-2,0
88470,627,-8188,-449,-2,-4,-2,0
88475,642,-8188,-436,-2,-4,-2,0
88480,653,-8187,-424,-2,-5,-2,0
88485,653,-8184,-419,-2,-5,-2,0
88490,658,-8183,-416,-1,-6,-1,0
88495,664,-8182,-419,-1,-6,-1,0
88500,664,-8181,-420,-1,-6,-1,0
88505,677,-8183,-416,-1,-6,-1,0
88510,676,-8185,-413,-1,-6,-1,0
88515,674,-8187,-410,-1,-6,-1,0
88520,680,-8188,-404,-1,-7,-1,0
88525,671,-8186,-394,-1,-7,-1,0
88530,666,-8185,-383,-1,-8,-1,0
88535,669,-8185,-377,-1,-8,-1,0
88540,652,-8185,-372,-1,-8,-1,0
88545,645,-8187,-371,-1,-8,-1,0
88550,652,-8188,-367,-1,-7,-1,0
88555,640,-8189,-368,-1,-7,-1,0
88560,646,-8189,-366,-1,-7,-1,0
88565,650,-8186,-364,-1,-7,-1,0
88570,640,-8187,-361,-1,-6,-1,0
88575,643,-8188,-358,-1,-6,-1,0
88580,638,-8192,-358,-1,-5,-1,0
88585,627,-8191,-355,-1,-4,-1,0
88590,628,-8191,-355,-1,-4,-1,0
88595,620,-8189,-354,-1,-3,-1,0
88600,610,-8188,-354,-1,-2,-1,0
88605,617,-8187,-349,-1,-1,-1,0
88610,616,-8188,-346,-1,0,-1,0
88615,622,-8187,-340,-1,-1,-1,0
88620,629,-8183,-329,-1,-1,-1,0
88625,619,-8180,-322,-1,0,-1,0
88630,621,-8179,-310,-1,-1,-1,0
88635,622,-8178,-301,-1,-1,-1,0
88640,608,-8181,-301,-1,-1,-1,0
88645,609,-8183,-296,-1,-1,-1,0
88650,613,-8182,-291,-1,-1,-1,0
88655,611,-8182,-285,-1,-1,-1,0
88660,621,-8183,-277,-1,-1,-1,0
88665,629,-8184,-272,-1,-1,-1,0
88670,634,-8183,-267,-1,-1,-1,0
88675,645,-8183,-264,-1,-2,-1,0
88680,648,-8182,-263,-1,-1,-1,0
88685,649,-8183,-257,-1,-2,-1,0
88690,657,-8184,-245,-1,-2,-1,0
88695,661,-8182,-236,-1,-1,-1,0
88700,669,-8181,-231,-2,-2,-1,0
88705,684,-8181,-226,-2,-2,-1,0
88710,689,-8183,-223,-2,-2,-1,0
88715,693,-8183,-221,-2,-2,-1,0
88720,697,-8182,-215,-2,-2,-1,0
88725,695,-8182,-216,-2,-2,-1,0
88730,695,-8182,-214,-2,-2,-1,0
88735,694,-8183,-210,-2,-2,-1,0
88740,690,-8182,-213,-2,-2,-1,0
88745,693,-8183,-221,-2,-2,-1,0
88750,695,-8184,-224,-2,-2,-1,0
88755,698,-8182,-221,-2,-2,-1,0
88760,700,-8182,-216,-2,-2,-1,0
88765,705,-8183,-217,-2,-2,-1,0
88770,710,-8184,-214,-2,-1,-1,0
88775,716,-8184,-210,-2,-1,-1,0
88780,721,-8184,-212,-2,-1,-1,0
88785,727,-8184,-213,-2,-1,-1,0
88790,733,-8182,-208,-2,-1,-1,0
88795,742,-8180,-209,-2,-1,-1,0
88800,746,-8180,-212,-2,0,-1,0
88805,750,-8180,-217,-2,0,-1,0
88810,754,-8181,-223,-2,0,-1,0
88815,753,-8181,-230,-2,0,-1,0
88820,748,-8182,-237,-2,0,0,0
88825,742,-8184,-245,-2,1,0,0
88829,739,-8186,-255,-2,1,0,0
88834,746,-8186,-266,-2,2,0,0
88839,752,-8184,-274,-2,2,0,0
88844,756,-8188,-277,-2,2,0,0
88849,765,-8189,-278,-2,2,0,0
88854,771,-8190,-274,-2,3,0,0
88859,769,-8190,-270,-2,2,0,0
88864,773,-8188,-274,-2,2,0,0
88869,766,-8187,-275,-2,2,0,0
88874,759,-8186,-273,-2,2,0,0
88879,759,-8187,-272,-2,3,0,0
88884,750,-8185,-272,-2,3,0,0
88889,743,-8186,-274,-2,4,0,0
88894,740,-8187,-271,-2,4,0,0
88899,728,-8186,-270,-2,5,0,0
88904,719,-8185,-269,-2,5,0,0
88909,714,-8182,-264,-2,5,0,0
88914,697,-8184,-256,-2,4,0,0
88919,687,-8183,-247,-2,4,0,0
88924,677,-8183,-237,-2,4,0,0
88929,665,-8183,-230,-2,5,0,0
88934,670,-8183,-226,-2,5,0,0
88939,670,-8184,-226,-2,5,0,0
88944,667,-8184,-225,-2,4,0,0
88949,668,-8182,-219,-2,4,0,0
88954,658,-8181,-219,-2,4,0,0
88959,649,-8182,-217,-2,3,0,0
88964,642,-8181,-214,-2,3,0,0
88969,628,-8180,-217,-2,3,0,0
88974,618,-8180,-219,-2,3,0,0
88979,614,-8183,-218,-2,4,0,0
88984,605,-8182,-223,-2,4,0,0
88989,606,-8181,-231,-2,5,0,0
88994,608,-8183,-235,-2,5,0,0
88999,599,-8185,-239,-2,6,0,0
89004,596,-8187,-238,-2,5,0,0
89009,592,-8187,-234,-2,6,0,0
89014,587,-8187,-235,-2,5,0,0
89019,588,-8188,-235,-2,5,0,0
89024,591,-8189,-232,-2,5,0,0
89029,597,-8188,-231,-2,4,0,0
89034,614,-8186,-230,-2,4,0,0
89039,624,-8186,-232,-2,3,0,0
89044,637,-8187,-235,-2,3,0,0
89049,649,-8190,-239,-2,2,0,0
89054,648,-8189,-242,-2,1,0,0
89059,647,-8188,-246,-2,0,0,0
89064,646,-8193,-249,-2,0,0,0
89069,641,-8192,-253,-2,0,0,0
89075,638,-8192,-262,-2,-1,0,0
89080,633,-8191,-273,-2,-1,0,0
89085,627,-8189,-280,-2,-1,0,0
89090,626,-8187,-287,-2,-1,0,0
89096,624,-8188,-293,-2,-1,0,0
89101,619,-8188,-298,-2,-1,0,0
89107,616,-8187,-302,-2,-2,0,0
89112,617,-8189,-303,-2,-2,0,0
89118,616,-8189,-299,-2,-2,0,0
89123,612,-8186,-289,-2,-2,0,0
89128,609,-8187,-285,-2,-2,0,0
89133,608,-8187,-281,-2,-2,0,0
89137,607,-8188,-279,-2,-2,0,0
89142,609,-8189,-278,-2,-2,0,0
89147,611,-8190,-275,-2,-2,0,0
89153,607,-8191,-275,-2,-2,0,0
89158,607,-8191,-274,-2,-2,0,0
89163,601,-8190,-272,-2,-2,0,0
89168,596,-8190,-273,-2,-2,-1,0
89173,596,-8188,-273,-2,-2,-1,0
89179,593,-8186,-269,-2,-2,0,0
89184,593,-8185,-266,-2,-2,-1,0
89190,594,-8184,-259,-2,-2,-1,0
89195,596,-8185,-256,-2,-2,-1,0
89201,600,-8186,-255,-2,-2,-1,0
89207,601,-8186,-252,-2,-2,-1,0
89212,600,-8186,-247,-2,-2,-1,0
89217,602,-8187,-246,-2,-2,-1,0
89222,601,-8184,-242,-2,-2,-1,0
89228,601,-8183,-241,-3,-2,-1,0
89233,605,-8182,-240,-2,-2,-1,0
89239,606,-8183,-243,-2,-2,-1,0
89244,610,-8182,-247,-3,-2,-1,0
89249,613,-8181,-252,-3,-2,-1,0
89255,618,-8182,-257,-3,-2,-1,0
89261,623,-8182,-265,-3,-2,-1,0
89267,627,-8182,-268,-3,-2,-1,0
89273,631,-8184,-275,-3,-2,-1,0
89279,635,-8183,-276,-3,-2,-1,0
89284,637,-8182,-283,-3,-1,-1,0
89291,638,-8181,-289,-3,-1,-1,0
89297,644,-8181,-293,-3,-1,-1,0
89302,649,-8181,-296,-3,-1,-1,0
89308,652,-8183,-292,-3,-1,-1,0
89314,657,-8183,-288,-3,-1,-1,0
89320,658,-8181,-282,-3,-1,-1,0
89325,659,-8181,-277,-3,-1,-1,0
89332,660,-8179,-272,-3,-1,-1,0
89338,659,-8177,-265,-3,-1,-1,0
89343,658,-8176,-263,-3,-1,-1,0
89349,654,-8177,-267,-3,-1,-1,0
89356,650,-8178,-275,-3,-1,-1,0
89362,652,-8181,-280,-3,-1,0,0
89367,651,-8181,-285,-3,-1,-1,0
89373,648,-8180,-289,-3,-1,0,0
89379,650,-8181,-298,-3,-1,0,0
89384,646,-8181,-308,-3,-1,-1,0
89390,642,-8181,-312,-3,-1,-1,0
89396,640,-8181,-317,-3,-1,0,0
89402,634,-8183,-326,-3,-1,0,0
89407,635,-8183,-334,-3,-1,0,0
89412,638,-8181,-343,-3,-1,0,0
89418,639,-8180,-351,-3,0,0,0
89423,648,-8179,-360,-3,0,0,0
89429,653,-8179,-366,-2,0,0,0
89434,653,-8183,-373,-2,0,0,0
89440,657,-8186,-380,-2,0,0,0
89444,657,-8186,-387,-2,0,-1,0
89450,654,-8183,-393,-2,0,0,0
89456,654,-8184,-402,-2,0,0,0
89461,654,-8187,-410,-2,1,0,0
89466,657,-8186,-419,-2,1,0,0
89472,665,-8185,-428,-2,1,0,0
89478,670,-8185,-441,-2,1,0,0
89482,679,-8184,-452,-2,1,0,0
89488,686,-8185,-458,-2,1,0,0
89494,692,-8186,-466,-2,1,0,0
89499,698,-8186,-470,-2,1,0,0
89504,700,-8188,-470,-2,1,0,0
89510,700,-8186,-469,-2,0,0,0
89516,706,-8186,-471,-2,0,0,0
89521,712,-8185,-467,-2,0,0,0
89527,720,-8182,-461,-2,0,0,0
89532,732,-8180,-452,-2,0,0,0
89537,743,-8179,-437,-2,0,0,0
89542,752,-8176,-430,-2,0,0,0
89548,765,-8176,-423,-2,0,0,0
89554,768,-8177,-419,-2,0,0,0
89560,767,-8177,-415,-2,-1,0,0
89564,761,-8179,-407,-2,-1,0,0
89570,753,-8180,-402,-1,-1,0,0
89576,746,-8180,-398,-1,-1,0,0
89582,738,-8180,-393,-1,-1,0,0
89587,729,-8179,-392,-1,-1,0,0
89593,728,-8179,-392,-1,-1,0,0
89599,724,-8179,-396,-1,0,0,0
89604,723,-8179,-401,-1,0,0,0
89609,721,-8181,-409,-1,1,0,0
89615,717,-8183,-409,-1,2,0,0
89620,711,-8184,-410,-1,3,0,0
89625,698,-8184,-404,-1,4,0,0
89630,690,-8183,-397,-1,5,0,0
89636,687,-8185,-386,-1,5,0,0
89642,686,-8184,-380,-1,6,1,0
89647,688,-8183,-377,-1,6,1,0
89653,685,-8182,-374,-1,6,1,0
89658,684,-8182,-372,-1,6,1,0
89663,688,-8184,-363,-1,5,1,0
89669,686,-8185,-361,-1,5,1,0
89675,683,-8188,-360,-1,4,1,0
89680,679,-8188,-360,-1,4,1,0
89684,669,-8189,-363,-1,4,1,0
89689,664,-8188,-366,-1,3,1,0
89694,661,-8187,-370,-1,3,1,0
89698,653,-8189,-371,-1,3,1,0
89702,643,-8187,-369,-1,3,1,0
89706,629,-8189,-369,-1,2,1,0
89710,616,-8186,-362,-1,2,0,0
89714,605,-8185,-360,-1,2,1,0
89718,593,-8184,-359,-1,1,1,0
89722,581,-8185,-360,-1,1,0,0
89726,570,-8186,-365,-1,0,0,0
89730,556,-8188,-367,-1,0,0,0
89734,540,-8190,-370,-1,-1,0,0
89738,525,-8192,-374,-1,-1,0,0
89742,510,-8192,-373,-1,-1,0,0
89746,497,-8194,-368,-1,-1,0,0
89750,487,-8195,-359,-1,-1,0,0
89754,478,-8194,-351,-1,-1,0,0
89758,472,-8193,-340,-1,-1,0,0
89762,469,-8191,-325,-1,-1,0,0
89766,467,-8190,-307,-1,-1,0,0
89770,472,-8190,-290,-1,-1,0,0
89774,477,-8190,-277,-1,-1,0,0
89778,484,-8188,-264,-1,-2,0,0
89782,490,-8188,-252,-1,-2,0,0
89786,496,-8188,-240,-1,-2,0,0
89790,499,-8190,-225,-1,-2,0,0
89794,507,-8191,-209,-1,-2,0,0
89798,514,-8188,-196,-1,-2,0,0
89802,520,-8192,-186,-1,-2,0,0
89806,532,-8190,-174,-1,-3,0,0
89810,535,-8189,-171,-1,-3,0,0
89814,540,-8190,-162,-1,-3,0,0
89818,545,-8191,-158,-1,-3,0,0
89822,545,-8191,-156,-1,-3,0,0
89826,545,-8195,-154,-1,-3,-1,0
89830,543,-8195,-152,-1,-3,-1,0
89834,538,-8194,-149,-1,-3,-1,0
89838,534,-8193,-146,-1,-3,-1,0
89843,532,-8194,-141,-1,-3,-1,0
89847,530,-8194,-140,-1,-3,-1,0
89851,536,-8193,-142,-1,-3,-1,0
89855,538,-8190,-144,-1,-4,-1,0
89859,536,-8191,-153,-1,-4,-1,0
89863,538,-8192,-162,-1,-4,-1,0
89868,540,-8189,-171,-1,-4,-1,0
89872,536,-8190,-181,-1,-5,-1,0
89876,532,-8192,-183,-1,-5,-1,0
89880,529,-8192,-192,-1,-5,-1,0
89884,527,-8193,-199,-1,-5,-1,0
89889,528,-8192,-201,-1,-5,-1,0
89893,532,-8195,-206,-1,-5,-1,0
89897,534,-8194,-211,-1,-5,-1,0
89901,539,-8193,-217,-1,-5,-1,0
89905,547,-8193,-220,-1,-4,-1,0
89909,554,-8195,-221,-1,-4,-1,0
89914,560,-8194,-221,-1,-4,-1,0
89918,565,-8194,-223,-1,-4,-1,0
89922,567,-8194,-222,-1,-3,-1,0
89926,570,-8192,-215,-1,-3,-1,0
89930,577,-8190,-209,-1,-3,-1,0
89936,579,-8192,-210,-1,-4,-1,0
89942,582,-8193,-211,-1,-4,-1,0
89948,584,-8192,-215,-1,-4,-1,0
89954,585,-8191,-220,-1,-5,-1,0
89960,589,-8192,-230,-1,-5,-1,0
89965,591,-8193,-238,-1,-5,-1,0
89971,591,-8193,-242,-1,-5,-1,0
89977,595,-8192,-252,-1,-5,-1,0
89982,597,-8191,-253,-1,-5,-1,0
89988,597,-8190,-255,-1,-6,-1,0
89994,596,-8190,-256,-1,-6,-1,0
89999,599,-8189,-258,-1,-6,-1,0
90004,606,-8190,-254,-1,-6,-1,0
90010,612,-8187,-249,-1,-6,-1,0
90015,615,-8185,-246,-1,-6,-1,0
90021,618,-8184,-245,-1,-6,-1,0
90027,621,-8185,-240,-1,-6,-1,0
90032,623,-8187,-234,-1,-6,-1,0
90037,629,-8187,-232,-1,-6,-1,0
90041,634,-8188,-227,-1,-6,-1,0
90045,636,-8189,-225,-1,-6,-1,0
90049,634,-8190,-222,-1,-6,-1,0
90053,629,-8192,-218,-1,-6,-1,0
90058,628,-8192,-217,-1,-6,-1,0
90062,628,-8193,-215,-1,-6,-1,0
90066,623,-8192,-216,-1,-6,-1,0
90071,626,-8190,-215,-1,-6,-1,0
90075,632,-8187,-212,-1,-5,-1,0
90079,638,-8187,-209,-1,-5,-1,0
90083,648,-8185,-201,-1,-5,-1,0
90087,656,-8186,-195,-1,-5,-1,0
90091,664,-8188,-189,-1,-6,-1,0
90096,672,-8186,-182,-1,-6,-1,0
90100,678,-8186,-176,-1,-6,-1,0
90104,682,-8186,-169,-1,-6,-1,0
90108,683,-8184,-167,-1,-6,-1,0
90113,686,-8185,-165,-1,-6,-1,0
90118,689,-8183,-160,-1,-5,-1,0
90123,691,-8183,-159,-1,-5,-1,0
90128,691,-8185,-161,-1,-5,-1,0
90133,688,-8186,-160,-1,-5,-1,0
90138,689,-8186,-155,-1,-4,-1,0
90143,690,-8185,-145,-1,-4,-1,0
90148,694,-8183,-135,-1,-3,-1,0
90153,698,-8182,-129,-1,-3,-1,0
90158,704,-8181,-123,-1,-3,-1,0
90163,710,-8180,-122,-1,-3,-1,0
90168,714,-8180,-118,-1,-3,-1,0
90173,715,-8180,-117,-1,-2,-1,0
90178,719,-8179,-114,-1,-3,-1,0
90183,719,-8178,-112,-1,-2,-1,0
90188,719,-8179,-109,-1,-3,-1,0
90194,714,-8184,-108,-1,-3,-1,0
90199,711,-8190,-107,-1,-2,0,0
90204,705,-8192,-110,-1,-3,0,0
90209,700,-8191,-114,-1,-2,0,0
90213,700,-8188,-115,-1,-3,0,0
90218,705,-8187,-123,-1,-3,0,0
90223,706,-8186,-126,-1,-3,0,0
90228,703,-8186,-132,-1,-2,0,0
90233,705,-8186,-135,-1,-2,0,0
90238,708,-8188,-142,-1,-2,0,0
90243,710,-8189,-151,-1,-2,0,0
90248,713,-8191,-157,-1,-2,0,0
90253,717,-8190,-163,-1,-2,0,0
90259,721,-8189,-174,-1,-3,0,0
90263,726,-8188,-181,-1,-3,0,0
90269,733,-8186,-188,-1,-3,0,0
90274,739,-8185,-197,-1,-3,0,0
90280,744,-8183,-201,-1,-3,0,0
90284,749,-8181,-208,-1,-3,0,0
90290,749,-8183,-212,-1,-3,0,0
90295,750,-8182,-211,-1,-3,0,0
90300,750,-8184,-209,-1,-3,0,0
90306,752,-8185,-209,-1,-3,0,0
90311,756,-8187,-212,-1,-2,0,0
90317,760,-8185,-213,-1,-2,0,0
90323,761,-8184,-209,-1,-2,0,0
90329,763,-8181,-201,-1,-2,0,0
90334,765,-8180,-193,-1,-2,0,0
90340,769,-8182,-176,-1,-2,0,0
90344,774,-8183,-161,-1,-1,0,0
90350,776,-8183,-145,-1,-1,1,0
90356,779,-8184,-129,-1,-1,1,0
90362,780,-8185,-119,-1,-1,1,0
90368,777,-8184,-110,-1,-1,1,0
90374,773,-8182,-102,-1,-1,1,0
90380,766,-8184,-97,-1,-1,1,0
90385,754,-8183,-94,-1,-1,1,0
90391,745,-8182,-96,-1,-2,1,0
90396,733,-8183,-97,-1,-2,1,0
90402,720,-8181,-99,-1,-2,1,0
90408,707,-8181,-102,-1,-2,1,0
90414,696,-8181,-105,-1,-2,1,0
90419,688,-8181,-112,-1,-2,1,0
90424,684,-8182,-119,-2,-2,1,0
90430,678,-8185,-127,-1,-2,1,0
90435,676,-8183,-131,-2,-2,1,0
90441,677,-8183,-133,-2,-2,1,0
90446,672,-8185,-136,-2,-2,1,0
90452,664,-8186,-139,-2,-3,1,0
90458,658,-8188,-139,-2,-3,1,0
90463,650,-8189,-136,-1,-3,1,0
90467,642,-8192,-130,-2,-3,1,0
90471,632,-8189,-122,-2,-4,1,0
90475,618,-8190,-122,-1,-4,1,0
90479,607,-8193,-120,-1,-4,1,0
90483,596,-8190,-119,-1,-4,1,0
90489,586,-8190,-115,-2,-4,1,0
90495,574,-8190,-111,-2,-4,1,0
90500,565,-8192,-104,-2,-4,1,0
90505,555,-8190,-96,-2,-4,1,0
90510,547,-8189,-90,-2,-4,1,0
90516,532,-8190,-80,-2,-4,1,0
90521,520,-8190,-73,-2,-4,1,0
90526,510,-8190,-69,-2,-4,1,0
90531,496,-8189,-63,-2,-4,1,0
90536,487,-8189,-60,-2,-4,0,0
90541,480,-8192,-58,-2,-4,0,0
90545,473,-8191,-57,-2,-4,0,0
90550,467,-8189,-55,-2,-4,0,0
90555,461,-8191,-53,-2,-4,0,0
90560,456,-8191,-53,-2,-4,0,0
90564,456,-8190,-48,-2,-4,0,0
90570,455,-8189,-47,-2,-4,0,0
90574,451,-8189,-51,-2,-4,0,0
90579,452,-8190,-52,-2,-4,0,0
90584,455,-8190,-52,-2,-5,0,0
90589,460,-8194,-51,-2,-5,0,0
90594,466,-8197,-46,-2,-5,0,0
90599,471,-8200,-37,-2,-5,0,0
90604,475,-8200,-33,-2,-5,0,0
90609,484,-8198,-27,-2,-6,0,0
90615,487,-8196,-24,-2,-6,0,0
90621,489,-8195,-25,-2,-7,0,0
90626,493,-8194,-26,-2,-7,0,0
90632,493,-8191,-27,-2,-7,0,0
90638,492,-8193,-21,-2,-8,0,0
90643,491,-8193,-20,-2,-7,0,0
90649,491,-8191,-21,-2,-7,0,0
90655,491,-8188,-19,-2,-6,0,0
90661,493,-8190,-19,-2,-6,0,0
90665,498,-8190,-21,-2,-6,0,0
90671,501,-8188,-21,-2,-5,0,0
90677,506,-8189,-23,-3,-4,0,0
90683,509,-8191,-18,-3,-3,0,0
90688,521,-8191,-20,-3,-2,0,0
90694,538,-8191,-18,-3,-1,0,0
90700,545,-8194,-17,-3,-2,0,0
90705,557,-8194,-20,-3,-2,0,0
90711,568,-8194,-19,-3,-1,0,0
90717,575,-8192,-21,-3,-1,0,0
90723,575,-8191,-19,-3,-1,0,0
90728,578,-8188,-28,-3,-2,0,0
90734,572,-8190,-36,-3,-2,0,0
90739,566,-8191,-48,-3,-2,0,0
90744,562,-8190,-67,-3,-2,0,0
90749,557,-8189,-79,-3,-2,0,0
90755,555,-8187,-96,-3,-2,0,0
90761,552,-8186,-110,-3,-2,0,0
90766,547,-8188,-125,-3,-2,0,0
90772,540,-8188,-135,-3,-2,0,0
90778,539,-8190,-149,-3,-2,0,0
90783,538,-8192,-162,-3,-2,0,0
90789,539,-8190,-168,-3,-1,0,0
90795,542,-8191,-171,-3,-1,0,0
90801,547,-8191,-173,-3,-1,0,0
90806,550,-8189,-179,-3,-1,0,0
90811,549,-8190,-183,-3,-1,0,0
90817,549,-8190,-191,-3,-1,0,0
90823,549,-8188,-201,-3,-1,0,0
90828,553,-8191,-205,-3,-1,0,0
90834,555,-8189,-209,-3,-1,0,0
90840,557,-8190,-216,-3,-1,0,0
90845,559,-8190,-227,-3,-2,0,0
90851,557,-8189,-239,-3,-2,0,0
90857,556,-8187,-247,-3,-2,0,0
90863,552,-8189,-251,-3,-2,0,0
90869,551,-8190,-255,-3,-2,0,0
90875,548,-8191,-262,-3,-2,0,0
90880,549,-8194,-265,-2,-1,0,0
90885,550,-8194,-264,-2,-1,0,0
90891,550,-8194,-261,-2,-1,0,0
90896,547,-8197,-259,-2,-2,0,0
90902,548,-8194,-257,-2,-2,0,0
90906,544,-8193,-256,-2,-2,-1,0
90912,538,-8196,-255,-2,-2,0,0
90917,537,-8199,-256,-2,-2,-1,0
90923,535,-8201,-257,-2,-2,0,0
90929,536,-8199,-255,-2,-2,-1,0
90934,536,-8196,-254,-2,-2,-1,0
90938,536,-8193,-255,-2,-3,-1,0
90942,542,-8189,-255,-2,-3,-1,0
90947,540,-8186,-259,-2,-4,-1,0
90951,543,-8183,-263,-2,-5,-1,0
90955,547,-8187,-269,-2,-6,-1,0
90959,553,-8189,-279,-2,-8,-1,0
90964,559,-8192,-286,-2,-9,-1,0
90968,563,-8192,-296,-2,-10,-1,0
90972,562,-8191,-302,-2,-10,-1,0
90976,561,-8188,-302,-2,-10,-1,0
90980,560,-8187,-303,-2,-10,-1,0
90985,557,-8186,-295,-2,-9,-1,0
90989,555,-8183,-286,-2,-8,-1,0
90993,554,-8181,-269,-2,-7,-1,0
90997,556,-8182,-260,-2,-6,-1,0
91001,564,-8179,-245,-2,-5,-1,0
91005,572,-8177,-234,-2,-4,-1,0
91010,584,-8178,-224,-2,-4,-1,0
91014,595,-8181,-216,-2,-4,-1,0
91018,605,-8184,-210,-2,-4,-1,0
91022,606,-8184,-204,-2,-4,-1,0
91026,601,-8187,-203,-2,-4,-1,0
91030,595,-8187,-195,-2,-4,-1,0
91035,594,-8188,-184,-2,-3,-1,0
91039,597,-8186,-172,-2,-4,-1,0
91043,601,-8185,-161,-2,-4,-1,0
91047,602,-8183,-156,-2,-4,-1,0
91051,610,-8185,-146,-2,-4,-1,0
91055,620,-8186,-141,-2,-4,-1,0
91060,620,-8185,-136,-2,-4,-1,0
91064,620,-8185,-134,-2,-4,-1,0
91068,617,-8186,-131,-2,-3,-1,0
91072,611,-8185,-123,-2,-3,-1,0
91076,603,-8183,-120,-2,-3,-1,0
91080,593,-8184,-118,-2,-3,-1,0
91085,588,-8186,-113,-2,-3,-1,0
91089,583,-8186,-112,-2,-2,-1,0
91093,584,-8184,-107,-2,-2,0,0
91097,582,-8183,-107,-2,-2,0,0
91101,583,-8181,-111,-2,-2,0,0
91105,583,-8182,-121,-2,-2,0,0
91109,583,-8186,-132,-2,-2,0,0
91113,581,-8185,-140,-2,-1,-1,0
91117,575,-8185,-142,-2,-1,-1,0
91121,569,-8188,-136,-2,-1,-1,0
91125,567,-8190,-126,-2,-1,-1,0
91130,562,-8191,-126,-2,-1,-1,0
91134,559,-8192,-124,-2,-1,-1,0
91138,564,-8191,-125,-2,-1,-1,0
91142,571,-8188,-122,-2,-1,-1,0
91147,578,-8189,-122,-2,-1,-1,0
91151,585,-8186,-120,-2,-1,-1,0
91157,589,-8188,-115,-2,-1,-1,0
91162,589,-8189,-117,-2,-1,-1,0
91167,588,-8187,-117,-2,-1,-1,0
91171,587,-8189,-113,-2,-1,-1,0
91175,587,-8189,-109,-2,-1,-1,0
91179,590,-8190,-104,-2,-1,0,0
91183,591,-8189,-106,-2,-1,0,0
91187,592,-8188,-102,-2,-1,0,0
91191,595,-8185,-101,-2,-1,0,0
91195,594,-8186,-99,-2,-1,0,0
91199,593,-8188,-101,-2,-1,-1,0
91203,588,-8186,-105,-2,-1,-1,0
91208,580,-8185,-104,-2,-1,0,0
91212,573,-8182,-100,-2,-1,-1,0
91216,567,-8179,-100,-2,-1,-1,0
91221,560,-8181,-94,-2,0,0,0
91227,553,-8183,-90,-2,0,-1,0
91231,546,-8185,-89,-2,0,-1,0
91236,538,-8187,-89,-2,1,-1,0
91241,536,-8189,-88,-2,1,-1,0
91246,534,-8188,-91,-2,1,-1,0
91251,531,-8189,-93,-2,1,-1,0
91256,531,-8191,-94,-2,1,-1,0
91261,532,-8192,-89,-2,2,-1,0
91266,535,-8191,-85,-2,2,-1,0
91271,544,-8192,-78,-3,1,-1,0
91276,555,-8189,-69,-3,1,-1,0
91281,577,-8188,-50,-3,0,-1,0
91286,592,-8191,-37,-3,-2,-1,0
91291,591,-8191,-21,-3,-3,-1,0
91297,586,-8192,-10,-3,-2,-1,0
91302,576,-8191,-3,-3,-3,-1,0
91307,560,-8193,-1,-3,-3,-1,0
91311,533,-8191,-3,-3,-4,-1,0
91317,507,-8190,5,-3,-4,-1,0
91321,484,-8189,9,-3,-4,-1,0
91326,470,-8190,23,-3,-3,-1,0
91331,461,-8191,47,-3,-3,-1,0
91336,454,-8191,75,-3,-3,-1,0
91341,451,-8193,109,-3,-3,-1,0
91346,448,-8198,130,-3,-4,-1,0
91351,454,-8198,146,-3,-4,-1,0
91357,461,-8199,145,-3,-4,-1,0
91362,475,-8198,120,-3,-2,-1,0
91367,497,-8195,68,-3,0,-1,0
91372,529,-8192,-10,-3,3,-1,0
91377,560,-8190,-101,-3,5,-1,0
91382,582,-8190,-211,-3,7,-1,0
91386,598,-8188,-316,-3,9,-1,0
91392,605,-8193,-401,-3,12,-1,0
91397,612,-8250,-472,-3,14,-1,0
91402,611,-8414,-522,-3,15,-1,0
91406,619,-8662,-556,-3,15,-1,0
91412,641,-8960,-579,-2,13,-1,0
91418,699,-9281,-591,-2,10,-1,0
91424,785,-9588,-595,-2,5,-1,0
91429,887,-9854,-590,-1,0,0,0
91435,977,-10060,-578,-1,-5,0,0
91441,1044,-10193,-560,-1,-9,0,0
91446,1072,-10250,-541,-1,-12,0,0
91451,1071,-10232,-530,0,-13,1,0
91457,1038,-10157,-531,0,-13,1,0
91463,995,-10032,-541,0,-11,2,0
91467,942,-9872,-556,0,-8,2,0
91473,885,-9682,-579,0,-4,2,0
91479,823,-9473,-600,1,-1,3,0
91484,760,-9248,-609,1,2,3,0
91489,699,-9016,-611,1,4,3,0
91494,649,-8779,-595,1,6,3,0
91500,602,-8546,-570,1,7,3,0
91504,568,-8317,-536,2,8,3,0
91510,540,-8094,-496,2,9,3,0
91516,520,-7874,-448,2,10,4,0
91521,503,-7655,-397,2,9,4,0
91526,484,-7436,-341,2,9,4,0
91531,471,-7221,-282,2,9,4,0
91536,459,-7010,-227,2,9,4,0
91541,445,-6803,-176,1,8,4,0
91545,436,-6597,-123,1,8,4,0
91550,433,-6392,-76,1,7,4,0
91554,430,-6191,-21,1,6,4,0
91557,428,-5988,31,1,4,4,0
91561,421,-5778,83,0,2,4,0
91565,406,-5565,136,0,0,4,0
91570,392,-5346,193,-1,-3,4,0
91576,378,-5120,260,-1,-5,4,0
91581,368,-4882,333,-2,-8,4,0
91586,355,-4639,415,-2,-10,4,0
91592,337,-4402,496,-3,-12,4,0
91597,317,-4180,567,-4,-14,4,0
91603,299,-3990,623,-4,-14,4,0
91608,298,-3823,663,-5,-14,4,0
91613,315,-3676,697,-6,-15,4,0
91619,343,-3565,713,-7,-18,4,0
91624,381,-3523,672,-7,-24,3,0
91630,422,-3611,536,-7,-30,3,0
91635,450,-3901,287,-7,-34,3,0
91641,383,-5683,-311,-3,-33,6,0
91646,1143,-5234,-382,-8,-73,3,0
91652,1206,-4643,-229,-3,-117,2,0
91658,1041,-4445,-191,-3,-120,2,0
91664,583,-4603,-232,-4,-55,3,0
91669,434,-5072,-398,-4,32,4,0
91675,344,-5553,-543,-4,106,6,0
91681,425,-6198,-674,-5,144,6,0
91685,370,-7036,-752,-5,152,6,0
91691,471,-7916,-794,-4,130,4,0
91697,499,-8735,-739,-4,91,2,0
91702,599,-9441,-719,-3,42,1,0
91707,608,-10010,-688,-2,4,0,0
91712,546,-10401,-641,-2,-18,1,0
91718,507,-10625,-577,-2,-20,2,0
91724,595,-10706,-545,-2,-6,2,0
91730,681,-10662,-543,-2,7,2,0
91735,750,-10516,-571,-2,7,2,0
91740,693,-10299,-574,-2,0,3,0
91745,563,-10028,-551,-2,-2,3,0
91750,424,-9724,-508,-1,5,4,0
91756,360,-9414,-482,-1,17,4,0
91762,302,-9096,-486,-1,24,4,0
91766,289,-8775,-523,-1,26,4,0
91772,246,-8464,-529,-1,28,4,0
91777,211,-8161,-505,-1,27,4,0
91782,178,-7867,-451,-1,25,4,0
91787,135,-7584,-368,-1,23,3,0
91793,90,-7319,-298,-1,22,3,0
91799,77,-7067,-253,-1,20,3,0
91804,73,-6820,-224,-1,19,3,0
91810,91,-6572,-193,-2,17,3,0
91815,128,-6326,-152,-2,14,3,0
91821,142,-6076,-72,-2,12,3,0
91826,151,-5817,0,-2,10,3,0
91831,146,-5555,71,-3,8,2,0
91836,142,-5290,125,-3,7,2,0
91841,142,-5017,178,-4,5,2,0
91846,158,-4741,228,-4,4,2,0
91852,171,-4460,287,-5,3,2,0
91857,196,-4173,331,-5,2,2,0
91863,210,-3884,373,-6,0,2,0
91867,230,-3595,403,-6,-3,1,0
91873,250,-3309,431,-7,-7,1,0
91878,287,-3033,445,-7,-12,1,0
91883,330,-2772,449,-8,-18,1,0
91887,381,-2536,434,-8,-25,0,0
91893,440,-2340,392,-8,-33,0,0
91898,506,-2205,311,-9,-41,0,0
91904,569,-2135,177,-8,-47,0,0
91909,620,-2352,-11,-8,-50,0,0
91915,525,-4356,-637,-5,-59,0,0
91920,979,-3182,-267,-13,-119,-4,0
91926,967,-2135,44,-12,-151,-5,0
91932,1014,-1154,195,-10,-160,-4,0
91937,780,-3328,498,-7,-129,-2,0
91943,854,-3767,-326,-6,-86,-1,0
91949,802,-5569,293,-3,-51,1,0
91955,812,-5724,-420,-5,-16,2,0
91961,685,-5848,-285,-6,11,2,0
91965,591,-6059,-318,-6,38,2,0
91971,396,-6297,-207,-5,60,2,0
91977,288,-6544,-12,-3,67,3,0
91982,102,-6781,56,-3,65,3,0
91986,-34,-7002,114,-2,55,2,0
91992,-105,-7193,36,-2,43,2,0
91997,-178,-7355,-88,-3,31,2,0
92003,-161,-7486,-198,-3,19,1,0
92009,-153,-7597,-348,-3,10,1,0
92015,-120,-7689,-385,-3,2,1,0
92020,-99,-7761,-448,-3,-2,0,0
92026,-83,-7820,-417,-3,-3,0,0
92032,-72,-7869,-391,-3,-3,0,0
92038,-73,-7911,-354,-3,-2,0,0
92044,-55,-7949,-292,-2,-3,0,0
92050,-56,-7982,-277,-2,-3,0,0
92056,-18,-8012,-247,-2,-2,0,0
92062,36,-8036,-276,-2,0,0,0
92067,108,-8058,-293,-2,2,0,0
92072,192,-8081,-323,-2,3,0,0
92078,255,-8101,-349,-2,2,0,0
92083,296,-8115,-341,-3,0,0,0
92088,299,-8127,-351,-3,-3,0,0
92093,272,-8136,-324,-2,-5,0,0
92098,225,-8144,-318,-2,-6,0,0
92102,175,-8153,-309,-2,-6,0,0
92106,126,-8159,-305,-2,-5,0,0
92110,92,-8163,-335,-2,-4,0,0
92115,78,-8168,-368,-2,-2,0,0
92120,85,-8175,-421,-2,0,0,0
92124,116,-8177,-450,-2,1,0,0
92129,148,-8178,-480,-2,1,0,0
92135,187,-8177,-489,-2,0,0,0
92139,218,-8179,-481,-2,-1,-1,0
