millis,ax,ay,az,gx,gy,gz,label
1050661,-902,-7919,-1658,2,-1,2,0
1050666,-895,-7916,-1657,2,0,2,0
1050671,-890,-7914,-1657,3,0,2,0
1050676,-892,-7915,-1657,3,-1,2,0
1050681,-898,-7915,-1654,3,-1,3,0
1050686,-904,-7920,-1654,3,-1,3,0
1050691,-908,-7920,-1655,3,0,3,0
1050696,-912,-7921,-1660,3,0,3,0
1050701,-912,-7923,-1667,3,0,3,0
1050706,-911,-7930,-1677,3,0,3,0
1050711,-910,-7939,-1680,3,-1,3,0
1050716,-906,-7949,-1681,3,-1,3,0
1050722,-907,-7957,-1679,3,-2,3,0
1050726,-914,-7964,-1681,3,-2,3,0
1050731,-922,-7973,-1689,3,-2,3,0
1050736,-929,-7980,-1699,4,-2,3,0
1050741,-931,-7982,-1706,4,-2,3,0
1050746,-929,-7984,-1711,4,-2,3,0
1050751,-924,-7980,-1711,4,-2,3,0
1050756,-920,-7972,-1709,4,-2,3,0
1050762,-918,-7964,-1709,4,-3,3,0
1050766,-922,-7954,-1707,4,-2,3,0
1050771,-930,-7943,-1703,4,-2,3,0
1050776,-944,-7935,-1699,4,-2,3,0
1050781,-954,-7923,-1692,4,-1,3,0
1050786,-962,-7916,-1701,4,0,4,0
1050791,-963,-7913,-1707,4,1,4,0
1050796,-959,-7916,-1714,4,1,4,0
1050801,-952,-7923,-1724,4,1,4,0
1050806,-941,-7932,-1728,4,1,4,0
1050811,-931,-7942,-1733,4,0,4,0
1050816,-928,-7946,-1733,4,-1,4,0
1050821,-929,-7948,-1732,4,-2,3,0
1050826,-935,-7948,-1736,4,-2,3,0
1050831,-944,-7951,-1733,4,-1,3,0
1050836,-951,-7956,-1727,4,-1,3,0
1050841,-957,-7959,-1723,4,1,3,0
1050846,-961,-7963,-1725,3,1,3,0
1050851,-959,-7963,-1730,3,2,3,0
1050856,-958,-7969,-1735,3,2,3,0
1050861,-957,-7982,-1743,3,3,3,0
1050866,-952,-7999,-1751,3,3,3,0
1050871,-945,-8016,-1761,3,3,3,0
1050876,-935,-8029,-1769,3,2,3,0
1050881,-923,-8034,-1783,3,1,3,0
1050886,-914,-8034,-1793,3,-1,3,0
1050891,-911,-8029,-1796,3,-2,3,0
1050896,-910,-8021,-1794,3,-2,3,0
1050901,-910,-8012,-1792,3,-2,3,0
1050906,-912,-8002,-1789,3,-1,3,0
1050911,-915,-7993,-1787,3,-1,3,0
1050916,-917,-7985,-1787,3,-1,2,0
1050921,-920,-7979,-1790,3,0,2,0
1050926,-922,-7973,-1787,3,0,2,0
1050931,-924,-7967,-1790,3,0,2,0
1050936,-922,-7965,-1796,3,0,2,0
1050941,-919,-7969,-1802,3,0,2,0
1050946,-916,-7973,-1797,3,0,2,0
1050951,-904,-7976,-1792,3,0,2,0
1050956,-898,-7975,-1787,3,0,2,0
1050961,-897,-7975,-1786,3,0,2,0
1050966,-898,-7976,-1787,3,0,2,0
1050971,-906,-7981,-1792,3,0,2,0
1050976,-911,-7983,-1794,3,0,1,0
1050981,-908,-7986,-1797,3,0,1,0
1050986,-907,-7988,-1801,3,0,1,0
1050991,-900,-7986,-1804,3,0,1,0
1050996,-892,-7983,-1806,2,-1,1,0
1051001,-886,-7980,-1802,2,-1,1,0
1051006,-883,-7977,-1799,2,-2,1,0
1051011,-886,-7977,-1790,2,-1,1,0
1051016,-889,-7974,-1787,2,-1,1,0
1051022,-890,-7970,-1786,2,-1,1,0
1051027,-891,-7969,-1785,2,-1,1,0
1051032,-890,-7967,-1788,2,-1,0,0
1051037,-890,-7969,-1791,2,-1,0,0
1051041,-889,-7975,-1792,2,-2,0,0
1051046,-889,-7979,-1789,2,-3,0,0
1051051,-886,-7984,-1789,2,-3,0,0
1051056,-885,-7989,-1787,2,-4,0,0
1051061,-882,-7996,-1786,2,-4,0,0
1051066,-885,-8002,-1783,2,-4,0,0
1051071,-889,-8007,-1775,2,-5,0,0
1051076,-891,-8014,-1763,2,-5,-1,0
1051081,-895,-8016,-1760,2,-5,-1,0
1051085,-900,-8022,-1755,1,-5,-1,0
1051091,-905,-8030,-1743,1,-5,-1,0
1051096,-914,-8036,-1732,1,-4,-1,0
1051102,-927,-8040,-1722,1,-3,-1,0
1051107,-938,-8039,-1715,1,-1,-1,0
1051112,-947,-8031,-1716,1,1,-1,0
1051116,-953,-8018,-1719,1,3,-1,0
1051120,-956,-7998,-1722,1,5,-1,0
1051126,-959,-7975,-1721,1,6,-1,0
1051132,-960,-7953,-1724,0,7,-1,0
1051137,-954,-7932,-1729,0,8,-2,0
1051143,-941,-7919,-1730,0,9,-2,0
1051147,-928,-7908,-1730,0,9,-2,0
1051153,-918,-7906,-1736,0,9,-2,0
1051159,-914,-7912,-1742,0,8,-2,0
1051164,-917,-7926,-1748,0,6,-2,0
1051169,-920,-7939,-1758,0,6,-2,0
1051174,-921,-7950,-1759,0,6,-2,0
1051179,-920,-7955,-1753,0,7,-2,0
1051184,-916,-7956,-1741,0,8,-2,0
1051188,-910,-7958,-1733,-1,8,-2,0
1051194,-911,-7954,-1724,-1,8,-2,0
1051200,-913,-7951,-1727,-1,9,-2,0
1051204,-920,-7948,-1730,-1,9,-2,0
1051209,-927,-7940,-1737,-1,10,-2,0
1051215,-932,-7934,-1743,-1,10,-2,0
1051221,-934,-7931,-1744,-1,10,-2,0
1051226,-934,-7931,-1749,-1,10,-2,0
1051232,-930,-7934,-1757,-2,10,-2,0
1051238,-922,-7935,-1760,-2,10,-2,0
1051244,-920,-7945,-1765,-2,9,-2,0
1051249,-919,-7958,-1772,-2,9,-2,0
1051255,-921,-7974,-1777,-2,9,-2,0
1051261,-918,-7991,-1786,-2,8,-2,0
1051266,-914,-8001,-1795,-2,7,-2,0
1051272,-906,-8011,-1801,-2,6,-2,0
1051278,-903,-8018,-1801,-2,5,-3,0
1051283,-904,-8027,-1802,-2,4,-2,0
1051287,-908,-8037,-1800,-2,3,-3,0
1051293,-914,-8048,-1794,-3,3,-3,0
1051299,-919,-8059,-1792,-3,3,-3,0
1051305,-923,-8064,-1796,-3,3,-3,0
1051311,-925,-8063,-1798,-3,2,-3,0
1051316,-927,-8058,-1801,-3,2,-3,0
1051322,-930,-8047,-1802,-3,1,-3,0
1051326,-932,-8036,-1799,-3,1,-3,0
1051332,-931,-8030,-1796,-3,1,-2,0
1051337,-926,-8025,-1793,-3,1,-2,0
1051342,-925,-8019,-1794,-3,2,-2,0
1051347,-924,-8006,-1796,-3,2,-2,0
1051353,-928,-7995,-1802,-3,2,-2,0
1051359,-929,-7984,-1804,-3,1,-2,0
1051364,-929,-7974,-1805,-3,1,-2,0
1051368,-927,-7970,-1803,-3,2,-2,0
1051373,-926,-7965,-1804,-4,2,-2,0
1051378,-926,-7961,-1805,-4,1,-2,0
1051384,-925,-7957,-1806,-4,1,-2,0
1051389,-927,-7954,-1807,-4,1,-2,0
1051393,-930,-7950,-1810,-4,1,-2,0
1051398,-933,-7951,-1811,-4,1,-2,0
1051403,-935,-7950,-1808,-4,2,-2,0
1051408,-936,-7950,-1802,-4,2,-2,0
1051414,-933,-7952,-1804,-4,2,-2,0
1051420,-932,-7957,-1805,-4,2,-2,0
1051425,-935,-7962,-1802,-4,2,-2,0
1051429,-934,-7971,-1802,-4,2,-2,0
1051434,-934,-7979,-1801,-4,3,-2,0
1051439,-934,-7994,-1793,-4,3,-2,0
1051444,-928,-8010,-1788,-4,3,-2,0
1051449,-922,-8021,-1781,-4,3,-2,0
1051455,-914,-8030,-1777,-3,3,-2,0
1051460,-910,-8038,-1781,-3,3,-2,0
1051465,-913,-8042,-1784,-3,3,-2,0
1051470,-911,-8044,-1791,-3,3,-2,0
1051475,-908,-8045,-1798,-3,2,-2,0
1051480,-904,-8046,-1803,-3,2,-2,0
1051485,-894,-8046,-1803,-3,2,-2,0
1051490,-883,-8042,-1801,-3,2,-2,0
1051495,-876,-8040,-1795,-3,1,-2,0
1051500,-870,-8044,-1793,-3,1,-2,0
1051505,-871,-8047,-1796,-3,1,-2,0
1051510,-874,-8052,-1790,-3,1,-2,0
1051515,-872,-8056,-1788,-3,0,-2,0
1051520,-868,-8064,-1783,-3,0,-2,0
1051525,-862,-8073,-1780,-2,0,-2,0
1051531,-855,-8082,-1771,-2,0,-2,0
1051535,-855,-8090,-1760,-2,0,-2,0
1051539,-858,-8097,-1751,-2,-1,-2,0
1051544,-862,-8105,-1742,-2,-1,-2,0
1051548,-863,-8108,-1740,-2,-1,-2,0
1051552,-860,-8109,-1740,-2,-1,-2,0
1051557,-858,-8106,-1746,-2,-1,-2,0
1051561,-854,-8102,-1751,-3,-1,-2,0
1051566,-851,-8097,-1756,-3,-1,-3,0
1051570,-847,-8088,-1761,-3,-2,-3,0
1051575,-838,-8079,-1767,-3,-3,-3,0
1051579,-831,-8070,-1772,-3,-3,-3,0
1051583,-826,-8062,-1772,-3,-3,-3,0
1051588,-824,-8055,-1768,-3,-3,-3,0
1051592,-821,-8047,-1764,-3,-3,-3,0
1051596,-816,-8043,-1764,-3,-4,-3,0
1051601,-814,-8038,-1769,-3,-4,-3,0
1051605,-810,-8030,-1774,-3,-4,-3,0
1051609,-807,-8018,-1778,-3,-4,-3,0
1051614,-803,-8006,-1773,-3,-4,-3,0
1051618,-801,-7986,-1767,-3,-3,-3,0
1051622,-800,-7966,-1769,-3,-2,-3,0
1051627,-797,-7949,-1778,-3,-1,-3,0
1051631,-793,-7934,-1792,-3,0,-3,0
1051635,-786,-7918,-1800,-4,0,-3,0
1051639,-781,-7904,-1798,-4,0,-3,0
1051643,-776,-7886,-1794,-4,1,-3,0
1051648,-769,-7869,-1795,-4,1,-3,0
1051652,-762,-7851,-1803,-4,1,-3,0
1051656,-755,-7835,-1811,-4,2,-3,0
1051660,-752,-7823,-1820,-4,2,-3,0
1051665,-749,-7809,-1824,-4,2,-3,0
1051670,-744,-7801,-1830,-4,2,-3,0
1051675,-741,-7799,-1834,-4,2,-3,0
1051680,-731,-7802,-1840,-4,2,-3,0
1051685,-723,-7808,-1849,-4,2,-3,0
1051690,-715,-7815,-1858,-4,2,-2,0
1051695,-711,-7820,-1865,-5,2,-2,0
1051700,-709,-7821,-1871,-4,2,-2,0
1051705,-707,-7822,-1875,-5,2,-2,0
1051710,-706,-7821,-1884,-5,3,-2,0
1051715,-704,-7819,-1893,-5,3,-2,0
1051720,-702,-7815,-1897,-5,3,-2,0
1051725,-698,-7812,-1897,-5,3,-2,0
1051730,-694,-7808,-1901,-5,4,-1,0
1051735,-691,-7811,-1904,-5,4,-1,0
1051740,-687,-7821,-1909,-5,4,-1,0
1051745,-686,-7836,-1917,-5,4,-1,0
1051750,-688,-7852,-1920,-4,4,-1,0
1051755,-693,-7868,-1921,-4,3,-1,0
1051760,-696,-7880,-1921,-4,3,-1,0
1051765,-699,-7890,-1926,-4,3,-1,0
1051770,-697,-7904,-1931,-4,3,-1,0
1051775,-691,-7919,-1938,-4,3,0,0
1051780,-686,-7933,-1946,-4,2,0,0
1051785,-684,-7943,-1956,-4,2,0,0
1051790,-685,-7953,-1964,-4,1,0,0
1051795,-689,-7962,-1968,-4,1,0,0
1051800,-691,-7967,-1971,-4,0,0,0
1051805,-698,-7972,-1968,-4,-1,0,0
1051810,-705,-7977,-1970,-4,-1,0,0
1051815,-713,-7981,-1965,-4,0,0,0
1051820,-717,-7982,-1960,-3,0,0,0
1051825,-725,-7979,-1954,-3,0,0,0
1051830,-730,-7975,-1952,-3,0,0,0
1051835,-735,-7974,-1952,-3,0,1,0
1051840,-742,-7973,-1953,-3,0,1,0
1051845,-750,-7978,-1954,-3,0,1,0
1051850,-757,-7981,-1961,-3,0,1,0
1051855,-758,-7987,-1966,-3,0,1,0
1051860,-761,-7990,-1967,-3,0,1,0
1051865,-762,-7995,-1964,-3,-1,1,0
1051870,-765,-8000,-1964,-3,-1,1,0
1051875,-773,-8004,-1961,-3,-1,1,0
1051880,-781,-8005,-1960,-3,0,1,0
1051885,-792,-8008,-1959,-2,0,1,0
1051890,-800,-8009,-1958,-2,1,1,0
1051895,-804,-8012,-1966,-2,1,1,0
1051900,-805,-8008,-1969,-2,1,1,0
1051905,-803,-8010,-1971,-2,1,1,0
1051910,-802,-8016,-1973,-2,1,1,0
1051915,-800,-8025,-1977,-2,1,1,0
1051920,-799,-8030,-1982,-2,1,1,0
1051925,-799,-8031,-1983,-2,0,1,0
1051930,-800,-8037,-1986,-2,-1,1,0
1051935,-801,-8044,-1984,-1,-1,1,0
1051941,-804,-8053,-1983,-1,-1,1,0
1051947,-806,-8062,-1981,-1,-1,1,0
1051952,-806,-8065,-1983,-1,-2,1,0
1051957,-805,-8062,-1986,-1,-2,1,0
1051962,-802,-8056,-1997,-1,-2,1,0
1051967,-799,-8048,-2004,-1,-3,1,0
1051972,-794,-8038,-2009,-1,-3,1,0
1051977,-790,-8025,-2011,-1,-3,1,0
1051982,-788,-8011,-2009,-1,-4,1,0
1051987,-787,-7992,-2007,-1,-4,1,0
1051992,-787,-7969,-2004,0,-3,1,0
1051996,-792,-7949,-2001,0,-3,1,0
1052001,-797,-7932,-2003,0,-3,1,0
1052006,-803,-7918,-2002,0,-3,1,0
1052011,-806,-7900,-2005,0,-2,1,0
1052016,-808,-7886,-2007,0,-2,1,0
1052021,-802,-7870,-2013,0,-2,1,0
1052026,-798,-7856,-2014,0,-2,1,0
1052031,-797,-7845,-2018,0,-2,1,0
1052036,-800,-7837,-2015,0,-2,1,0
1052041,-809,-7834,-2016,0,-2,1,0
1052046,-815,-7837,-2012,0,-2,1,0
1052051,-818,-7838,-2013,0,-2,1,0
1052056,-818,-7834,-2016,0,-2,1,0
1052061,-817,-7832,-2021,0,-2,1,0
1052066,-815,-7834,-2021,0,-3,1,0
1052071,-816,-7836,-2014,0,-3,1,0
1052076,-822,-7842,-2010,0,-3,1,0
1052081,-828,-7850,-2009,0,-3,1,0
1052086,-834,-7855,-2010,0,-3,1,0
1052091,-838,-7859,-2017,0,-3,1,0
1052096,-841,-7861,-2021,0,-3,1,0
1052101,-843,-7864,-2019,0,-3,1,0
1052106,-846,-7867,-2016,0,-3,1,0
1052110,-850,-7867,-2006,0,-3,1,0
1052115,-857,-7866,-1994,0,-3,1,0
1052120,-861,-7863,-1992,0,-2,1,0
1052125,-870,-7854,-1993,0,-2,1,0
1052130,-880,-7848,-1996,0,-1,1,0
1052135,-890,-7844,-1994,0,0,1,0
1052140,-899,-7838,-1994,0,0,1,0
1052145,-902,-7833,-2000,0,1,1,0
1052150,-906,-7829,-2003,0,1,1,0
1052155,-907,-7823,-2005,0,1,1,0
1052160,-911,-7821,-2013,0,1,1,0
1052165,-913,-7814,-2017,0,1,1,0
1052170,-917,-7807,-2024,0,1,1,0
1052175,-919,-7801,-2032,0,1,1,0
1052180,-918,-7798,-2041,0,1,1,0
1052185,-913,-7795,-2049,0,1,1,0
1052190,-905,-7797,-2060,0,2,1,0
1052195,-900,-7803,-2069,0,2,1,0
1052200,-899,-7810,-2076,0,2,1,0
1052205,-902,-7818,-2088,0,1,1,0
1052210,-908,-7827,-2097,0,2,1,0
1052215,-909,-7832,-2109,0,2,1,0
1052220,-905,-7837,-2115,0,3,1,0
1052225,-903,-7840,-2120,0,3,1,0
1052230,-896,-7844,-2119,0,4,1,0
1052235,-888,-7850,-2123,0,4,1,0
1052240,-882,-7860,-2135,0,4,1,0
1052245,-876,-7876,-2141,0,5,1,0
1052250,-875,-7896,-2148,0,5,1,0
1052255,-878,-7918,-2150,0,5,1,0
1052260,-883,-7943,-2151,0,5,1,0
1052265,-886,-7969,-2154,0,5,1,0
1052270,-882,-7989,-2162,0,4,1,0
1052275,-880,-8007,-2176,0,4,1,0
1052280,-877,-8022,-2188,0,3,1,0
1052285,-873,-8033,-2190,0,2,1,0
1052290,-869,-8042,-2188,0,2,1,0
1052295,-867,-8052,-2183,0,1,1,0
1052300,-866,-8060,-2184,0,1,1,0
1052305,-868,-8066,-2193,0,1,1,0
1052310,-871,-8068,-2197,0,1,1,0
1052315,-874,-8068,-2196,0,0,1,0
1052320,-880,-8065,-2191,0,0,1,0
1052325,-881,-8063,-2187,0,0,1,0
1052330,-879,-8056,-2182,0,0,1,0
1052335,-876,-8044,-2186,0,0,1,0
1052340,-872,-8024,-2188,0,0,1,0
1052344,-874,-8003,-2189,-1,0,1,0
1052350,-875,-7986,-2190,-1,0,1,0
1052355,-876,-7970,-2192,-1,1,1,0
1052360,-878,-7956,-2191,-1,1,1,0
1052364,-880,-7939,-2193,-1,1,1,0
1052369,-878,-7922,-2199,-1,2,1,0
1052374,-877,-7910,-2205,-1,2,1,0
1052380,-877,-7901,-2210,-1,2,1,0
1052385,-879,-7896,-2212,-2,2,1,0
1052389,-878,-7891,-2218,-2,2,2,0
1052395,-875,-7887,-2224,-2,2,2,0
1052400,-869,-7883,-2227,-2,2,2,0
1052405,-869,-7880,-2230,-2,2,2,0
1052410,-870,-7875,-2230,-2,2,2,0
1052415,-868,-7871,-2229,-2,2,2,0
1052421,-865,-7871,-2229,-2,2,2,0
1052427,-865,-7873,-2234,-3,2,2,0
1052431,-865,-7872,-2237,-3,3,2,0
1052436,-862,-7875,-2238,-3,3,2,0
1052441,-858,-7876,-2238,-3,3,2,0
1052446,-854,-7879,-2237,-3,3,2,0
1052450,-852,-7884,-2235,-3,3,2,0
1052455,-855,-7891,-2234,-3,3,2,0
1052459,-855,-7894,-2226,-3,3,2,0
1052464,-858,-7896,-2219,-3,3,2,0
1052469,-864,-7896,-2210,-4,3,2,0
1052474,-865,-7897,-2206,-4,3,2,0
1052479,-869,-7895,-2203,-4,3,2,0
1052485,-872,-7893,-2199,-4,3,2,0
1052489,-879,-7886,-2201,-4,3,3,0
1052495,-886,-7878,-2200,-4,3,3,0
1052501,-889,-7863,-2200,-4,3,3,0
1052507,-891,-7841,-2199,-5,3,3,0
1052512,-893,-7818,-2195,-5,3,3,0
1052516,-901,-7795,-2191,-5,4,3,0
1052522,-912,-7770,-2192,-5,4,3,0
1052526,-927,-7744,-2192,-5,5,3,0
1052531,-945,-7722,-2198,-5,6,3,0
1052536,-955,-7702,-2203,-5,8,3,0
1052541,-960,-7689,-2209,-5,9,3,0
1052547,-959,-7680,-2218,-6,10,3,0
1052552,-956,-7674,-2225,-6,10,3,0
1052557,-955,-7673,-2232,-6,11,3,0
1052563,-962,-7675,-2241,-6,11,3,0
1052568,-971,-7683,-2254,-6,11,3,0
1052574,-982,-7694,-2262,-6,12,2,0
1052580,-986,-7704,-2277,-6,12,2,0
1052585,-989,-7714,-2290,-6,12,2,0
1052589,-988,-7728,-2308,-6,12,2,0
1052594,-985,-7744,-2324,-6,12,2,0
1052599,-977,-7769,-2338,-6,12,2,0
1052604,-966,-7796,-2351,-6,12,2,0
1052609,-954,-7823,-2366,-6,12,2,0
1052615,-948,-7851,-2384,-6,11,2,0
1052620,-944,-7881,-2398,-6,10,2,0
1052625,-944,-7908,-2415,-6,10,2,0
1052629,-944,-7930,-2431,-6,9,2,0
1052635,-944,-7950,-2445,-6,9,2,0
1052640,-940,-7971,-2456,-5,9,2,0
1052645,-939,-7987,-2468,-5,8,1,0
1052649,-943,-8002,-2477,-5,8,1,0
1052654,-951,-8013,-2492,-5,8,1,0
1052659,-961,-8017,-2502,-5,8,1,0
1052664,-969,-8022,-2515,-5,8,1,0
1052669,-969,-8025,-2528,-5,8,1,0
1052674,-966,-8027,-2537,-5,8,1,0
1052678,-958,-8029,-2549,-4,8,1,0
1052683,-941,-8036,-2560,-4,7,1,0
1052689,-924,-8044,-2570,-4,7,1,0
1052694,-905,-8046,-2575,-4,5,1,0
1052699,-885,-8049,-2580,-4,4,1,0
1052705,-874,-8042,-2576,-4,2,1,0
1052710,-863,-8031,-2568,-4,0,1,0
1052716,-854,-8010,-2551,-3,-1,1,0
1052721,-850,-7986,-2529,-3,-2,1,0
1052726,-848,-7954,-2502,-3,-2,1,0
1052731,-848,-7914,-2480,-3,-2,1,0
1052736,-855,-7866,-2458,-3,-2,1,0
1052741,-861,-7821,-2437,-3,-1,1,0
1052746,-865,-7783,-2412,-4,0,1,0
1052750,-865,-7755,-2387,-4,1,1,0
1052755,-863,-7737,-2365,-4,3,2,0
1052760,-859,-7723,-2349,-4,3,2,0
1052765,-859,-7708,-2337,-4,4,2,0
1052769,-857,-7698,-2324,-4,4,2,0
1052775,-862,-7690,-2314,-4,4,2,0
1052780,-866,-7685,-2302,-4,4,2,0
1052785,-871,-7683,-2286,-4,4,2,0
1052789,-875,-7685,-2270,-4,5,2,0
1052793,-881,-7689,-2253,-4,6,2,0
1052799,-890,-7700,-2244,-5,7,2,0
1052804,-903,-7722,-2241,-5,8,1,0
1052808,-916,-7753,-2240,-5,9,1,0
1052812,-929,-7790,-2244,-5,10,1,0
1052816,-940,-7830,-2250,-5,10,1,0
1052820,-944,-7868,-2257,-5,11,1,0
1052824,-947,-7902,-2261,-5,12,1,0
1052829,-950,-7931,-2259,-6,13,1,0
1052834,-958,-7959,-2254,-6,14,0,0
1052839,-969,-7987,-2255,-6,16,0,0
1052844,-982,-8012,-2265,-6,17,0,0
1052849,-995,-8032,-2282,-6,18,0,0
1052854,-1001,-8047,-2307,-6,19,0,0
1052859,-995,-8063,-2333,-6,20,-1,0
1052864,-977,-8074,-2363,-6,20,-1,0
1052869,-951,-8082,-2396,-6,19,-1,0
1052874,-923,-8085,-2420,-6,17,-1,0
1052879,-896,-8079,-2450,-6,15,-2,0
1052884,-872,-8071,-2477,-6,14,-2,0
1052889,-855,-8059,-2497,-6,13,-2,0
1052894,-844,-8038,-2516,-6,13,-2,0
1052899,-833,-8013,-2533,-6,13,-2,0
1052904,-819,-7983,-2550,-6,13,-2,0
1052909,-800,-7948,-2569,-5,13,-3,0
1052914,-777,-7913,-2595,-5,12,-3,0
1052919,-755,-7876,-2614,-5,11,-3,0
1052924,-735,-7841,-2630,-5,10,-3,0
1052929,-720,-7807,-2646,-5,9,-3,0
1052934,-701,-7776,-2660,-5,8,-3,0
1052939,-681,-7743,-2670,-5,7,-3,0
1052944,-663,-7702,-2676,-4,6,-3,0
1052949,-648,-7664,-2682,-4,5,-3,0
1052954,-640,-7631,-2686,-4,4,-3,0
1052959,-639,-7605,-2682,-4,4,-3,0
1052964,-632,-7583,-2682,-4,4,-3,0
1052969,-621,-7567,-2682,-4,4,-4,0
1052974,-614,-7556,-2677,-4,3,-4,0
1052979,-610,-7549,-2667,-4,2,-4,0
1052984,-609,-7546,-2654,-4,2,-4,0
1052989,-615,-7546,-2642,-4,1,-4,0
1052994,-623,-7548,-2630,-4,1,-4,0
1052999,-633,-7551,-2617,-4,1,-4,0
1053004,-640,-7556,-2598,-4,1,-4,0
1053009,-644,-7563,-2588,-4,1,-4,0
1053014,-643,-7572,-2579,-4,1,-4,0
1053019,-644,-7584,-2573,-4,1,-4,0
1053024,-645,-7600,-2564,-4,1,-4,0
1053029,-646,-7616,-2566,-4,1,-4,0
1053034,-645,-7629,-2572,-4,1,-4,0
1053039,-641,-7641,-2579,-4,0,-4,0
1053044,-640,-7648,-2577,-4,0,-4,0
1053049,-638,-7656,-2577,-4,0,-5,0
1053054,-641,-7666,-2573,-4,0,-5,0
1053059,-641,-7672,-2574,-4,0,-5,0
1053064,-650,-7675,-2576,-4,0,-5,0
1053069,-654,-7675,-2571,-4,1,-5,0
1053074,-655,-7676,-2572,-5,1,-5,0
1053079,-657,-7680,-2576,-5,1,-5,0
1053084,-662,-7685,-2576,-5,1,-5,0
1053089,-663,-7691,-2575,-5,2,-5,0
1053094,-662,-7696,-2575,-5,2,-5,0
1053099,-664,-7698,-2570,-5,3,-5,0
1053104,-668,-7705,-2571,-5,3,-5,0
1053109,-673,-7711,-2574,-5,3,-5,0
1053114,-682,-7711,-2578,-5,3,-5,0
1053119,-692,-7713,-2584,-5,4,-5,0
1053124,-702,-7712,-2594,-6,4,-4,0
1053129,-704,-7708,-2604,-6,5,-4,0
1053134,-707,-7706,-2609,-6,5,-4,0
1053139,-708,-7703,-2611,-6,6,-4,0
1053144,-710,-7698,-2614,-6,7,-4,0
1053149,-713,-7693,-2620,-6,8,-4,0
1053154,-719,-7688,-2633,-6,9,-4,0
1053159,-724,-7687,-2641,-6,10,-4,0
1053164,-725,-7686,-2657,-6,12,-4,0
1053169,-723,-7682,-2676,-6,12,-4,0
1053174,-718,-7679,-2698,-6,13,-4,0
1053179,-709,-7676,-2721,-6,13,-4,0
1053184,-693,-7674,-2740,-6,13,-4,0
1053189,-681,-7671,-2761,-6,14,-4,0
1053194,-671,-7671,-2778,-6,14,-4,0
1053199,-666,-7676,-2792,-6,14,-4,0
1053204,-663,-7682,-2808,-6,14,-4,0
1053210,-659,-7690,-2827,-6,14,-3,0
1053215,-656,-7701,-2845,-6,15,-3,0
1053221,-652,-7715,-2865,-6,15,-3,0
1053227,-641,-7730,-2882,-6,15,-3,0
1053232,-621,-7744,-2896,-5,15,-3,0
1053237,-601,-7761,-2910,-5,14,-3,0
1053242,-584,-7774,-2926,-5,12,-3,0
1053247,-573,-7782,-2945,-5,11,-3,0
1053252,-569,-7789,-2961,-5,9,-3,0
1053257,-564,-7792,-2973,-4,9,-3,0
1053262,-557,-7796,-2983,-4,9,-3,0
1053267,-545,-7791,-2986,-4,8,-3,0
1053272,-535,-7782,-2989,-4,8,-3,0
1053277,-523,-7773,-2998,-4,8,-3,0
1053282,-511,-7764,-2999,-4,7,-3,0
1053288,-506,-7754,-2995,-4,7,-3,0
1053293,-505,-7745,-2994,-3,6,-3,0
1053297,-506,-7739,-2995,-3,6,-3,0
1053302,-508,-7733,-2988,-3,5,-3,0
1053307,-507,-7727,-2990,-3,5,-3,0
1053312,-502,-7718,-2990,-3,4,-3,0
1053318,-494,-7712,-2987,-3,3,-3,0
1053323,-490,-7701,-2988,-3,3,-3,0
1053328,-490,-7694,-2983,-3,2,-3,0
1053334,-493,-7687,-2979,-2,2,-3,0
1053339,-494,-7682,-2980,-2,1,-3,0
1053345,-498,-7678,-2984,-2,1,-3,0
1053350,-500,-7675,-2981,-2,2,-3,0
1053355,-500,-7675,-2974,-2,3,-3,0
1053361,-502,-7679,-2959,-2,3,-3,0
1053366,-507,-7684,-2951,-2,4,-2,0
1053371,-510,-7689,-2946,-2,4,-2,0
1053377,-511,-7702,-2952,-2,5,-2,0
1053383,-508,-7715,-2957,-2,5,-2,0
1053388,-501,-7726,-2959,-2,5,-2,0
1053393,-490,-7739,-2957,-2,5,-2,0
1053399,-474,-7753,-2955,-2,5,-2,0
1053404,-460,-7760,-2954,-2,4,-2,0
1053409,-446,-7767,-2957,-1,2,-3,0
1053415,-436,-7773,-2966,-1,1,-3,0
1053420,-429,-7773,-2968,-1,0,-3,0
1053426,-421,-7773,-2965,-1,-1,-3,0
1053431,-408,-7770,-2955,-1,-1,-2,0
1053437,-389,-7768,-2938,-1,0,-2,0
1053443,-370,-7769,-2931,-1,0,-2,0
1053449,-353,-7774,-2928,-1,0,-2,0
1053454,-342,-7780,-2930,-1,-1,-2,0
1053459,-337,-7790,-2930,-1,-1,-2,0
1053464,-333,-7801,-2929,-1,-1,-2,0
1053469,-329,-7811,-2928,-1,-1,-2,0
1053475,-324,-7817,-2931,-1,-1,-2,0
1053480,-313,-7820,-2935,-1,0,-2,0
1053485,-306,-7818,-2933,-1,0,-2,0
1053490,-298,-7815,-2931,-1,0,-2,0
1053495,-290,-7815,-2924,-1,-1,-2,0
1053500,-285,-7817,-2920,-1,-1,-2,0
1053506,-280,-7818,-2921,-1,-1,-2,0
1053510,-280,-7817,-2924,-1,-1,-2,0
1053515,-283,-7813,-2921,-1,-1,-2,0
1053520,-287,-7812,-2915,-1,-1,-2,0
1053526,-290,-7811,-2906,-1,0,-1,0
1053530,-290,-7808,-2897,-1,0,-1,0
1053536,-288,-7804,-2891,-1,0,-1,0
1053541,-287,-7800,-2886,-1,0,-1,0
1053546,-288,-7800,-2883,-1,0,-1,0
1053550,-291,-7803,-2886,-1,0,-1,0
1053555,-291,-7805,-2890,-1,0,-1,0
1053560,-288,-7803,-2893,-1,0,-1,0
1053566,-281,-7802,-2898,-1,0,-1,0
1053571,-274,-7798,-2902,-1,0,-1,0
1053576,-266,-7793,-2901,-1,0,-1,0
1053581,-260,-7784,-2897,-1,0,-1,0
1053586,-259,-7773,-2894,-1,0,-1,0
1053591,-257,-7762,-2896,-1,-1,-1,0
1053596,-259,-7752,-2904,-1,-1,-1,0
1053601,-258,-7740,-2909,-1,0,-1,0
1053606,-255,-7733,-2910,-1,0,-1,0
1053610,-258,-7725,-2912,-1,0,-1,0
1053616,-263,-7721,-2910,-1,0,-1,0
1053620,-266,-7712,-2915,-1,-1,-1,0
1053625,-272,-7702,-2921,-1,-1,-1,0
1053630,-274,-7689,-2927,-1,-1,-1,0
1053636,-276,-7675,-2928,-1,-1,-1,0
1053642,-276,-7661,-2930,-1,-1,-1,0
1053647,-276,-7650,-2932,-1,-1,-1,0
1053652,-273,-7635,-2936,-1,-2,0,0
1053657,-273,-7623,-2939,-1,-2,0,0
1053663,-276,-7612,-2942,-2,-2,0,0
1053669,-281,-7604,-2945,-2,-2,0,0
1053674,-288,-7598,-2941,-2,-2,0,0
1053678,-295,-7600,-2943,-2,-1,0,0
1053684,-303,-7603,-2947,-2,-1,0,0
1053688,-310,-7613,-2956,-2,0,0,0
1053692,-323,-7624,-2970,-2,0,0,0
1053696,-335,-7637,-2978,-2,0,0,0
1053700,-339,-7650,-2987,-2,0,0,0
1053704,-340,-7665,-2991,-2,-1,0,0
1053709,-342,-7676,-2994,-2,-2,-1,0
1053713,-351,-7686,-3003,-2,-2,-1,0
1053718,-369,-7693,-3011,-2,-3,-1,0
1053724,-389,-7697,-3019,-2,-3,-1,0
1053729,-409,-7702,-3022,-2,-3,-1,0
1053735,-425,-7708,-3023,-2,-2,-1,0
1053741,-438,-7710,-3022,-2,-2,-1,0
1053745,-454,-7713,-3026,-2,-1,-1,0
1053750,-470,-7714,-3032,-2,0,-1,0
1053755,-483,-7718,-3043,-2,1,-1,0
1053761,-498,-7728,-3053,-2,3,-1,0
1053766,-511,-7745,-3067,-2,4,-1,0
1053770,-517,-7763,-3079,-2,4,-1,0
1053776,-520,-7780,-3092,-2,4,-1,0
1053781,-519,-7792,-3111,-2,3,-1,0
1053786,-517,-7798,-3130,-2,3,-1,0
1053791,-510,-7795,-3142,-2,2,-1,0
1053797,-505,-7788,-3153,-2,2,-1,0
1053802,-502,-7780,-3161,-2,1,-1,0
1053807,-495,-7774,-3169,-2,1,-1,0
1053812,-492,-7764,-3180,-2,1,-1,0
1053817,-490,-7752,-3192,-2,1,-1,0
1053821,-491,-7742,-3199,-2,1,-1,0
1053827,-491,-7735,-3203,-2,1,-1,0
1053832,-488,-7734,-3207,-2,1,-1,0
1053836,-481,-7734,-3208,-2,1,-1,0
1053842,-478,-7735,-3212,-2,1,-1,0
1053846,-476,-7737,-3220,-2,2,-1,0
1053851,-476,-7744,-3223,-2,2,-1,0
1053856,-471,-7751,-3229,-2,3,-1,0
1053862,-466,-7758,-3233,-2,3,-1,0
1053868,-463,-7764,-3236,-2,3,-1,0
1053872,-463,-7774,-3245,-2,3,-1,0
1053877,-459,-7782,-3252,-2,2,-1,0
1053883,-451,-7792,-3261,-2,2,-1,0
1053887,-443,-7801,-3265,-2,1,-1,0
1053892,-438,-7809,-3268,-2,1,-1,0
1053898,-435,-7810,-3265,-2,0,-1,0
1053904,-435,-7809,-3268,-2,0,-1,0
1053908,-434,-7807,-3272,-2,-1,-1,0
1053913,-432,-7805,-3271,-2,-1,-1,0
1053918,-431,-7801,-3268,-2,-2,-1,0
1053923,-428,-7797,-3259,-2,-2,-1,0
1053929,-431,-7790,-3253,-2,-3,-1,0
1053934,-442,-7778,-3245,-2,-3,-1,0
1053940,-456,-7755,-3237,-2,-1,-1,0
1053945,-471,-7727,-3227,-2,0,-1,0
1053950,-485,-7696,-3212,-2,1,-1,0
1053956,-492,-7671,-3197,-2,1,0,0
1053961,-495,-7651,-3189,-2,2,0,0
1053966,-495,-7634,-3192,-2,2,0,0
1053970,-497,-7627,-3195,-2,3,0,0
1053975,-501,-7628,-3198,-2,3,0,0
1053981,-506,-7635,-3193,-2,3,0,0
1053986,-506,-7647,-3190,-2,3,0,0
1053991,-501,-7666,-3193,-2,2,0,0
1053996,-497,-7681,-3201,-2,1,0,0
1054001,-493,-7690,-3208,-2,0,0,0
1054007,-498,-7691,-3205,-2,-1,0,0
1054012,-508,-7688,-3203,-2,-2,0,0
1054018,-518,-7676,-3198,-2,-2,0,0
1054023,-521,-7664,-3195,-2,-1,0,0
1054027,-521,-7651,-3203,-2,0,0,0
1054032,-521,-7637,-3215,-2,2,0,0
1054037,-518,-7620,-3237,-2,4,1,0
1054042,-508,-7598,-3259,-2,5,1,0
1054047,-490,-7575,-3282,-2,6,1,0
1054051,-464,-7552,-3307,-2,6,1,0
1054056,-434,-7530,-3331,-2,6,1,0
1054060,-403,-7508,-3350,-2,5,1,0
1054066,-381,-7488,-3373,-1,4,1,0
1054070,-362,-7466,-3389,-1,3,2,0
1054075,-346,-7449,-3399,-1,3,2,0
1054079,-329,-7438,-3412,-1,2,2,0
1054083,-310,-7432,-3418,-1,2,2,0
1054087,-298,-7430,-3417,-1,1,2,0
1054092,-292,-7431,-3415,-1,0,2,0
1054096,-290,-7429,-3408,-1,0,2,0
1054100,-287,-7426,-3402,-1,0,3,0
1054104,-280,-7424,-3401,0,0,3,0
1054108,-266,-7424,-3388,-1,1,3,0
1054112,-256,-7420,-3378,-1,1,3,0
1054116,-253,-7416,-3365,-1,1,3,0
1054120,-255,-7412,-3356,-1,1,3,0
1054125,-260,-7414,-3345,-1,1,3,0
1054129,-266,-7413,-3332,-1,0,3,0
1054133,-270,-7413,-3318,-1,0,3,0
1054137,-269,-7408,-3298,-1,0,3,0
1054141,-271,-7399,-3277,-1,0,3,0
1054145,-274,-7384,-3262,-1,1,3,0
1054149,-275,-7368,-3248,-2,2,3,0
1054153,-273,-7353,-3236,-2,4,3,0
1054157,-265,-7333,-3219,-2,6,3,0
1054161,-260,-7311,-3199,-2,8,3,0
1054165,-258,-7285,-3179,-3,10,3,0
1054169,-255,-7259,-3160,-3,11,3,0
1054174,-251,-7228,-3137,-3,13,3,0
1054178,-247,-7192,-3121,-4,15,3,0
1054183,-244,-7155,-3110,-4,17,3,0
1054188,-247,-7121,-3109,-4,18,2,0
1054193,-245,-7109,-3114,-5,20,2,0
1054198,-233,-7110,-3115,-5,22,2,0
1054203,-208,-7118,-3112,-5,23,2,0
1054208,-173,-7130,-3103,-6,23,2,0
1054213,-133,-7146,-3098,-6,21,2,0
1054218,-105,-7162,-3105,-6,19,2,0
1054223,-93,-7180,-3125,-7,17,2,0
1054228,-78,-7200,-3157,-7,16,2,0
1054233,-67,-7219,-3187,-7,17,2,0
1054238,-60,-7239,-3201,-7,17,2,0
1054243,-53,-7271,-3206,-8,18,2,0
1054248,-54,-7310,-3201,-8,18,1,0
1054253,-62,-7350,-3200,-8,18,1,0
1054258,-81,-7392,-3211,-9,18,1,0
1054263,-114,-7427,-3233,-9,18,1,0
1054268,-147,-7456,-3249,-10,19,1,0
1054273,-170,-7478,-3261,-10,19,0,0
1054278,-170,-7497,-3272,-10,20,0,0
1054283,-153,-7513,-3283,-10,20,0,0
1054288,-125,-7525,-3302,-11,20,0,0
1054293,-95,-7528,-3322,-11,19,-1,0
1054298,-77,-7530,-3340,-11,19,-1,0
1054303,-74,-7529,-3357,-11,18,-1,0
1054308,-75,-7524,-3372,-12,18,-1,0
1054313,-64,-7519,-3396,-12,19,-1,0
1054318,-37,-7521,-3420,-12,20,-1,0
1054323,1,-7530,-3439,-12,20,-2,0
1054328,43,-7537,-3452,-12,20,-2,0
1054333,83,-7540,-3457,-12,18,-2,0
1054338,110,-7544,-3461,-13,16,-2,0
1054343,122,-7550,-3471,-13,14,-2,0
1054348,125,-7553,-3474,-13,12,-2,0
1054353,123,-7556,-3476,-13,12,-2,0
1054358,115,-7559,-3471,-13,14,-2,0
1054363,124,-7551,-3469,-13,17,-2,0
1054368,146,-7539,-3454,-13,18,-3,0
1054373,172,-7526,-3454,-13,16,-3,0
1054378,200,-7513,-3454,-13,15,-3,0
1054383,222,-7500,-3467,-13,14,-3,0
1054388,231,-7488,-3466,-13,13,-3,0
1054393,237,-7483,-3462,-13,13,-3,0
1054398,235,-7479,-3448,-13,13,-3,0
1054403,231,-7475,-3441,-13,13,-3,0
1054408,226,-7470,-3433,-13,14,-3,0
1054413,220,-7463,-3437,-13,15,-3,0
1054418,217,-7460,-3439,-13,16,-3,0
1054423,218,-7465,-3441,-13,18,-3,0
1054428,226,-7482,-3433,-13,19,-3,0
1054433,237,-7506,-3431,-12,20,-4,0
1054438,250,-7531,-3433,-12,19,-4,0
1054443,257,-7555,-3441,-12,18,-4,0
1054448,257,-7585,-3453,-11,17,-4,0
1054453,253,-7619,-3462,-11,16,-4,0
1054458,250,-7651,-3471,-11,16,-4,1
1054463,249,-7678,-3480,-10,16,-5,1
1054468,254,-7702,-3489,-10,17,-5,1
1054473,261,-7710,-3492,-10,16,-5,1
1054478,268,-7704,-3498,-9,16,-5,1
1054483,275,-7688,-3509,-9,16,-5,1
1054488,290,-7668,-3518,-8,16,-5,1
1054493,313,-7641,-3533,-8,16,-5,1
1054498,336,-7606,-3540,-7,16,-5,1
1054503,357,-7570,-3549,-7,15,-5,1
1054508,371,-7533,-3563,-6,13,-5,1
1054513,378,-7494,-3579,-6,12,-6,1
1054518,381,-7455,-3595,-5,10,-6,1
1054523,384,-7416,-3603,-5,9,-6,1
1054528,386,-7381,-3606,-4,9,-6,1
1054533,388,-7350,-3599,-4,9,-6,1
1054538,383,-7325,-3597,-3,9,-6,1
1054543,375,-7304,-3599,-3,9,-6,1
1054548,368,-7289,-3604,-2,9,-6,1
1054553,361,-7277,-3611,-2,9,-6,1
1054558,361,-7267,-3622,-1,9,-6,1
1054563,369,-7268,-3631,-1,9,-6,1
1054568,392,-7275,-3644,0,8,-6,1
1054572,415,-7284,-3653,1,7,-6,1
1054578,433,-7291,-3656,1,5,-6,1
1054583,441,-7301,-3653,2,3,-6,1
1054588,438,-7310,-3640,2,2,-6,1
1054593,426,-7318,-3630,3,2,-6,1
1054598,412,-7322,-3628,3,3,-6,1
1054603,396,-7320,-3631,4,4,-6,1
1054608,381,-7320,-3631,4,4,-5,1
1054613,370,-7321,-3631,5,3,-5,1
1054618,365,-7326,-3627,5,3,-5,1
1054623,370,-7338,-3625,5,3,-5,1
1054628,374,-7353,-3624,6,2,-5,1
1054633,371,-7367,-3618,6,2,-5,1
1054638,354,-7380,-3613,7,2,-5,1
1054643,332,-7395,-3602,7,2,-5,1
1054648,310,-7409,-3594,7,1,-5,1
1054653,298,-7417,-3587,8,1,-5,1
1054658,294,-7419,-3576,8,1,-5,1
1054663,291,-7420,-3563,8,0,-5,1
1054668,288,-7425,-3550,8,0,-5,1
1054673,278,-7440,-3532,9,-1,-5,1
1054678,262,-7457,-3514,9,-1,-5,1
1054684,241,-7474,-3503,9,-1,-5,1
1054688,224,-7490,-3497,9,-1,-5,1
1054693,209,-7499,-3482,9,-1,-5,1
1054698,191,-7497,-3471,9,0,-5,1
1054703,176,-7486,-3465,9,0,-5,1
1054708,167,-7465,-3458,9,1,-5,1
1054713,162,-7437,-3452,9,2,-6,1
1054718,161,-7405,-3439,9,2,-6,1
1054723,162,-7365,-3423,9,2,-6,1
1054728,154,-7323,-3408,9,2,-6,1
1054733,161,-7583,-3390,9,2,-6,1
1054738,278,-7859,-2743,10,-8,-7,1
1054743,742,-8095,-3009,11,-25,-9,1
1054748,683,-7568,-3988,12,-37,-9,1
1054753,278,-8190,-4829,7,-57,-4,1
1054758,-529,-8391,-5815,-1,-62,-2,1
1054763,-1220,-8104,-6599,-7,-42,-2,1
1054768,-1625,-7891,-6193,-6,1,-2,1
1054773,-1657,-7770,-5854,-9,27,-4,1
1054778,-1293,-7448,-5399,-11,35,-5,1
1054782,-1014,-7267,-4898,-12,27,-2,1
1054787,-825,-6897,-4241,-11,12,0,1
1054792,-580,-6935,-3873,-9,15,0,1
1054797,-491,-6697,-3704,-8,22,-1,1
1054803,-405,-7649,-3905,-8,17,-3,1
1054809,-388,-7187,-3712,-9,14,-3,1
1054814,-457,-6695,-4189,-10,8,-5,1
1054819,-329,-6647,-4092,-9,7,-3,1
1054824,-213,-6512,-3665,-9,21,-1,1
1054829,-179,-6709,-3744,-10,25,-2,1
1054834,-105,-7646,-3747,-9,17,-1,1
1054841,-180,-7113,-3612,-9,15,0,1
1054846,-58,-6715,-3919,-10,13,-1,1
1054851,115,-6674,-3875,-9,25,1,1
1054855,100,-6668,-3433,-9,38,2,1
1054860,181,-6911,-3443,-9,35,2,1
1054865,445,-6614,-3582,-10,31,0,1
1054869,638,-6598,-3624,-11,32,-2,1
1054874,606,-7034,-3736,-11,32,-1,1
1054880,616,-6947,-3599,-12,25,-2,1
1054885,426,-7529,-3794,-14,22,-2,1
1054891,467,-7214,-3574,-13,22,-2,1
1054895,496,-8010,-3799,-16,27,-1,1
1054900,624,-7556,-3750,-12,30,-1,1
1054905,783,-7734,-3997,-13,27,-1,1
1054909,736,-8175,-3490,-10,30,0,1
1054913,918,-8260,-3525,-11,24,-1,1
1054918,911,-8286,-3696,-12,18,0,1
1054923,1016,-8027,-3726,-9,10,-1,1
1054927,1114,-7815,-4024,-10,7,-1,1
1054932,850,-7870,-3510,-8,9,-1,1
1054938,1115,-7720,-4102,-9,-3,-1,1
1054944,925,-8353,-3588,-6,-3,0,1
1054950,1004,-8183,-3833,-6,-10,0,1
1054955,994,-8313,-3844,-5,-10,0,1
1054960,918,-8175,-3801,-5,-8,-1,1
1054966,966,-8036,-3961,-5,-7,-1,1
1054972,938,-7971,-3932,-5,-8,-1,1
1054978,854,-7795,-3829,-5,-11,-2,1
1054984,759,-7715,-3711,-4,-14,-1,1
1054990,864,-7621,-3832,-4,-18,-2,1
1054995,818,-7677,-3635,-3,-20,-1,1
1055001,895,-8120,-3746,-3,-23,-1,1
1055007,950,-8092,-3803,-3,-26,-2,1
1055011,901,-8052,-3709,-2,-30,-2,1
1055015,976,-7937,-3888,-1,-32,-2,1
1055019,833,-7986,-3856,-1,-29,-3,1
1055025,860,-7881,-4087,-1,-30,-3,1
1055031,754,-7762,-4150,-1,-28,-3,1
1055036,708,-7857,-4245,-1,-26,-3,1
1055042,710,-7753,-4401,-1,-22,-3,1
1055048,716,-7548,-4335,-1,-21,-4,1
1055052,665,-7496,-4394,0,-21,-4,1
1055058,647,-7568,-4375,0,-21,-4,1
1055063,691,-7558,-4432,0,-22,-4,1
1055069,556,-7749,-4348,0,-26,-4,1
1055073,561,-7725,-4383,0,-36,-3,1
1055079,629,-7786,-4265,2,-45,-4,1
1055084,587,-7783,-4301,3,-49,-4,1
1055089,742,-7775,-4262,4,-50,-5,1
1055094,676,-7710,-4283,4,-50,-5,1
1055099,669,-7649,-4415,5,-52,-5,1
1055104,583,-7590,-4482,5,-49,-5,1
1055109,401,-7549,-4650,4,-43,-6,1
1055113,247,-7520,-4759,4,-34,-6,1
1055118,0,-7495,-4857,4,-21,-5,1
1055123,-137,-7474,-4976,5,-9,-5,1
1055128,-236,-7453,-4996,5,4,-4,1
1055133,-273,-7435,-5045,5,15,-4,1
1055137,-191,-7416,-4990,5,25,-4,1
1055142,-116,-7400,-4909,4,33,-4,1
1055147,45,-7389,-4802,5,37,-4,1
1055151,205,-7381,-4634,5,38,-4,1
1055155,305,-7393,-4544,5,37,-4,1
1055160,365,-7454,-4512,5,36,-4,1
1055165,430,-7554,-4521,6,34,-4,1
1055170,530,-7682,-4592,7,31,-4,1
1055174,584,-7800,-4740,8,24,-4,1
1055179,559,-7940,-4890,10,12,-4,1
1055184,538,-8096,-4826,12,-2,-3,1
1055188,529,-8151,-4959,11,-13,-3,1
1055193,505,-8173,-5064,13,-21,-2,1
1055198,450,-8221,-4964,15,-26,-2,1
1055204,461,-8280,-4807,16,-28,-1,1
1055209,375,-8282,-4850,15,-30,-1,1
1055214,331,-8272,-4791,17,-33,0,1
1055218,189,-8297,-4368,17,-32,1,1
1055223,221,-8283,-4573,15,-34,0,1
1055228,116,-8224,-4432,14,-31,0,1
1055232,103,-8198,-4463,14,-31,0,1
1055237,41,-8161,-4258,14,-25,0,1
1055242,-74,-8168,-3984,15,-25,0,1
1055247,-271,-8193,-3850,16,-30,1,1
1055252,-475,-8192,-3880,17,-34,2,1
1055257,-604,-8174,-3931,17,-33,2,1
1055262,-669,-8172,-3927,16,-26,2,1
1055266,-733,-8176,-3939,16,-23,3,1
1055271,-556,-8181,-3718,16,-21,2,1
1055276,-489,-8168,-3708,16,-21,2,1
1055281,-425,-8128,-3701,16,-30,2,1
1055286,-513,-8069,-3884,16,-36,3,1
1055291,-592,-8002,-3942,15,-38,3,1
1055296,-707,-7948,-3979,14,-36,4,1
1055300,-734,-7908,-3872,13,-33,4,1
1055305,-776,-7860,-3782,12,-30,4,1
1055310,-780,-7804,-3665,12,-28,4,1
1055314,-840,-7731,-3663,10,-26,4,1
1055318,-907,-7641,-3676,9,-22,4,1
1055322,-999,-7544,-3727,8,-17,5,1
1055327,-1041,-7442,-3698,7,-10,5,1
1055332,-1073,-7331,-3640,5,-4,5,1
1055337,-1049,-7219,-3527,4,0,5,1
1055342,-1020,-7115,-3478,3,4,5,1
1055347,-994,-7031,-3460,2,6,5,1
1055352,-940,-7017,-3506,0,7,5,1
1055357,-843,-7016,-3520,-1,4,5,1
1055362,-788,-6997,-3492,-2,-1,5,1
1055367,-733,-6977,-3456,-3,-3,5,1
1055372,-724,-6907,-3455,-4,-5,5,1
1055377,-747,-6815,-3513,-5,-8,5,1
1055382,-767,-6714,-3583,-6,-7,5,1
1055387,-748,-6606,-3620,-7,-1,6,1
1055392,-690,-6512,-3590,-8,6,6,1
1055397,-611,-6446,-3534,-8,10,6,1
1055402,-562,-6403,-3476,-9,13,6,1
1055407,-527,-6388,-3487,-9,16,7,1
1055412,-490,-6394,-3544,-10,19,7,1
1055417,-462,-6407,-3611,-11,22,7,1
1055422,-422,-6437,-3637,-11,23,8,1
1055427,-363,-6481,-3627,-12,25,8,1
1055432,-312,-6541,-3608,-12,24,8,1
1055437,-252,-6604,-3628,-12,21,8,1
1055442,-195,-6652,-3683,-12,19,9,1
1055447,-153,-6688,-3746,-12,17,9,1
1055452,-111,-6717,-3791,-12,15,9,1
1055457,-82,-6746,-3803,-13,15,10,1
1055462,-63,-6769,-3796,-13,14,10,1
1055467,-41,-6795,-3808,-13,13,11,1
1055472,-31,-6830,-3831,-13,14,11,1
1055477,-37,-6877,-3862,-13,15,12,1
1055482,-49,-6932,-3883,-13,17,12,1
1055487,-86,-6993,-3885,-13,19,13,1
1055492,-130,-7062,-3881,-13,19,13,1
1055497,-161,-7136,-3900,-13,20,14,1
1055502,-181,-7202,-3930,-13,21,14,1
1055507,-187,-7248,-3976,-13,21,15,1
1055512,-189,-7272,-4013,-13,20,15,1
1055517,-201,-7279,-4036,-12,18,15,1
1055522,-226,-7276,-4053,-12,16,16,1
1055527,-260,-7265,-4071,-12,14,16,1
1055532,-300,-7251,-4095,-11,14,17,1
1055537,-338,-7247,-4121,-11,14,17,1
1055542,-365,-7249,-4144,-11,15,18,1
1055547,-390,-7242,-4153,-11,16,18,1
1055552,-415,-7218,-4150,-11,17,19,1
1055557,-450,-7179,-4141,-10,16,19,1
1055562,-498,-7126,-4138,-10,16,20,1
1055567,-556,-7056,-4146,-10,16,20,1
1055572,-611,-6965,-4159,-10,17,21,1
1055577,-668,-6877,-4150,-10,20,21,1
1055582,-727,-6806,-4128,-10,23,21,1
1055587,-783,-6758,-4103,-10,26,22,1
1055592,-843,-6730,-4088,-10,30,22,1
1055597,-894,-6713,-4092,-10,32,23,1
1055602,-930,-6717,-4114,-10,34,23,1
1055607,-962,-6754,-4135,-10,36,24,1
1055612,-984,-6823,-4160,-10,38,24,1
1055617,-1007,-6891,-4178,-10,39,25,1
1055622,-1036,-6947,-4209,-10,39,25,1
1055627,-1054,-6986,-4267,-10,38,25,1
1055632,-1063,-7002,-4342,-10,38,26,1
1055637,-1059,-7000,-4409,-10,38,27,1
1055642,-1033,-6986,-4471,-10,39,27,1
1055647,-1007,-6959,-4509,-10,40,28,1
1055652,-996,-6924,-4541,-10,40,28,1
1055657,-990,-6881,-4574,-9,40,29,1
1055662,-994,-6837,-4608,-9,40,30,1
1055667,-989,-6793,-4638,-9,43,31,1
1055672,-968,-6745,-4657,-10,46,31,1
1055677,-944,-6695,-4649,-10,50,32,1
1055682,-909,-6650,-4641,-10,53,33,1
1055687,-871,-6630,-4637,-10,56,34,1
1055692,-843,-6637,-4657,-10,59,35,1
1055697,-825,-6655,-4698,-11,61,36,1
1055702,-804,-6670,-4743,-11,63,36,1
1055707,-779,-6682,-4771,-11,64,37,1
1055713,-727,-6682,-4780,-12,65,38,1
1055717,-664,-6669,-4773,-12,65,39,1
1055722,-607,-6642,-4767,-12,64,39,1
1055727,-562,-6601,-4764,-12,64,40,1
1055732,-540,-6544,-4758,-13,65,40,1
1055737,-543,-6478,-4743,-13,67,41,1
1055742,-546,-6401,-4713,-14,71,42,1
1055747,-537,-6322,-4662,-15,76,42,1
1055752,-513,-6241,-4603,-15,81,43,1
1055757,-471,-6158,-4556,-16,86,43,1
1055762,-425,-6071,-4511,-17,91,44,1
1055767,-377,-5989,-4475,-17,95,44,1
1055772,-321,-5914,-4443,-18,100,44,1
1055777,-271,-5850,-4409,-19,105,45,1
1055782,-208,-5811,-4373,-20,109,45,1
1055787,-140,-5806,-4339,-20,112,45,1
1055792,-65,-5838,-4304,-21,115,45,1
1055797,12,-5902,-4287,-21,114,45,1
1055802,92,-5982,-4285,-21,112,45,1
1055807,170,-6070,-4291,-21,108,45,1
1055812,247,-6162,-4291,-22,104,45,1
1055817,319,-6257,-4278,-22,100,45,1
1055822,387,-6368,-4254,-21,98,45,1
1055827,437,-6499,-4226,-21,95,45,1
1055832,462,-6633,-4205,-21,93,45,1
1055837,461,-6753,-4178,-21,91,45,1
1055842,450,-6851,-4151,-21,88,45,1
1055847,443,-6927,-4116,-20,85,45,1
1055852,446,-6983,-4087,-20,83,45,1
1055857,466,-7020,-4076,-20,81,45,1
1055862,502,-7039,-4081,-19,79,45,1
1055867,546,-7042,-4091,-19,76,45,1
1055872,590,-7031,-4108,-18,71,44,1
1055878,635,-7006,-4116,-18,66,44,1
1055882,684,-6970,-4123,-17,59,44,1
1055887,737,-6925,-4123,-16,52,44,1
1055892,761,-6877,-4110,-15,46,44,1
1055897,761,-6839,-4078,-15,41,44,1
1055902,721,-6835,-4038,-14,36,44,1
1055907,640,-6867,-3984,-13,33,44,1
1055912,522,-6927,-3945,-12,32,43,1
1055917,399,-7005,-3928,-12,34,43,1
1055922,286,-7089,-3921,-11,38,43,1
1055927,184,-7167,-3916,-11,41,42,1
1055932,102,-7232,-3906,-10,44,42,1
1055937,35,-7270,-3895,-9,47,41,1
1055942,-7,-7285,-3892,-9,49,40,1
1055948,-31,-7279,-3897,-8,51,40,1
1055953,-48,-7263,-3907,-8,51,40,1
1055959,-52,-7225,-3921,-7,51,39,1
1055964,-34,-7226,-3922,-6,51,39,1
1055970,-12,-7244,-3910,-6,50,38,1
1055975,11,-7287,-3903,-5,50,38,1
1055980,193,-7339,-4038,-4,52,37,1
1055985,453,-7396,-4341,-2,59,39,1
1055989,623,-7506,-4519,0,67,39,1
1055993,585,-7659,-4418,-2,70,37,1
1055998,460,-7836,-4030,-3,67,34,1
1056003,200,-8016,-3557,-1,60,34,1
1056007,-72,-8159,-3425,1,43,32,1
1056012,-129,-8244,-3619,2,29,31,1
1056016,-115,-8276,-4042,3,29,31,1
1056022,-19,-8311,-4348,2,30,30,1
1056026,48,-8354,-4453,1,31,30,1
1056031,127,-8407,-4293,2,29,29,1
1056036,175,-8457,-4120,3,23,29,1
1056042,314,-8489,-3976,4,15,28,1
1056047,441,-8485,-4038,5,11,28,1
1056052,525,-8460,-4146,5,9,27,1
1056057,468,-8428,-4238,5,10,26,1
1056062,345,-8414,-4162,4,13,25,1
1056066,227,-8412,-4029,4,15,25,1
1056071,210,-8406,-3921,5,18,24,1
1056076,272,-8387,-3929,5,21,24,1
1056081,367,-8360,-3994,5,25,23,1
1056087,414,-8334,-4030,4,29,22,1
1056092,383,-8315,-3981,4,30,21,1
1056097,337,-8302,-3893,4,29,20,1
1056102,340,-8290,-3847,4,28,20,1
1056106,421,-8266,-3870,4,26,19,1
1056111,536,-8226,-3945,4,24,18,1
1056116,637,-8167,-3992,4,22,17,1
1056122,668,-8100,-3965,4,18,16,1
1056127,655,-8035,-3892,4,13,15,1
1056132,628,-7967,-3847,4,8,15,1
1056137,622,-7897,-3857,5,4,14,1
1056142,635,-7823,-3907,5,3,13,1
1056146,630,-7741,-3933,5,3,12,1
1056151,590,-7658,-3908,4,5,12,1
1056156,533,-7572,-3837,4,6,11,1
1056162,482,-7489,-3782,5,7,11,1
1056166,446,-7405,-3777,5,8,10,1
1056172,434,-7318,-3820,5,10,10,1
1056176,413,-7233,-3852,5,12,9,1
1056182,374,-7160,-3848,5,14,8,1
1056187,329,-7103,-3820,5,15,8,1
1056191,299,-7055,-3805,5,16,7,1
1056197,293,-7016,-3830,5,16,7,1
1056202,314,-6980,-3893,6,17,6,1
1056207,319,-6954,-3947,6,16,6,1
1056212,309,-6939,-3976,6,14,5,1
1056216,289,-6927,-3982,6,12,5,1
1056222,267,-6914,-3980,7,9,5,1
1056227,250,-6900,-3990,7,6,4,1
1056231,229,-6887,-4016,7,6,4,1
1056236,183,-6880,-4029,7,7,3,1
1056242,123,-6882,-4031,8,8,3,1
1056246,58,-6889,-4019,8,9,2,1
1056251,2,-6899,-4016,8,11,2,1
1056256,-32,-6913,-4036,8,12,2,1
1056261,-46,-6931,-4077,8,14,1,1
1056266,-57,-6946,-4120,9,14,1,1
1056271,-65,-6951,-4165,9,14,1,1
1056276,-76,-6941,-4195,9,12,0,1
1056282,-90,-6926,-4226,9,10,0,1
1056287,-109,-6908,-4247,10,7,0,1
1056292,-124,-6885,-4259,10,5,0,1
1056296,-135,-6857,-4242,10,4,0,1
1056301,-148,-6821,-4222,10,4,-1,1
1056306,-186,-6773,-4208,11,5,-1,1
1056311,-255,-6725,-4204,11,7,-1,1
1056316,-342,-6683,-4207,11,11,-2,1
1056321,-429,-6651,-4215,11,14,-2,1
1056326,-489,-6631,-4218,10,18,-2,1
1056331,-510,-6615,-4222,10,21,-2,1
1056337,-518,-6602,-4225,10,24,-2,1
1056341,-516,-6594,-4234,10,26,-2,1
1056347,-514,-6595,-4246,10,28,-2,1
1056352,-498,-6607,-4262,10,30,-2,1
1056357,-475,-6619,-4276,10,30,-2,1
1056362,-449,-6623,-4304,10,29,-2,1
1056368,-422,-6621,-4341,10,27,-2,1
1056372,-394,-6608,-4381,10,26,-2,1
1056377,-373,-6593,-4411,10,26,-2,1
1056381,-364,-6584,-4419,10,25,-2,1
1056387,-368,-6583,-4414,10,25,-2,1
1056392,-377,-6588,-4415,10,25,-2,1
1056397,-386,-6586,-4421,9,27,-2,1
1056403,-389,-6584,-4429,9,29,-2,1
1056408,-391,-6592,-4421,9,32,-2,1
1056413,-394,-6619,-4400,9,35,-2,1
1056418,-387,-6658,-4384,9,37,-2,1
1056423,-368,-6706,-4400,9,38,-1,1
1056428,-335,-6757,-4442,9,38,-1,1
1056433,-287,-6808,-4489,8,38,-1,1
1056438,-232,-6851,-4521,9,36,-1,1
1056443,-175,-6889,-4524,9,33,-1,1
1056449,-118,-6918,-4505,9,29,-1,1
1056454,-69,-6972,-4486,9,26,-1,1
1056459,-39,-7019,-4465,9,23,-1,0
1056465,-18,-7069,-4464,9,22,-1,0
1056470,-20,-7130,-4461,10,21,-1,0
1056474,-33,-7203,-4463,10,20,-1,0
1056480,-40,-7283,-4445,10,18,-1,0
1056485,-32,-7363,-4441,11,17,-1,0
1056491,-5,-7424,-4440,11,16,-1,0
1056495,38,-7466,-4452,12,14,-1,0
1056500,78,-7490,-4449,12,12,-1,0
1056505,108,-7509,-4443,13,10,-1,0
1056510,128,-7520,-4429,13,8,-1,0
1056515,138,-7526,-4414,14,7,-1,0
1056519,147,-7533,-4394,15,6,-1,0
1056524,157,-7535,-4377,15,5,-1,0
1056529,156,-7533,-4351,16,5,-1,0
1056533,152,-7536,-4327,17,5,-1,0
1056538,139,-7538,-4303,18,6,0,0
1056542,120,-7540,-4290,18,8,0,0
1056546,114,-7536,-4280,19,10,0,0
1056551,131,-7530,-4264,20,10,0,0
1056556,170,-7526,-4242,20,10,0,0
1056561,225,-7524,-4221,21,8,1,0
1056566,284,-7514,-4210,22,6,1,0
1056571,328,-7493,-4201,23,3,1,0
1056576,361,-7468,-4193,23,0,1,0
1056581,386,-7446,-4170,24,-2,1,0
1056586,404,-7420,-4139,25,-4,2,0
1056591,416,-7393,-4097,25,-5,2,0
1056596,418,-7386,-4052,26,-5,2,0
1056601,297,-8671,-3982,26,-6,2,0
1056606,474,-8981,-2136,33,-16,0,0
1056611,170,-8972,-3123,25,-50,3,0
1056616,-414,-8876,-4564,10,-100,5,0
1056621,-1096,-8464,-6252,2,-63,6,0
1056626,-1321,-8483,-7699,5,-2,5,0
1056631,-1130,-8414,-7945,2,36,5,0
1056636,-915,-8042,-8496,-2,34,7,0
1056641,-654,-7803,-8501,7,21,6,0
1056646,-327,-7972,-7893,14,28,6,0
1056651,-188,-8087,-5841,7,29,6,0
1056656,128,-7881,-5821,-3,7,4,0
1056661,269,-7554,-5230,-2,-16,4,0
1056666,178,-7411,-4264,0,-8,5,0
1056671,175,-7331,-3886,2,-7,5,0
1056676,195,-7175,-3901,3,-4,6,0
1056681,138,-7059,-3647,4,9,6,0
1056686,127,-7008,-3692,4,15,5,0
1056691,-59,-6978,-3509,5,18,5,0
1056696,-133,-6946,-3553,5,24,5,0
1056701,-184,-7377,-3369,6,35,5,0
1056706,-71,-7391,-3256,6,40,4,0
1056711,-15,-7267,-3365,7,41,4,0
1056716,-24,-7237,-3301,8,45,3,0
1056721,70,-7295,-3284,8,56,3,0
1056726,-28,-7265,-3348,8,66,4,0
1056731,-51,-7367,-3372,8,67,4,0
1056736,-86,-7427,-3560,6,73,5,0
1056741,-198,-7558,-3713,5,75,6,0
1056746,-244,-7696,-3774,5,77,5,0
1056751,-236,-7785,-3853,4,78,5,0
1056756,-218,-7842,-3945,3,80,5,0
1056761,-158,-7861,-3968,4,81,5,0
1056766,-92,-7891,-3884,4,82,6,0
1056771,-54,-7870,-3754,4,81,6,0
1056776,-45,-7810,-3583,4,79,6,0
1056781,5,-7758,-3364,4,79,6,0
1056786,62,-7704,-3163,4,80,6,0
1056791,177,-7603,-3568,5,81,6,0
1056796,305,-7605,-3838,9,85,8,0
1056801,250,-7596,-3841,9,93,8,0
1056806,170,-7560,-4069,8,95,9,0
1056811,176,-7555,-4325,7,96,9,0
1056816,363,-7513,-4556,6,101,8,0
1056821,602,-7467,-4674,4,108,8,0
1056826,827,-7434,-4627,4,110,7,0
1056831,993,-7421,-4508,4,103,6,0
1056836,1094,-7412,-4271,5,88,6,0
1056841,1098,-7407,-4114,6,70,6,0
1056846,1079,-7401,-4039,7,52,6,0
1056851,1082,-7393,-4053,8,39,7,0
1056856,1072,-7395,-4168,8,32,7,0
1056861,1076,-7390,-4261,7,28,6,0
1056866,1097,-7314,-4316,7,28,6,0
1056871,1057,-7256,-4241,6,28,5,0
1056876,1008,-7270,-4164,6,27,5,0
1056881,943,-7268,-4058,6,26,5,0
1056886,852,-7207,-3919,6,24,5,0
1056891,751,-7144,-3804,7,23,5,0
1056896,722,-7052,-3785,6,23,5,0
1056901,722,-7137,-3767,6,26,5,0
1056906,669,-7027,-3872,5,31,4,0
1056911,676,-7078,-3773,4,33,3,0
1056916,622,-6911,-3872,4,30,3,0
1056921,700,-6999,-3749,4,28,3,0
1056926,753,-6976,-3849,3,34,2,0
1056931,993,-7051,-3738,3,32,1,0
1056936,980,-6997,-3746,3,29,1,0
1056941,954,-7176,-3749,3,21,1,0
1056946,929,-7115,-3817,3,18,1,0
1056951,920,-7126,-3743,3,17,1,0
1056956,748,-7140,-3696,2,18,1,0
1056961,813,-7015,-3613,1,19,1,0
1056966,884,-7159,-3476,1,26,1,0
1056971,997,-7129,-3407,1,30,0,0
1056976,853,-7153,-3202,1,30,0,0
1056981,819,-7158,-3160,1,31,0,0
1056986,875,-7369,-3191,1,35,0,0
1056991,872,-7281,-3124,1,37,0,0
1056996,886,-7259,-3084,1,37,0,0
1057001,917,-7322,-3134,1,38,0,0
1057006,1054,-7414,-3120,1,37,0,0
1057011,1114,-7515,-3178,1,38,0,0
1057016,1270,-7630,-3153,2,34,0,0
1057021,1312,-7590,-3268,2,29,0,0
1057026,1404,-7611,-3204,2,21,0,0
1057031,1380,-7656,-3303,3,17,1,0
1057036,1427,-7702,-3284,3,8,1,0
1057041,1438,-7702,-3388,4,3,2,0
1057046,1617,-7822,-3371,4,-3,2,0
1057051,1692,-7803,-3460,4,-6,1,0
1057056,1687,-7769,-3390,5,-13,1,0
1057061,1653,-7802,-3420,5,-18,2,0
1057067,1666,-7828,-3415,6,-20,2,0
1057072,1675,-7845,-3380,6,-22,3,0
1057077,1699,-7840,-3429,6,-28,3,0
1057082,1689,-7833,-3385,7,-34,3,0
1057087,1672,-7807,-3427,7,-41,4,0
1057092,1704,-7796,-3384,7,-46,4,0
1057096,1781,-7750,-3324,7,-51,3,0
1057101,1860,-7681,-3224,7,-56,3,0
1057106,1874,-7619,-3164,8,-62,3,0
1057111,1829,-7594,-3154,8,-66,3,0
1057116,1766,-7592,-3183,8,-68,3,0
1057121,1708,-7617,-3235,8,-66,3,0
1057126,1659,-7663,-3277,8,-63,4,0
1057131,1577,-7714,-3332,8,-59,3,0
1057136,1504,-7780,-3308,8,-54,2,0
1057141,1465,-7847,-3212,8,-50,1,0
1057146,1459,-7882,-3150,8,-48,0,0
1057151,1488,-7893,-3157,8,-50,0,0
1057156,1473,-7875,-3215,10,-51,0,0
1057161,1399,-7916,-3230,11,-52,1,0
1057166,1413,-7980,-3183,11,-52,0,0
1057171,1427,-8003,-3117,11,-53,-1,0
1057176,1381,-8007,-3152,10,-57,-2,0
1057181,1420,-8032,-3082,11,-60,-3,0
1057186,1345,-8036,-3077,11,-58,-3,0
1057191,1356,-8042,-3124,12,-59,-4,0
1057196,1407,-8046,-3190,13,-56,-5,0
1057201,1429,-8044,-3207,14,-52,-5,0
1057205,1350,-8054,-3149,14,-53,-6,0
1057211,1300,-8075,-3078,14,-56,-7,0
1057216,1301,-8086,-3081,14,-56,-7,0
1057221,1372,-8088,-3122,14,-56,-8,0
1057226,1432,-8077,-3149,15,-56,-9,0
1057231,1472,-8056,-3139,15,-56,-10,0
1057236,1474,-8024,-3135,15,-56,-11,0
1057241,1491,-7985,-3174,15,-57,-11,0
1057246,1507,-7938,-3219,15,-56,-12,0
1057251,1525,-7892,-3257,15,-54,-12,0
1057256,1545,-7848,-3277,14,-52,-13,0
1057261,1553,-7800,-3270,14,-48,-14,0
1057266,1552,-7751,-3262,14,-45,-14,0
1057270,1561,-7701,-3283,13,-43,-15,0
1057276,1549,-7652,-3284,13,-38,-15,0
1057280,1542,-7603,-3284,12,-34,-16,0
1057286,1564,-7548,-3294,12,-32,-16,0
1057292,1598,-7492,-3317,11,-29,-17,0
1057297,1658,-7442,-3337,11,-27,-17,0
1057302,1751,-7395,-3338,10,-27,-17,0
1057306,1830,-7348,-3317,9,-29,-18,0
1057312,1899,-7302,-3304,9,-31,-18,0
1057316,1961,-7256,-3301,8,-33,-18,0
1057322,2007,-7210,-3306,8,-35,-19,0
1057328,2046,-7178,-3307,7,-37,-19,0
1057334,2075,-7165,-3318,6,-40,-19,0
1057338,2089,-7158,-3318,6,-43,-19,0
1057343,2100,-7152,-3332,5,-46,-20,0
1057348,2112,-7143,-3347,5,-48,-20,0
1057353,2127,-7137,-3353,4,-49,-20,0
1057358,2158,-7138,-3360,4,-50,-20,0
1057362,2176,-7140,-3361,3,-52,-21,0
1057367,2191,-7144,-3361,3,-55,-21,0
1057372,2209,-7149,-3373,2,-58,-21,0
1057377,2223,-7149,-3384,2,-62,-21,0
1057381,2233,-7151,-3398,1,-65,-21,0
1057386,2230,-7140,-3404,1,-67,-22,0
1057391,2188,-7109,-3398,0,-67,-22,0
1057395,2135,-7062,-3374,-1,-67,-22,0
1057401,2081,-7009,-3343,-1,-66,-22,0
1057406,2028,-6955,-3309,-2,-63,-22,0
1057411,1998,-6910,-3271,-3,-59,-22,0
1057415,1979,-6873,-3229,-4,-55,-22,0
1057421,1967,-6843,-3181,-5,-50,-22,0
1057426,1976,-6821,-3151,-6,-47,-22,0
1057431,1997,-6807,-3142,-7,-45,-22,0
1057436,2019,-6804,-3158,-7,-46,-22,0
1057440,2043,-6815,-3184,-8,-47,-22,0
1057446,2058,-6841,-3207,-8,-49,-22,0
1057451,2068,-6882,-3215,-9,-51,-22,0
1057456,2078,-6943,-3216,-9,-54,-22,0
1057461,2068,-7009,-3220,-10,-56,-22,0
1057466,2039,-7062,-3233,-10,-59,-22,0
1057472,1990,-7096,-3244,-11,-60,-22,0
1057477,1934,-7117,-3249,-11,-59,-21,0
1057482,1881,-7133,-3238,-12,-57,-21,0
1057487,1836,-7146,-3218,-12,-53,-21,0
1057492,1796,-7163,-3199,-13,-49,-21,0
1057496,1760,-7183,-3196,-13,-44,-21,0
1057501,1726,-7210,-3202,-14,-40,-21,0
1057506,1694,-7246,-3223,-14,-37,-21,0
1057512,1663,-7305,-3242,-15,-35,-21,0
1057516,1639,-7374,-3265,-15,-34,-21,0
1057522,1614,-7448,-3290,-15,-34,-21,0
1057527,1594,-7519,-3318,-15,-35,-21,0
1057532,1581,-7582,-3350,-15,-37,-21,0
1057537,1580,-7640,-3385,-15,-39,-21,0
1057542,1584,-7690,-3424,-15,-42,-21,0
1057547,1588,-7720,-3455,-15,-46,-21,0
1057552,1589,-7728,-3484,-15,-49,-21,0
1057557,1589,-7725,-3509,-15,-52,-21,1
1057563,1591,-7715,-3534,-15,-55,-21,1
1057568,1587,-7700,-3557,-15,-57,-21,1
1057574,1581,-7676,-3571,-15,-59,-21,1
1057579,1566,-7649,-3574,-15,-61,-21,1
1057584,1541,-7624,-3562,-15,-62,-21,1
1057588,1506,-7605,-3544,-16,-62,-21,1
1057592,1458,-7587,-3537,-16,-61,-21,1
1057597,1401,-7566,-3542,-16,-60,-20,1
1057603,1340,-7546,-3552,-16,-59,-20,1
1057609,1278,-7536,-3567,-16,-57,-20,1
1057614,1224,-7530,-3580,-16,-56,-20,1
1057619,1188,-7520,-3595,-16,-54,-20,1
1057624,1172,-7505,-3611,-16,-53,-20,1
1057628,1149,-7484,-3631,-16,-54,-20,1
1057633,1122,-7454,-3645,-16,-53,-21,1
1057639,1084,-7416,-3661,-16,-52,-21,1
1057645,1053,-7374,-3674,-16,-50,-21,1
1057651,1028,-7332,-3685,-16,-49,-20,1
1057656,1009,-7304,-3692,-16,-47,-20,1
1057661,988,-7295,-3705,-15,-45,-20,1
1057666,960,-7299,-3724,-15,-44,-20,1
1057671,921,-7301,-3748,-15,-42,-20,1
1057676,870,-7299,-3795,-15,-41,-20,1
1057680,811,-7299,-3851,-14,-41,-21,1
1057686,761,-7302,-3917,-14,-40,-21,1
1057692,720,-7304,-3985,-14,-40,-21,1
1057697,701,-7294,-4038,-13,-39,-21,1
1057703,757,-7278,-4040,-13,-38,-20,1
1057709,901,-7251,-4009,-13,-37,-20,1
1057714,1059,-7206,-4020,-13,-38,-18,1
1057719,1189,-7152,-4046,-12,-43,-18,1
1057724,1331,-7108,-4033,-12,-45,-18,1
1057729,1432,-7078,-4024,-11,-47,-18,1
1057734,1459,-7065,-4033,-10,-53,-17,1
1057739,1379,-7072,-4070,-10,-61,-17,1
1057745,1249,-7099,-4115,-10,-63,-17,1
1057750,1124,-7135,-4141,-9,-61,-17,1
1057756,1030,-7170,-4135,-9,-57,-16,1
1057761,949,-7210,-4102,-9,-54,-17,1
1057766,873,-7248,-4067,-9,-52,-17,1
1057770,793,-7272,-4044,-8,-48,-17,1
1057775,701,-7279,-4038,-8,-45,-17,1
1057780,606,-7276,-4030,-8,-40,-18,1
1057785,520,-7261,-4011,-8,-34,-18,1
1057791,461,-7249,-3981,-8,-27,-18,1
1057795,422,-7252,-3953,-7,-22,-18,1
1057801,403,-7269,-3934,-7,-18,-19,1
1057805,402,-7295,-3928,-7,-16,-19,1
1057809,418,-7326,-3934,-6,-15,-20,1
1057813,447,-7351,-3949,-6,-17,-20,1
1057818,483,-7367,-3954,-5,-19,-21,1
1057822,514,-7376,-3951,-5,-22,-21,1
1057826,534,-7384,-3933,-4,-26,-21,1
1057830,531,-7382,-3910,-4,-30,-22,1
1057834,509,-7363,-3890,-4,-33,-22,1
1057838,473,-7337,-3869,-3,-34,-23,1
1057843,425,-7306,-3840,-3,-34,-23,1
1057847,374,-7272,-3799,-3,-33,-23,1
1057851,327,-7235,-3752,-3,-30,-24,1
1057855,286,-7183,-3711,-3,-27,-24,1
1057860,263,-7117,-3686,-3,-23,-24,1
1057865,254,-7049,-3668,-3,-19,-24,1
1057870,271,-6982,-3648,-3,-14,-24,1
1057875,307,-6915,-3630,-3,-10,-24,1
1057880,360,-6855,-3606,-3,-6,-24,1
1057885,414,-6800,-3596,-3,-4,-24,1
1057890,461,-6762,-3590,-2,-4,-24,1
1057895,492,-6752,-3594,-2,-4,-24,1
1057900,511,-6771,-3601,-2,-4,-24,1
1057905,514,-6802,-3604,-2,-4,-24,1
1057910,514,-6854,-3601,-2,-3,-24,1
1057915,518,-6921,-3599,-2,-3,-23,1
1057920,530,-6996,-3600,-1,-3,-23,1
1057925,541,-7071,-3612,-1,-3,-23,1
1057930,541,-7142,-3623,-1,-4,-23,1
1057935,540,-7208,-3630,-1,-4,-23,1
1057940,531,-7269,-3633,-1,-3,-22,1
1057945,537,-7329,-3627,-1,-2,-22,1
1057950,563,-7384,-3621,0,0,-21,1
1057955,596,-7430,-3623,0,0,-21,1
1057960,622,-7469,-3629,0,0,-20,1
1057965,632,-7513,-3625,0,0,-19,1
1057970,626,-7535,-3642,0,0,-19,1
1057975,643,-7541,-3658,0,-1,-18,1
1057980,686,-7541,-3670,1,-4,-18,1
1057985,754,-7545,-3665,1,-4,-17,1
1057990,827,-7546,-3654,1,-3,-15,1
1057995,884,-7551,-3628,1,-2,-14,1
1058000,939,-7562,-3614,1,-2,-13,1
1058005,985,-7569,-3627,0,-1,-13,1
1058010,997,-7573,-3638,0,0,-12,1
1058015,985,-7574,-3647,0,-1,-11,1
1058020,957,-7584,-3641,0,-2,-10,1
1058025,940,-7596,-3632,0,-3,-9,1
1058030,942,-7608,-3633,0,-2,-8,1
1058035,964,-7625,-3653,0,-2,-7,1
1058040,984,-7650,-3681,0,-1,-6,1
1058045,1001,-7676,-3689,0,-1,-6,1
1058050,1018,-7700,-3675,0,-1,-5,1
1058055,1031,-7717,-3668,0,-1,-4,1
1058060,1031,-7724,-3678,0,-3,-4,1
1058065,1017,-7727,-3704,-1,-4,-3,1
1058070,993,-7730,-3725,-1,-4,-3,1
1058075,959,-7734,-3729,-1,-2,-2,1
1058080,927,-7739,-3710,-1,-1,-2,1
1058085,890,-7745,-3685,-2,-1,-1,1
1058090,863,-7747,-3672,-2,-1,-1,1
1058095,844,-7748,-3682,-2,0,-1,1
1058100,833,-7750,-3704,-3,0,-1,1
1058105,829,-7751,-3722,-3,0,-1,1
1058110,830,-7752,-3731,-3,-1,-1,1
1058115,836,-7754,-3729,-3,-2,-1,1
1058120,844,-7749,-3736,-3,-4,-1,1
1058125,856,-7743,-3757,-4,-5,-1,1
1058130,865,-7734,-3785,-4,-6,0,1
1058135,867,-7721,-3804,-4,-7,0,1
1058140,857,-7708,-3817,-4,-8,0,1
1058145,840,-7695,-3823,-4,-8,0,1
1058150,818,-7680,-3833,-4,-8,0,1
1058155,798,-7666,-3851,-4,-8,0,1
1058160,783,-7651,-3876,-4,-8,0,1
1058165,778,-7634,-3901,-4,-8,0,1
1058170,785,-7616,-3916,-4,-7,0,1
1058175,795,-7594,-3929,-4,-8,0,1
1058180,804,-7569,-3935,-4,-9,-1,1
1058185,806,-7542,-3946,-4,-10,-1,1
1058190,803,-7510,-3966,-4,-11,-1,1
1058195,789,-7478,-3987,-4,-10,-1,1
1058200,764,-7452,-3990,-4,-10,-1,1
1058206,728,-7429,-3984,-4,-9,-1,1
1058210,680,-7405,-3971,-4,-7,-2,1
1058216,624,-7382,-3957,-4,-5,-2,1
1058221,569,-7363,-3953,-4,-3,-2,1
1058227,513,-7352,-3957,-5,0,-3,1
1058232,465,-7346,-3964,-5,3,-3,1
1058237,438,-7342,-3975,-5,6,-3,1
1058242,434,-7340,-3980,-5,8,-3,1
1058247,454,-7342,-3986,-5,10,-4,1
1058252,488,-7335,-3983,-5,11,-4,1
1058257,519,-7324,-3981,-4,10,-4,1
1058262,547,-7317,-3983,-4,10,-5,1
1058267,578,-7303,-3990,-4,9,-5,1
1058271,620,-7286,-4000,-4,8,-5,1
1058276,672,-7272,-4007,-4,7,-5,1
1058281,719,-7259,-4004,-3,4,-5,1
1058286,743,-7234,-3997,-3,0,-6,1
1058291,739,-7192,-3983,-3,-2,-6,1
1058296,716,-7134,-3962,-3,-3,-6,1
1058301,682,-7064,-3928,-3,-2,-6,1
1058306,650,-6990,-3885,-3,1,-6,1
1058311,625,-6915,-3838,-3,4,-7,1
1058316,607,-6840,-3795,-3,9,-7,1
1058321,597,-6764,-3757,-3,13,-7,1
1058326,594,-6704,-3722,-3,16,-7,1
1058331,604,-6665,-3703,-3,20,-7,1
1058336,634,-6645,-3693,-3,24,-7,1
1058341,684,-6639,-3700,-4,27,-7,1
1058346,758,-6656,-3711,-3,28,-8,1
1058351,851,-6698,-3730,-3,27,-8,1
1058356,951,-6757,-3747,-3,25,-8,1
1058361,1050,-6829,-3766,-3,22,-8,1
1058366,1134,-6901,-3791,-2,18,-8,1
1058371,1203,-6969,-3815,-2,14,-8,1
1058375,1243,-7033,-3826,-1,11,-8,1
1058380,1260,-7089,-3828,-1,9,-8,1
1058385,1254,-7123,-3825,-1,9,-8,1
1058391,1231,-7138,-3812,-1,10,-8,1
1058396,1200,-7138,-3789,0,11,-9,1
1058401,1169,-7131,-3765,0,12,-9,1
1058405,1146,-7122,-3746,1,14,-9,1
1058411,1135,-7112,-3731,1,16,-9,1
1058415,1141,-7098,-3717,1,17,-9,1
1058420,1164,-7079,-3706,1,18,-10,1
1058425,1203,-7062,-3696,2,18,-10,1
1058430,1250,-7054,-3678,2,17,-10,1
1058435,1300,-7049,-3665,3,15,-10,1
1058440,1346,-7045,-3653,3,13,-10,1
1058445,1383,-7047,-3649,4,10,-10,1
1058450,1410,-7056,-3649,4,7,-10,1
1058455,1425,-7066,-3655,5,4,-10,1
1058460,1438,-7072,-3662,5,2,-11,1
1058465,1449,-7069,-3659,6,1,-11,1
1058470,1454,-7063,-3652,6,0,-11,1
1058475,1456,-7049,-3644,7,0,-11,1
1058479,1455,-7026,-3633,7,1,-11,1
1058485,1451,-7000,-3623,8,2,-11,1
1058490,1447,-6975,-3616,9,2,-11,1
1058495,1446,-6955,-3609,9,2,-11,1
1058500,1446,-6936,-3612,10,1,-11,1
1058505,1449,-6913,-3611,10,1,-11,1
1058511,1454,-6895,-3604,11,1,-11,1
1058517,1464,-6886,-3587,11,1,-11,1
1058522,1478,-6885,-3577,12,1,-11,1
1058526,1502,-6891,-3572,13,1,-11,1
1058530,1527,-6908,-3579,13,0,-11,1
1058535,1560,-6934,-3596,14,-1,-11,1
1058540,1597,-6964,-3610,14,-2,-11,1
1058546,1630,-6994,-3615,15,-4,-10,1
1058552,1647,-7022,-3611,16,-6,-10,1
1058557,1654,-7051,-3600,16,-7,-10,1
1058561,1656,-7079,-3593,17,-7,-10,1
1058566,1654,-7109,-3584,18,-7,-10,1
1058571,1649,-7137,-3583,18,-6,-10,1
1058576,1650,-7162,-3582,19,-5,-10,1
1058581,1656,-7192,-3580,19,-4,-10,1
1058586,1668,-7225,-3571,20,-4,-10,1
1058591,1690,-7260,-3565,20,-4,-9,1
1058595,1713,-7295,-3558,21,-5,-9,1
1058600,1736,-7328,-3547,21,-5,-9,1
1058605,1753,-7362,-3536,22,-5,-9,1
1058610,1763,-7399,-3524,22,-6,-9,1
1058616,1765,-7441,-3511,23,-6,-9,1
1058621,1774,-7489,-3502,23,-6,-8,1
1058625,1790,-7538,-3497,24,-6,-8,1
1058630,1809,-7589,-3487,24,-7,-8,1
1058635,1830,-7638,-3482,24,-7,-8,1
1058639,1846,-7683,-3472,25,-8,-8,1
1058644,1931,-8616,-3425,25,-9,-8,1
1058649,1797,-9725,-2120,28,-17,-7,1
1058654,2004,-9867,-1103,33,-49,-9,1
1058659,2256,-9324,-2953,5,-99,-11,1
1058665,1576,-8908,-4871,7,-115,-9,1
1058670,886,-9302,-6112,8,-58,-7,1
1058675,373,-9003,-7579,-2,18,-8,1
1058679,817,-8885,-8007,-5,66,-3,1
1058684,1408,-8384,-8020,0,84,3,1
1058689,860,-8308,-6441,6,57,2,1
1058694,822,-8356,-5102,-3,12,-9,1
1058699,594,-8114,-4211,-7,12,-4,1
1058704,1019,-7855,-3961,-4,22,-6,1
1058709,1095,-7670,-2732,1,32,-4,1
1058714,1439,-7567,-2931,2,13,-4,1
1058719,1426,-7383,-2762,3,2,-4,1
1058725,1597,-7192,-3305,2,14,-4,1
1058729,1535,-7048,-3257,2,33,-4,1
1058734,1648,-6964,-3401,2,36,-5,1
1058739,1610,-6911,-3089,3,32,-3,1
1058744,1628,-6868,-3027,4,21,-2,1
1058749,1716,-6828,-2801,5,15,-1,1
1058755,2026,-6770,-3004,6,18,-1,1
1058760,2126,-6702,-2973,6,22,-1,1
1058765,1996,-6992,-2756,7,20,-1,1
1058770,2031,-6999,-2857,8,14,0,1
1058775,2155,-6961,-3060,10,6,0,1
1058779,2274,-7063,-2988,11,2,0,1
1058784,2478,-7473,-3177,10,4,-2,1
1058789,2611,-7556,-3484,8,5,-4,1
1058794,2744,-7683,-3800,7,9,-4,1
1058799,2797,-7728,-4109,7,11,-4,1
1058804,2701,-7756,-4285,7,5,-4,1
1058809,2666,-7804,-4309,7,-1,-5,1
1058814,2642,-7788,-4277,7,-2,-5,1
1058819,2555,-7773,-4180,8,-7,-4,1
1058824,2456,-7730,-4056,8,-12,-4,1
1058829,2333,-7694,-3957,8,-12,-4,1
1058835,2282,-7637,-3846,9,-13,-4,1
1058839,2279,-7591,-3797,9,-9,-3,1
1058845,2278,-7555,-3786,9,-5,-3,1
1058849,2348,-7527,-3812,9,-4,-3,1
1058855,2475,-7502,-3891,9,-2,-3,1
1058859,2553,-7493,-3923,9,-2,-3,1
1058864,2664,-7505,-3951,9,-6,-3,1
1058869,2795,-7522,-3964,9,-10,-3,1
1058874,2832,-7541,-3972,10,-17,-3,1
1058879,2906,-7559,-3919,10,-27,-3,1
1058884,2951,-7553,-3890,11,-31,-3,1
1058890,2935,-7536,-3919,11,-36,-3,1
1058896,2905,-7530,-3910,11,-41,-3,1
1058900,2847,-7506,-3866,11,-40,-3,1
1058905,2767,-7464,-3955,11,-39,-4,1
1058909,2711,-7441,-3941,10,-36,-4,1
1058914,2655,-7409,-3994,9,-29,-5,1
1058919,2637,-7391,-4087,9,-23,-6,1
1058924,2447,-7368,-4017,8,-20,-5,1
1058929,2171,-7392,-3953,8,-22,-5,1
1058934,2156,-7429,-3908,8,-25,-5,1
1058939,2232,-7427,-3831,8,-17,-5,1
1058944,2268,-7435,-3691,9,-21,-5,1
1058949,2230,-7459,-3549,9,-31,-4,1
1058954,2305,-7476,-3588,10,-37,-4,1
1058959,2277,-7470,-3549,10,-37,-4,1
1058965,2311,-7481,-3638,10,-41,-4,1
1058971,2271,-7472,-3679,10,-42,-5,1
1058976,2177,-7464,-3736,9,-42,-5,1
1058980,2051,-7443,-3720,9,-42,-5,1
1058984,2028,-7413,-3728,8,-38,-6,1
1058989,1922,-7360,-3670,8,-32,-6,1
1058994,1931,-7307,-3684,7,-29,-6,1
1058999,1884,-7236,-3637,7,-20,-7,1
1059004,1831,-7177,-3626,6,-14,-7,1
1059009,1778,-7125,-3593,5,-10,-7,1
1059014,1780,-7100,-3585,4,-3,-7,1
1059019,1755,-7105,-3567,4,1,-8,1
1059024,1842,-7141,-3607,3,1,-8,1
1059029,1868,-7180,-3607,3,3,-9,1
1059034,1894,-7227,-3634,2,-1,-9,1
1059039,1907,-7270,-3643,2,-4,-10,1
1059044,1925,-7321,-3644,1,-6,-10,1
1059049,1934,-7385,-3642,1,-9,-10,1
1059054,2001,-7446,-3673,1,-12,-11,1
1059059,2010,-7495,-3682,1,-13,-11,1
1059064,2019,-7537,-3717,0,-17,-11,1
1059069,2004,-7552,-3719,0,-18,-12,1
1059074,1963,-7550,-3707,-1,-17,-12,1
1059079,1939,-7545,-3688,-1,-18,-12,1
1059084,1953,-7532,-3682,-1,-15,-12,1
1059089,1944,-7520,-3672,-2,-13,-13,1
1059094,1951,-7504,-3694,-2,-12,-13,1
1059099,1948,-7487,-3709,-3,-9,-13,1
1059104,1919,-7478,-3707,-3,-7,-13,1
1059109,1912,-7477,-3706,-3,-7,-13,1
1059114,1927,-7469,-3713,-4,-5,-13,1
1059119,1931,-7466,-3716,-4,-3,-13,1
1059124,1947,-7455,-3742,-5,-3,-13,1
1059129,1952,-7434,-3756,-5,-1,-13,1
1059134,1929,-7416,-3760,-5,0,-13,1
1059139,1924,-7396,-3775,-6,1,-12,1
1059144,1911,-7365,-3796,-6,4,-12,1
1059149,1886,-7323,-3828,-6,6,-12,1
1059154,1885,-7276,-3879,-7,7,-12,1
1059159,1888,-7228,-3904,-7,10,-11,1
1059164,1880,-7182,-3927,-8,12,-11,1
1059169,1886,-7131,-3961,-8,13,-11,1
1059174,1904,-7085,-3960,-9,15,-10,1
1059179,1943,-7043,-3948,-9,17,-10,1
1059184,2013,-7000,-3960,-9,18,-10,1
1059189,2065,-6956,-3948,-10,19,-9,1
1059194,2104,-6914,-3956,-10,19,-9,1
1059199,2145,-6872,-3984,-11,19,-8,1
1059204,2136,-6824,-4008,-11,21,-7,1
1059209,2133,-6776,-4029,-12,22,-7,1
1059214,2150,-6723,-4051,-12,25,-6,1
1059219,2154,-6677,-4048,-13,27,-6,1
1059224,2179,-6636,-4046,-13,27,-5,1
1059229,2215,-6593,-4046,-13,29,-4,1
1059234,2218,-6551,-4037,-14,31,-4,1
1059239,2237,-6517,-4041,-14,32,-3,1
1059244,2261,-6491,-4041,-15,34,-2,1
1059249,2271,-6482,-4038,-15,36,-2,1
1059254,2314,-6486,-4044,-16,35,-1,1
1059259,2353,-6491,-4054,-16,36,0,1
1059264,2378,-6501,-4060,-16,35,0,1
1059269,2423,-6508,-4070,-17,33,1,1
1059274,2448,-6503,-4059,-17,33,2,1
1059279,2467,-6496,-4032,-17,32,2,1
1059284,2495,-6487,-4015,-17,32,3,1
1059289,2496,-6482,-3988,-18,34,4,1
1059294,2490,-6485,-3967,-18,34,4,1
1059299,2487,-6494,-3955,-18,36,5,1
1059304,2459,-6512,-3938,-19,38,6,1
1059309,2444,-6541,-3925,-19,39,6,1
1059314,2452,-6577,-3912,-19,40,7,1
1059319,2454,-6611,-3895,-20,41,8,1
1059324,2479,-6655,-3880,-20,41,8,1
1059329,2518,-6699,-3874,-20,41,9,1
1059334,2549,-6745,-3873,-20,40,9,1
1059339,2594,-6797,-3883,-20,36,10,1
1059344,2641,-6849,-3892,-20,33,10,1
1059349,2680,-6895,-3894,-20,28,11,1
1059354,2725,-6936,-3888,-20,24,11,1
1059359,2744,-6970,-3879,-20,21,12,1
1059364,2733,-7000,-3863,-20,17,13,1
1059369,2710,-7028,-3851,-20,16,13,1
1059374,2672,-7058,-3844,-20,17,14,1
1059379,2636,-7094,-3842,-20,19,14,1
1059384,2611,-7133,-3846,-20,21,15,1
1059390,2584,-7170,-3857,-20,23,15,1
1059395,2569,-7210,-3874,-20,23,15,1
1059399,2566,-7245,-3890,-20,22,16,1
1059404,2563,-7271,-3910,-20,20,16,1
1059409,2568,-7288,-3924,-20,18,17,1
1059414,2577,-7299,-3940,-19,16,17,1
1059419,2570,-7294,-3951,-19,14,17,1
1059424,2557,-7272,-3955,-19,12,18,1
1059429,2529,-7238,-3953,-19,10,18,1
1059434,2488,-7201,-3951,-19,9,18,1
1059439,2448,-7162,-3945,-19,9,19,1
1059444,2404,-7127,-3942,-19,9,19,1
1059449,2349,-7088,-3946,-19,8,19,1
1059454,2283,-7043,-3949,-19,9,20,1
1059459,2218,-6982,-3943,-19,10,20,1
1059464,2153,-6915,-3932,-19,13,20,1
1059469,2106,-6854,-3920,-20,15,20,1
1059474,2080,-6806,-3917,-20,17,21,1
1059479,2053,-6774,-3926,-20,18,21,1
1059484,2026,-6752,-3952,-20,18,21,1
1059489,1999,-6734,-3981,-20,18,21,1
1059495,1968,-6710,-4014,-20,18,22,1
1059499,1946,-6686,-4034,-20,17,22,1
1059504,1939,-6666,-4047,-20,17,22,1
1059509,1934,-6645,-4050,-20,16,23,1
1059514,1932,-6626,-4060,-20,15,23,1
1059519,1919,-6600,-4088,-20,14,23,1
1059524,1882,-6571,-4128,-20,12,24,1
1059529,1836,-6553,-4176,-20,10,24,1
1059534,1782,-6546,-4230,-20,9,25,1
1059539,1725,-6547,-4279,-19,8,25,1
1059544,1747,-6555,-4270,-19,7,25,1
1059549,1799,-6558,-4242,-20,7,26,1
1059554,1858,-6554,-4190,-20,6,27,0
1059559,1898,-6550,-4153,-20,5,28,0
1059564,1885,-6551,-4138,-20,5,28,0
1059569,1817,-6564,-4155,-20,8,29,0
1059574,1715,-6613,-4193,-20,12,29,0
1059579,1582,-6663,-4226,-20,17,30,0
1059584,1512,-6746,-4257,-20,26,31,0
1059589,1513,-6844,-4294,-20,33,31,0
1059594,1560,-6927,-4347,-21,36,31,0
1059599,1609,-6994,-4393,-20,36,32,0
1059604,1631,-7051,-4441,-20,35,32,0
1059609,1621,-7102,-4480,-20,34,32,0
1059614,1608,-7143,-4508,-20,35,33,0
1059619,1613,-7179,-4533,-20,37,33,0
1059624,1636,-7207,-4552,-20,38,34,0
1059629,1652,-7228,-4567,-20,38,34,0
1059634,1640,-7245,-4573,-20,38,34,0
1059639,1608,-7267,-4571,-20,38,34,0
1059644,1573,-7301,-4571,-20,38,34,0
1059649,1556,-7339,-4584,-20,38,34,0
1059654,1559,-7365,-4607,-19,36,34,0
1059659,1560,-7366,-4615,-19,33,34,0
1059664,1559,-7345,-4606,-19,31,34,0
1059669,1549,-7310,-4571,-19,29,34,0
1059674,1528,-7271,-4529,-19,28,34,0
1059679,1511,-7239,-4502,-19,27,34,0
1059684,1498,-7222,-4491,-18,27,34,0
1059689,1485,-7215,-4490,-18,27,34,0
1059694,1472,-7203,-4488,-18,27,33,0
1059699,1451,-7189,-4474,-18,27,33,0
1059704,1436,-7162,-4443,-18,27,33,0
1059708,1440,-7122,-4406,-18,28,33,0
1059714,1455,-7072,-4371,-18,29,33,0
1059719,1477,-7017,-4349,-18,31,33,0
1059725,1497,-6959,-4341,-18,34,33,0
1059729,1504,-6912,-4334,-18,36,33,0
1059734,1508,-6876,-4327,-19,37,34,0
1059738,1521,-6854,-4315,-19,38,34,0
1059744,1539,-6848,-4296,-19,39,34,0
1059748,1564,-6859,-4278,-19,40,34,0
1059754,1582,-6878,-4252,-19,42,34,0
1059759,1585,-6909,-4219,-19,44,33,0
1059764,1588,-6949,-4180,-20,47,33,0
1059769,1598,-6999,-4137,-20,50,33,0
1059773,1635,-7056,-4096,-20,54,33,0
1059778,1709,-7112,-4057,-21,57,33,0
1059783,1800,-7171,-4017,-21,59,33,0
1059788,1901,-7227,-3978,-21,60,33,0
1059794,2004,-7278,-3947,-21,58,33,0
1059799,2100,-7330,-3927,-22,56,33,0
1059804,2215,-7373,-3911,-22,53,33,0
1059810,2331,-7408,-3912,-22,47,33,0
1059815,2422,-7439,-3892,-22,40,33,0
1059820,2489,-7464,-3871,-22,33,33,0
1059825,2507,-7488,-3820,-22,27,32,0
1059830,2501,-7507,-3779,-22,22,32,0
1059834,2466,-7515,-3741,-21,18,32,0
1059839,2408,-7502,-3719,-21,15,31,0
1059844,2339,-7461,-3697,-21,15,31,0
1059849,2287,-7401,-3676,-21,15,31,0
1059854,2236,-7330,-3643,-22,16,30,0
1059859,2186,-7255,-3614,-22,17,30,0
1059864,2138,-7182,-3584,-22,19,29,0
1059869,2090,-7101,-3571,-22,21,29,0
1059874,2023,-7032,-3557,-22,20,29,0
1059879,1939,-6983,-3562,-22,20,28,0
1059884,1840,-6948,-3571,-22,22,27,0
1059889,1755,-6923,-3598,-22,25,27,0
1059894,1675,-6901,-3628,-21,27,26,0
1059899,1611,-6877,-3666,-21,29,25,0
1059903,1565,-6840,-3693,-21,33,25,0
1059908,1528,-6802,-3725,-21,33,24,0
1059914,1477,-6767,-3756,-21,34,23,0
1059919,1438,-6731,-3806,-21,35,23,0
1059925,1415,-6695,-3863,-20,36,22,0
1059930,1405,-6656,-3931,-20,37,22,0
1059934,1393,-6612,-3986,-20,38,21,0
1059938,1377,-6563,-4033,-19,37,21,0
1059943,1348,-6522,-4079,-19,37,20,0
1059948,1316,-6482,-4124,-19,37,20,0
1059953,1275,-6445,-4184,-18,37,20,0
1059958,1231,-6413,-4240,-18,40,19,0
1059963,1201,-6374,-4285,-17,43,19,0
1059969,1170,-6330,-4317,-17,42,18,0
1059973,1127,-6288,-4340,-16,42,18,0
1059978,1093,-6242,-4356,-15,44,18,0
1059983,1069,-6196,-4369,-15,47,17,0
1059988,1048,-6157,-4382,-14,50,17,0
1059994,1036,-6136,-4392,-14,51,17,0
1059999,1024,-6134,-4404,-13,52,17,0
1060004,1018,-6156,-4419,-12,53,17,0
1060009,1008,-6214,-4446,-12,54,16,0
1060014,1031,-6284,-4466,-11,56,16,0
1060019,1083,-6350,-4511,-10,52,16,0
1060023,1117,-6421,-4543,-9,45,16,0
1060028,1140,-6477,-4588,-8,39,16,0
1060033,1156,-6508,-4608,-8,37,16,0
1060038,1186,-6513,-4614,-7,34,16,0
1060043,1215,-6498,-4590,-6,32,16,0
1060048,1246,-6470,-4561,-5,29,17,0
1060053,1274,-6435,-4532,-5,27,17,0
1060058,1285,-6403,-4521,-4,26,17,0
1060063,1285,-6377,-4512,-4,26,17,0
1060068,1269,-6361,-4497,-3,26,18,0
1060073,1247,-6370,-4468,-3,27,18,0
1060078,1231,-6397,-4439,-3,28,19,0
1060083,1230,-6442,-4410,-2,28,19,0
1060088,1248,-6508,-4396,-2,29,19,0
1060093,1271,-6596,-4387,-2,30,20,0
1060098,1269,-6702,-4376,-1,31,20,0
1060104,1258,-6806,-4364,-1,34,20,0
1060109,1273,-6891,-4362,-1,37,21,0
1060114,1291,-6974,-4352,0,35,21,0
1060118,1319,-7060,-4357,0,32,22,0
1060123,1363,-7146,-4363,0,30,22,0
1060128,1432,-7223,-4388,1,28,22,0
1060133,1509,-7285,-4410,1,24,22,0
1060138,1588,-7331,-4443,1,20,23,0
1060143,1657,-7363,-4461,2,16,23,0
1060148,1720,-7388,-4478,2,10,23,0
1060153,1778,-7413,-4494,2,6,24,0
1060158,1833,-7439,-4522,3,1,24,0
1060163,1869,-7467,-4547,3,-3,25,0
1060168,1883,-7496,-4575,4,-6,25,0
1060173,1869,-7533,-4600,4,-10,25,0
1060178,1835,-7575,-4628,4,-12,25,0
1060183,1787,-7611,-4645,5,-14,26,0
1060188,1741,-7637,-4667,5,-14,26,0
1060193,1695,-7667,-4678,5,-14,26,0
1060198,1656,-7696,-4686,6,-13,26,0
1060203,1612,-7721,-4687,6,-13,25,0
1060208,1560,-7740,-4688,6,-13,25,0
1060213,1512,-7749,-4689,7,-12,25,0
1060218,1474,-7767,-4698,7,-11,25,0
1060223,1448,-7793,-4712,7,-13,24,0
1060228,1427,-7803,-4730,7,-17,24,0
1060233,1413,-7778,-4744,7,-20,23,0
1060238,1400,-7713,-4731,7,-22,23,0
1060243,1386,-7616,-4692,7,-23,22,0
1060248,1369,-7510,-4637,7,-23,21,0
1060253,1355,-7396,-4586,7,-22,21,0
1060258,1335,-7277,-4555,7,-20,21,0
1060263,1309,-7156,-4536,6,-18,20,0
1060268,1281,-7039,-4519,6,-15,20,0
1060273,1255,-6925,-4493,5,-12,19,0
1060278,1235,-6815,-4450,5,-8,19,0
1060283,1212,-6708,-4395,4,-4,18,0
1060288,1175,-6611,-4352,4,1,18,0
1060293,1129,-6524,-4310,3,7,17,0
1060298,1096,-6470,-4283,3,13,17,0
1060303,1070,-6457,-4254,2,19,16,0
1060308,1062,-6491,-4246,2,23,16,0
1060313,1076,-6559,-4253,1,26,15,0
1060318,1110,-6642,-4287,1,27,14,0
1060323,1154,-6703,-4334,1,27,14,0
1060328,1219,-6734,-4366,1,26,14,0
1060333,1299,-6740,-4363,1,25,13,0
1060338,1396,-6734,-4343,1,24,13,0
1060343,1483,-6728,-4321,2,23,13,0
1060348,1557,-6726,-4313,2,22,13,0
1060353,1611,-6726,-4323,2,21,13,0
1060358,1641,-6743,-4334,2,18,13,0
1060363,1645,-6784,-4335,3,16,13,0
1060368,1654,-6860,-4333,3,15,13,0
1060373,1682,-6982,-4342,3,13,13,0
1060378,1710,-7126,-4369,4,11,12,0
1060383,1733,-7246,-4415,4,8,12,0
1060388,1752,-7328,-4457,5,5,12,0
1060393,1750,-7390,-4466,6,0,12,0
1060398,1743,-7435,-4456,6,-3,11,0
1060403,1732,-7470,-4439,7,-4,11,0
1060408,1721,-7502,-4440,7,-4,11,0
1060413,1689,-7527,-4449,8,-3,11,0
1060418,1653,-7546,-4469,8,-3,10,0
1060423,1586,-7569,-4469,9,-5,10,0
1060428,1504,-7591,-4470,9,-6,9,0
1060433,1432,-7604,-4461,10,-5,9,0
1060438,1380,-7609,-4456,10,-4,8,0
1060443,1336,-7612,-4443,11,-4,7,0
1060448,1299,-7610,-4425,11,-4,6,0
1060453,1245,-7603,-4398,12,-5,6,0
1060458,1199,-7591,-4371,13,-6,5,0
1060463,1172,-7575,-4353,13,-7,4,0
1060468,1156,-7566,-4340,13,-9,4,0
1060473,1152,-7547,-4329,14,-12,3,0
1060478,1148,-7510,-4315,14,-14,2,0
1060483,1145,-7451,-4298,15,-15,2,0
1060488,1142,-7366,-4282,15,-15,1,0
1060493,1147,-7258,-4283,15,-15,1,0
1060498,1151,-7136,-4279,15,-14,0,0
1060503,1156,-7016,-4261,15,-13,0,0
1060508,1154,-6904,-4230,15,-12,-1,0
1060513,1153,-6812,-4203,15,-11,-1,0
1060518,1148,-6751,-4194,15,-10,-2,0
1060523,1141,-6707,-4212,15,-10,-2,0
1060528,1124,-6663,-4249,15,-9,-3,0
1060533,1102,-6622,-4278,15,-9,-3,0
1060538,1083,-6572,-4277,14,-7,-4,0
1060543,1078,-6518,-4257,14,-5,-4,0
1060548,1079,-6468,-4228,14,-3,-5,0
1060553,1074,-6427,-4210,14,-2,-6,0
1060558,1060,-6394,-4197,13,0,-6,0
1060563,1034,-6378,-4183,13,3,-7,0
1060568,1004,-6382,-4157,13,6,-7,0
1060573,977,-6403,-4121,12,10,-8,0
1060578,954,-6437,-4086,12,13,-9,0
1060583,933,-6482,-4057,12,16,-9,0
1060588,918,-6537,-4035,12,19,-10,0
1060593,907,-6601,-4020,12,23,-10,0
1060598,906,-6667,-4002,12,26,-11,0
1060603,909,-6729,-3985,12,28,-11,0
1060608,916,-6780,-3958,12,30,-11,0
1060613,927,-6824,-3933,12,33,-11,0
1060618,941,-6865,-3899,13,35,-12,0
1060623,954,-6905,-3862,13,38,-12,0
1060628,966,-6941,-3819,14,41,-12,0
1060634,982,-6975,-3772,14,43,-11,0
1060639,1041,-8318,-4071,15,44,-11,0
1060644,1269,-8375,-2751,21,33,-14,0
1060649,1156,-8196,-3242,17,1,-6,0
1060654,683,-8245,-4077,4,-52,-6,0
1060659,135,-7933,-5587,-5,-32,-7,0
1060665,269,-7763,-7126,-2,23,-8,0
1060670,434,-8072,-7196,-2,68,-5,0
1060675,790,-7937,-7795,-7,73,-6,0
1060680,1050,-7902,-7233,-7,65,-5,0
1060685,1168,-7888,-6390,-4,61,-3,0
1060689,1325,-7920,-5517,-2,50,-3,0
1060695,1441,-7917,-4686,1,41,-3,0
1060700,1531,-7920,-4290,2,30,-2,0
1060705,1604,-7914,-3978,4,8,-2,0
1060709,1514,-7885,-4016,5,-7,-2,0
1060713,1359,-7962,-4291,4,-13,-2,0
1060718,1161,-7940,-4487,3,-10,0,0
1060723,1092,-7886,-4660,2,-2,0,0
1060728,1069,-7786,-4647,2,8,1,0
1060733,1081,-7695,-4562,2,14,2,0
1060738,1149,-7614,-4406,2,21,2,0
1060743,1081,-7564,-4175,2,32,2,0
1060748,1074,-7458,-4010,2,40,2,0
1060753,992,-7369,-3898,2,43,3,1
1060758,801,-7300,-3640,1,48,3,1
1060763,775,-7204,-3769,0,56,2,1
1060768,737,-7153,-3760,1,68,3,1
1060773,785,-7191,-3750,0,81,3,1
1060778,930,-7204,-3877,0,91,2,1
1060783,969,-7262,-3842,-1,98,2,1
1060788,1062,-7189,-3950,-1,97,2,1
1060793,1106,-7311,-3813,-1,94,2,1
1060798,1255,-7325,-3910,-1,88,2,1
1060803,1289,-7358,-3777,0,81,2,1
1060808,1393,-7286,-3798,0,72,3,1
1060813,1509,-7209,-3683,0,66,2,1
1060818,1590,-7188,-3688,0,61,2,1
1060823,1637,-7231,-3628,0,56,2,1
1060828,1618,-7221,-3648,0,53,1,1
1060833,1489,-7228,-3659,0,50,1,1
1060838,1428,-7173,-3619,-1,50,1,1
1060843,1375,-7236,-3577,-1,57,1,1
1060848,1345,-7250,-3492,-1,63,1,1
1060853,1320,-7257,-3469,-1,66,0,1
1060858,1320,-7272,-3413,-1,67,0,1
1060863,1365,-7395,-3401,-1,69,0,1
1060868,1442,-7441,-3486,0,70,0,1
1060873,1467,-7526,-3538,0,65,0,1
1060878,1544,-7588,-3635,1,56,0,1
1060883,1617,-7639,-3720,1,47,0,1
1060888,1709,-7633,-3811,2,38,0,1
1060893,1791,-7653,-3867,2,31,0,1
1060898,1886,-7699,-3913,2,25,0,1
1060903,2016,-7697,-3937,3,16,0,1
1060908,2006,-7700,-3950,3,7,0,1
1060913,1978,-7665,-3971,3,0,0,1
1060918,1885,-7638,-3966,4,-2,1,1
1060923,1851,-7590,-3976,4,-3,1,1
1060928,1826,-7565,-3966,4,-4,1,1
1060932,1851,-7534,-3963,4,-6,1,1
1060938,1844,-7505,-3956,4,-7,1,1
1060942,1844,-7472,-3932,4,-8,1,1
1060947,1880,-7457,-3919,4,-8,1,1
1060952,1906,-7439,-3894,4,-11,1,1
1060957,1959,-7414,-3925,4,-17,0,1
1060962,2153,-7383,-3852,4,-39,0,1
1060968,2073,-7360,-3874,5,-61,0,1
1060973,1975,-7340,-3847,5,-49,0,1
1060978,2012,-7327,-3830,5,-31,0,1
1060983,2062,-7327,-3913,5,-30,0,1
1060988,2108,-7319,-3900,5,-39,0,1
1060993,2137,-7312,-3924,5,-43,0,1
1060997,2182,-7309,-3886,5,-43,0,1
1061002,2263,-7299,-3858,5,-42,0,1
1061008,2350,-7291,-3850,5,-43,1,1
1061012,2428,-7283,-3822,5,-48,1,1
1061018,2502,-7279,-3843,5,-51,1,1
1061023,2535,-7283,-3852,5,-52,1,1
1061028,2530,-7271,-3869,5,-49,1,1
1061032,2508,-7254,-3857,5,-44,1,1
1061037,2457,-7242,-3836,5,-38,1,1
1061043,2400,-7227,-3799,5,-34,1,1
1061048,2343,-7223,-3748,5,-31,1,1
1061053,2289,-7232,-3721,5,-28,2,1
1061058,2262,-7254,-3675,5,-24,2,1
1061063,2272,-7274,-3649,5,-22,2,1
1061067,2205,-7273,-3645,5,-20,2,1
1061072,2144,-7258,-3639,5,-21,2,1
1061077,2156,-7266,-3627,5,-20,2,1
1061083,2139,-7262,-3638,5,-20,2,1
1061088,2176,-7280,-3642,5,-21,3,1
1061094,2214,-7299,-3644,4,-22,3,1
1061099,2240,-7314,-3628,4,-24,3,1
1061103,2254,-7313,-3613,5,-25,3,1
1061108,2257,-7319,-3590,5,-27,3,1
1061113,2283,-7339,-3590,5,-28,3,1
1061118,2297,-7364,-3610,5,-28,3,1
1061122,2304,-7370,-3648,5,-28,3,1
1061127,2318,-7366,-3682,5,-29,4,1
1061132,2334,-7362,-3720,5,-29,4,1
1061137,2374,-7353,-3764,5,-29,4,1
1061142,2459,-7346,-3797,5,-30,5,1
1061148,2563,-7342,-3820,5,-32,5,1
1061153,2685,-7335,-3833,5,-38,5,1
1061159,2879,-7326,-3840,6,-46,5,1
1061164,3150,-7320,-3872,6,-53,6,1
1061169,3387,-7312,-3918,6,-58,8,1
1061174,3561,-7303,-3948,7,-61,8,1
1061178,3573,-7296,-3973,7,-64,7,1
1061183,3310,-7303,-3906,6,-71,5,1
1061187,3018,-7328,-3776,5,-82,2,1
1061192,2707,-7300,-3850,5,-88,2,1
1061197,2558,-7325,-3826,6,-88,3,1
1061202,2304,-7315,-3755,7,-84,4,1
1061207,2147,-7389,-3605,7,-83,3,1
1061213,1989,-7425,-3298,7,-79,2,1
1061217,2021,-7425,-3144,6,-77,1,1
1061222,1912,-7372,-3128,6,-75,0,1
1061227,1918,-7326,-3185,7,-73,0,1
1061232,1885,-7312,-3142,9,-66,-1,1
1061238,1919,-7324,-3127,8,-62,-2,1
1061243,1898,-7277,-3142,8,-63,-2,1
1061248,1966,-7245,-3191,7,-65,-3,1
1061254,2007,-7254,-3259,7,-63,-4,1
1061259,2121,-7217,-3299,7,-62,-5,1
1061264,2171,-7172,-3307,6,-62,-5,1
1061268,2128,-7106,-3388,6,-66,-6,1
1061273,2105,-7053,-3427,6,-67,-7,1
1061278,2074,-7050,-3459,6,-64,-8,1
1061282,2079,-7007,-3470,6,-62,-9,1
1061287,2041,-6983,-3459,5,-59,-10,1
1061292,1953,-6968,-3425,4,-56,-11,1
1061297,1854,-6963,-3391,4,-52,-12,1
1061302,1758,-6968,-3364,4,-46,-13,1
1061307,1650,-6992,-3355,3,-38,-14,1
1061312,1557,-7023,-3376,3,-29,-15,1
1061317,1454,-7057,-3408,2,-19,-16,1
1061322,1369,-7091,-3462,2,-9,-17,1
1061328,1328,-7111,-3554,2,0,-17,1
1061332,1317,-7113,-3663,1,7,-18,1
1061337,1381,-7111,-3757,1,12,-18,1
1061342,1536,-7114,-3797,1,15,-19,1
1061347,1729,-7120,-3821,1,14,-18,1
1061352,1902,-7124,-3882,0,8,-18,1
1061357,2083,-7145,-3900,1,0,-19,1
1061362,2256,-7178,-3884,1,-7,-19,1
1061367,2384,-7213,-3902,1,-16,-18,1
1061372,2457,-7240,-3943,1,-24,-18,1
1061377,2455,-7258,-3993,1,-30,-18,1
1061382,2430,-7261,-4043,1,-33,-18,1
1061387,2374,-7244,-4073,1,-33,-18,1
1061392,2306,-7212,-4092,0,-33,-18,1
1061397,2257,-7168,-4099,0,-31,-17,1
1061402,2216,-7111,-4101,0,-28,-17,1
1061407,2190,-7046,-4091,-1,-25,-17,1
1061412,2180,-6975,-4077,-2,-21,-17,1
1061417,2161,-6905,-4057,-2,-18,-16,1
1061422,2145,-6851,-4035,-3,-16,-16,1
1061427,2137,-6808,-4015,-3,-13,-16,1
1061433,2117,-6784,-3992,-4,-10,-16,1
1061439,2096,-6785,-3977,-4,-10,-16,1
1061445,2067,-6797,-3978,-4,-9,-16,1
1061450,2036,-6822,-4001,-5,-9,-16,1
1061454,2031,-6859,-4035,-5,-10,-15,1
1061458,2062,-6888,-4077,-5,-10,-15,1
1061463,2115,-6894,-4100,-6,-12,-15,1
1061467,2182,-6878,-4113,-6,-16,-15,1
1061472,2243,-6853,-4120,-6,-20,-15,1
1061477,2295,-6827,-4130,-6,-24,-15,1
1061482,2346,-6802,-4132,-7,-28,-15,1
1061487,2375,-6777,-4131,-7,-31,-15,1
1061492,2368,-6752,-4113,-7,-33,-14,1
1061497,2338,-6731,-4087,-7,-34,-14,1
1061502,2295,-6719,-4056,-8,-34,-14,1
1061507,2248,-6723,-4033,-8,-34,-14,1
1061512,2211,-6740,-4024,-8,-33,-14,1
1061517,2181,-6766,-4025,-9,-31,-15,1
1061522,2154,-6801,-4021,-9,-31,-15,1
1061527,2111,-6866,-4010,-9,-31,-15,1
1061532,2054,-6968,-3994,-9,-31,-15,1
1061537,1989,-7081,-3986,-9,-30,-16,1
1061542,1912,-7188,-4000,-9,-30,-16,1
1061547,1819,-7267,-4021,-9,-30,-17,1
1061552,1739,-7329,-4035,-9,-28,-17,1
1061557,1679,-7382,-4030,-9,-24,-18,1
1061562,1635,-7426,-4019,-9,-21,-18,1
1061567,1609,-7460,-4012,-9,-18,-19,1
1061572,1597,-7483,-4028,-9,-15,-19,1
1061577,1590,-7500,-4066,-9,-12,-19,1
1061582,1617,-7523,-4112,-9,-10,-20,1
1061587,1680,-7553,-4154,-9,-9,-20,1
1061592,1766,-7586,-4196,-9,-11,-20,1
1061597,1856,-7627,-4232,-8,-16,-20,1
1061602,1937,-7668,-4278,-8,-22,-20,1
1061607,2002,-7700,-4324,-8,-27,-20,1
1061612,2057,-7717,-4367,-7,-32,-20,1
1061617,2088,-7733,-4395,-7,-36,-20,1
1061622,2086,-7760,-4406,-7,-40,-20,1
1061627,2054,-7787,-4400,-7,-42,-20,1
1061632,1988,-7806,-4393,-7,-41,-20,1
1061637,1892,-7811,-4389,-7,-40,-20,1
1061642,1782,-7803,-4384,-7,-37,-20,1
1061647,1670,-7779,-4371,-7,-32,-20,1
1061652,1567,-7735,-4352,-7,-26,-20,1
1061657,1489,-7669,-4331,-7,-19,-20,1
1061662,1431,-7590,-4312,-7,-13,-20,1
1061667,1402,-7513,-4301,-7,-7,-20,1
1061672,1403,-7445,-4291,-7,-3,-19,1
1061677,1422,-7383,-4297,-7,-1,-19,1
1061682,1453,-7326,-4306,-7,-1,-19,1
1061687,1484,-7276,-4311,-7,-2,-19,1
1061692,1500,-7235,-4306,-7,-4,-19,1
1061697,1509,-7204,-4300,-7,-6,-18,1
1061702,1507,-7178,-4292,-6,-9,-18,1
1061707,1485,-7155,-4284,-6,-11,-18,1
1061712,1453,-7139,-4275,-6,-12,-18,1
1061717,1404,-7136,-4257,-6,-12,-18,1
1061722,1339,-7139,-4236,-6,-12,-18,1
1061727,1271,-7142,-4227,-6,-12,-18,1
1061732,1204,-7142,-4227,-6,-12,-18,1
1061737,1152,-7129,-4235,-6,-11,-18,1
1061742,1147,-7108,-4225,-5,-10,-17,1
1061747,1174,-7075,-4195,-6,-9,-17,1
1061752,1202,-7035,-4158,-6,-9,-16,1
1061757,1217,-6992,-4120,-6,-10,-16,1
1061762,1232,-6953,-4081,-5,-10,-16,1
1061767,1229,-6922,-4060,-5,-10,-16,1
1061772,1203,-6895,-4062,-5,-10,-16,1
1061777,1160,-6878,-4074,-5,-11,-15,1
1061782,1133,-6860,-4074,-5,-10,-15,1
1061787,1138,-6845,-4054,-5,-10,-15,1
1061793,1163,-6833,-4022,-5,-10,-15,1
1061798,1182,-6822,-3990,-5,-11,-14,1
1061803,1179,-6815,-3960,-5,-12,-14,1
1061808,1167,-6812,-3941,-5,-13,-14,1
1061814,1148,-6810,-3929,-5,-14,-14,1
1061820,1137,-6817,-3918,-5,-14,-14,1
1061824,1127,-6837,-3900,-5,-14,-14,1
1061830,1115,-6866,-3876,-5,-13,-14,1
1061835,1093,-6897,-3853,-5,-13,-14,1
1061840,1063,-6930,-3842,-5,-13,-14,1
1061845,1038,-6955,-3847,-6,-12,-14,1
1061850,1024,-6981,-3856,-6,-11,-14,1
1061855,1037,-7004,-3865,-6,-10,-14,1
1061860,1074,-7023,-3865,-6,-10,-14,1
1061865,1134,-7033,-3866,-6,-11,-14,1
1061870,1192,-7044,-3877,-6,-13,-14,1
1061875,1232,-7064,-3895,-6,-15,-14,1
1061880,1245,-7094,-3915,-6,-17,-14,1
1061884,1234,-7131,-3933,-5,-18,-14,1
1061888,1212,-7170,-3940,-5,-17,-14,1
1061893,1190,-7217,-3941,-5,-16,-14,1
1061897,1170,-7276,-3941,-5,-15,-15,1
1061902,1147,-7339,-3955,-5,-15,-15,1
1061907,1118,-7404,-3974,-5,-14,-15,1
1061912,1089,-7467,-4002,-5,-13,-16,1
1061917,1072,-7528,-4032,-5,-12,-16,1
1061922,1067,-7581,-4061,-5,-12,-16,1
1061927,1073,-7625,-4084,-5,-13,-17,1
1061932,1077,-7660,-4105,-5,-13,-17,1
1061937,1084,-7683,-4126,-5,-13,-17,1
1061942,1087,-7690,-4147,-4,-13,-17,1
1061947,1080,-7684,-4166,-4,-13,-17,1
1061952,1059,-7664,-4191,-4,-13,-17,1
1061957,1035,-7627,-4213,-4,-12,-17,1
1061962,1018,-7580,-4235,-4,-10,-17,1
1061967,1012,-7525,-4261,-5,-7,-17,1
1061972,1020,-7462,-4278,-5,-4,-17,1
1061977,1038,-7397,-4285,-5,-2,-17,1
1061982,1059,-7336,-4290,-5,0,-17,1
1061987,1092,-7285,-4299,-5,0,-17,1
1061992,1145,-7251,-4321,-5,1,-16,1
1061997,1216,-7241,-4353,-5,1,-16,1
1062002,1287,-7247,-4396,-5,0,-16,1
1062007,1337,-7262,-4439,-5,-3,-15,1
1062012,1367,-7280,-4473,-5,-6,-15,1
1062017,1392,-7289,-4499,-4,-8,-15,1
1062022,1419,-7286,-4515,-4,-10,-14,1
1062028,1449,-7278,-4514,-4,-11,-14,1
1062033,1469,-7259,-4515,-4,-12,-14,1
1062038,1478,-7231,-4511,-4,-13,-13,1
1062042,1468,-7199,-4505,-4,-14,-13,1
1062048,1438,-7166,-4491,-4,-15,-13,1
1062053,1407,-7127,-4471,-4,-15,-12,1
1062058,1392,-7084,-4449,-4,-15,-12,1
1062063,1395,-7035,-4423,-4,-14,-12,1
1062068,1414,-6984,-4395,-4,-14,-12,1
1062073,1441,-6953,-4367,-4,-13,-12,1
1062077,1462,-6955,-4339,-4,-14,-12,1
1062082,1474,-6983,-4333,-4,-17,-12,1
1062088,1480,-7016,-4345,-4,-20,-11,1
1062093,1495,-7042,-4362,-3,-24,-11,1
1062097,1518,-7049,-4368,-3,-26,-11,1
1062102,1554,-7039,-4351,-3,-28,-11,1
1062108,1591,-7017,-4312,-3,-29,-12,1
1062113,1622,-6978,-4271,-3,-30,-12,1
1062117,1634,-6925,-4236,-2,-31,-12,1
1062122,1624,-6868,-4209,-2,-32,-12,1
1062127,1604,-6811,-4187,-2,-31,-12,1
1062132,1581,-6760,-4155,-2,-30,-12,1
1062137,1552,-6721,-4112,-2,-28,-13,1
1062142,1520,-6689,-4064,-2,-25,-13,1
1062148,1489,-6658,-4020,-2,-22,-13,1
1062153,1464,-6619,-3988,-2,-20,-14,1
1062158,1453,-6572,-3968,-2,-17,-14,1
1062163,1471,-6520,-3951,-2,-13,-14,1
1062169,1506,-6475,-3921,-1,-10,-15,1
1062175,1543,-6444,-3885,-1,-10,-15,1
1062181,1571,-6425,-3862,-1,-10,-16,1
1062185,1589,-6421,-3853,0,-11,-16,1
1062190,1604,-6421,-3854,0,-12,-17,1
1062195,1609,-6428,-3863,0,-13,-17,1
1062200,1610,-6450,-3865,1,-13,-18,1
1062205,1608,-6478,-3865,1,-14,-18,1
1062211,1613,-6501,-3872,2,-14,-19,1
1062216,1636,-6506,-3888,2,-15,-19,1
1062222,1677,-6491,-3903,3,-15,-19,1
1062227,1728,-6464,-3907,3,-14,-20,1
1062232,1768,-6432,-3900,4,-14,-20,1
1062237,1795,-6401,-3895,4,-15,-20,1
1062242,1801,-6378,-3899,5,-16,-21,1
1062246,1799,-6364,-3927,6,-16,-21,1
1062251,1799,-6363,-3963,6,-16,-21,1
1062255,1796,-6370,-3994,7,-16,-21,1
1062260,1790,-6387,-4015,7,-15,-22,1
1062264,1781,-6411,-4029,8,-16,-22,1
1062269,1793,-6444,-4045,8,-16,-22,1
1062274,1830,-6475,-4082,9,-17,-22,1
1062279,1888,-6508,-4129,10,-18,-22,1
1062284,1944,-6553,-4175,10,-20,-22,1
1062288,1975,-6609,-4213,11,-24,-22,1
1062292,1981,-6668,-4255,12,-27,-22,1
1062298,1976,-6714,-4304,12,-29,-22,1
1062303,1979,-6750,-4357,13,-30,-22,1
1062308,1978,-6775,-4400,13,-30,-22,1
1062313,1961,-6794,-4423,14,-30,-22,1
1062317,1932,-6815,-4435,14,-30,-22,1
1062322,1897,-6833,-4449,14,-30,-22,1
1062326,1861,-6844,-4470,15,-30,-22,1
1062331,1832,-6851,-4499,15,-30,-21,1
1062336,1805,-6863,-4519,15,-29,-21,1
1062341,1793,-6885,-4527,16,-28,-21,1
1062346,1799,-6909,-4528,16,-27,-21,1
1062351,1822,-6921,-4531,16,-29,-20,1
1062357,1851,-6917,-4535,16,-32,-20,1
1062362,1867,-6897,-4538,17,-34,-19,1
1062367,1868,-6872,-4528,17,-36,-19,1
1062372,1851,-6847,-4497,17,-37,-18,1
1062377,1821,-6823,-4455,17,-37,-18,1
1062381,1780,-6797,-4404,17,-37,-17,1
1062386,1723,-6782,-4356,17,-35,-17,1
1062391,1657,-6782,-4315,17,-33,-16,1
1062396,1588,-6798,-4280,17,-29,-15,1
1062401,1522,-6834,-4244,17,-26,-15,1
1062406,1467,-6896,-4216,17,-24,-14,1
1062411,1425,-6974,-4197,17,-22,-13,1
1062416,1396,-7061,-4186,17,-22,-13,1
1062421,1377,-7156,-4175,17,-22,-12,1
1062426,1371,-7249,-4167,18,-21,-11,1
1062431,1384,-7333,-4152,18,-20,-10,1
1062436,1414,-7404,-4135,18,-20,-9,1
1062441,1454,-7461,-4121,19,-22,-9,1
1062446,1487,-7512,-4113,19,-23,-8,1
1062451,1504,-7563,-4110,20,-25,-7,1
1062456,1503,-7618,-4108,21,-27,-6,1
1062461,1483,-7674,-4108,21,-30,-5,1
1062466,1457,-7728,-4104,22,-32,-5,1
1062471,1428,-7775,-4086,23,-33,-4,1
1062476,1387,-7805,-4061,23,-34,-3,1
1062481,1335,-7824,-4017,24,-33,-3,1
1062486,1275,-7840,-3962,25,-32,-2,1
1062491,1224,-7854,-3909,25,-30,-1,1
1062496,1167,-7867,-3873,26,-29,-1,1
1062501,1134,-7882,-3846,27,-29,0,1
1062506,1124,-7897,-3819,28,-29,0,1
1062511,1120,-7916,-3792,28,-29,1,1
1062516,1151,-7939,-3748,29,-30,1,1
1062521,1174,-7961,-3697,30,-31,2,1
1062526,1175,-7985,-3643,31,-32,3,1
1062531,1154,-8011,-3589,31,-34,3,1
1062536,1115,-8028,-3542,32,-35,3,1
1062541,1074,-8033,-3500,33,-37,4,1
1062546,1049,-8022,-3452,33,-37,4,1
1062551,1049,-8008,-3397,34,-37,5,1
1062556,1057,-7992,-3334,35,-37,5,1
1062561,1062,-7976,-3271,35,-39,5,1
1062566,1047,-7949,-3213,36,-41,5,1
1062571,1004,-7909,-3163,36,-42,6,1
1062576,950,-7859,-3113,37,-43,6,1
1062581,893,-7806,-3056,37,-42,6,1
1062586,839,-7757,-2988,37,-40,6,1
1062591,794,-7706,-2915,38,-38,6,1
1062596,757,-8945,-2602,38,-37,6,1
1062601,520,-9019,-786,46,-54,5,1
1062606,-140,-9409,-1322,28,-127,5,1
1062612,224,-8682,-3473,13,-172,-3,1
1062618,261,-8990,-5317,19,-83,2,1
1062623,331,-8730,-6897,11,17,1,1
1062628,1002,-8314,-8252,0,52,-3,1
1062633,1174,-7890,-7706,2,61,-1,1
1062637,1334,-7627,-6997,5,58,1,1
1062643,1352,-7518,-5846,8,56,3,1
1062647,914,-7724,-4242,1,51,0,1
1062653,657,-7624,-3000,-2,31,-3,1
1062657,555,-7416,-2584,0,8,-3,1
1062661,449,-7215,-2362,2,1,-3,1
1062666,238,-7054,-2024,3,18,-2,1
1062671,174,-6926,-1979,3,32,-2,1
1062676,109,-6794,-1923,2,43,-1,1
1062681,119,-6686,-1952,2,51,-1,1
1062686,96,-6603,-1850,2,59,-1,1
1062691,144,-6526,-1808,2,63,-1,1
1062696,173,-7405,-1636,3,68,0,1
1062701,40,-7646,-1242,4,65,0,1
1062706,-183,-7704,-1236,4,42,-2,1
1062711,-395,-7293,-1141,5,18,-6,1
1062716,77,-7365,-1141,4,13,-7,1
1062721,922,-7506,-1506,0,39,0,1
1062726,1581,-7196,-2076,-1,54,3,1
1062731,1249,-8048,-1979,1,47,5,1
1062736,2130,-7810,-3279,-1,33,0,1
1062741,2277,-7987,-3746,-2,43,-3,1
1062746,2317,-7525,-3934,-3,33,-6,1
1062751,1980,-7186,-3701,-4,31,-6,0
1062756,1667,-6863,-3117,-4,32,-5,0
1062761,1563,-6947,-2571,-4,43,-4,0
1062766,1652,-6817,-2371,-4,48,-4,0
1062771,1486,-6713,-2139,-4,46,-3,0
1062776,1390,-7153,-2204,-3,41,-2,0
1062781,1594,-6896,-2918,-2,48,-4,0
1062786,1638,-7699,-3132,-1,60,-5,0
1062791,1866,-7635,-3906,-2,64,-6,0
1062796,1779,-7646,-4220,-2,55,-6,0
1062801,1783,-7710,-4360,-1,35,-6,0
1062806,1899,-7778,-4082,-1,26,-6,0
1062811,2101,-7745,-3888,0,20,-6,0
1062816,2228,-7794,-3542,2,8,-6,0
1062821,2270,-7814,-3413,4,-9,-6,0
1062826,2261,-7837,-3523,5,-32,-6,0
1062831,2123,-7927,-3599,6,-46,-5,0
1062836,2134,-7834,-3834,5,-49,-5,0
1062841,2036,-7821,-3797,5,-44,-5,0
1062846,1953,-7686,-3851,4,-35,-5,0
1062851,1889,-7702,-3656,4,-25,-4,0
1062856,1786,-7727,-3585,4,-17,-4,0
1062861,1776,-7929,-3557,5,-15,-4,0
1062866,1855,-7934,-3471,6,-16,-4,0
1062871,1762,-7855,-3457,7,-15,-5,0
1062876,1775,-7732,-3405,7,-12,-4,0
1062881,1779,-7793,-3408,7,-3,-4,0
1062886,1759,-7833,-3503,7,5,-4,0
1062891,1768,-7877,-3520,7,11,-5,0
1062896,1678,-7901,-3529,7,15,-4,0
1062901,1655,-7940,-3563,8,17,-4,0
1062906,1645,-7898,-3575,8,20,-3,0
1062911,1667,-7837,-3626,9,20,-2,0
1062916,1812,-7778,-3706,9,22,-1,0
1062921,1906,-7718,-3772,8,27,-1,0
1062926,2085,-7666,-3832,8,32,-2,0
1062931,2222,-7620,-3818,8,34,-2,0
1062936,2353,-7581,-3777,8,34,-2,0
1062941,2447,-7552,-3713,8,30,-2,0
1062946,2433,-7527,-3649,8,23,-2,0
1062951,2425,-7510,-3609,9,18,-1,0
1062956,2349,-7496,-3573,9,14,-1,0
1062961,2341,-7484,-3561,9,14,-1,0
1062966,2368,-7473,-3551,9,17,-1,0
1062971,2401,-7465,-3550,9,18,-1,0
1062976,2470,-7458,-3554,9,17,-1,0
1062981,2502,-7456,-3547,9,14,-1,0
1062986,2581,-7459,-3554,9,9,0,0
1062991,2680,-7461,-3546,9,4,0,0
1062996,2804,-7444,-3557,10,-1,0,0
1063001,2917,-7430,-3576,10,-7,0,0
1063006,2976,-7410,-3614,10,-11,0,0
1063011,3012,-7407,-3665,10,-13,0,0
1063016,3015,-7412,-3696,10,-16,0,0
1063021,3022,-7413,-3703,10,-16,0,0
1063026,3012,-7416,-3672,10,-16,1,0
1063031,2977,-7407,-3631,10,-15,1,0
1063036,2933,-7404,-3584,10,-13,1,0
1063041,2870,-7406,-3556,10,-10,2,0
1063046,2841,-7407,-3542,10,-8,2,0
1063051,2841,-7411,-3528,10,-3,2,0
1063056,2843,-7415,-3527,10,0,2,0
1063061,2832,-7415,-3532,10,4,2,0
1063066,2819,-7418,-3564,10,8,3,0
1063071,2825,-7425,-3605,11,8,3,0
1063076,2836,-7428,-3624,11,3,3,0
1063081,2822,-7430,-3617,11,-3,3,0
1063086,2781,-7435,-3573,11,-5,3,0
1063091,2720,-7439,-3489,11,-3,3,0
1063096,2631,-7446,-3403,11,0,4,0
1063101,2532,-7450,-3337,12,1,4,0
1063106,2454,-7454,-3288,12,3,4,0
1063111,2366,-7459,-3267,12,5,4,0
1063116,2272,-7464,-3264,12,8,4,0
1063121,2161,-7468,-3254,12,12,4,0
1063126,2048,-7473,-3238,12,17,4,0
1063131,1966,-7476,-3252,12,22,5,0
1063136,1938,-7477,-3265,12,28,5,0
1063141,1936,-7478,-3295,12,35,5,0
1063146,1951,-7481,-3366,12,40,6,0
1063151,1939,-7477,-3478,12,46,6,0
1063156,1963,-7473,-3565,12,52,6,0
1063161,2020,-7464,-3591,12,57,6,0
1063165,2081,-7427,-3587,12,63,6,0
1063171,2100,-7279,-3565,12,67,6,0
1063176,2108,-6988,-3503,12,73,6,0
1063181,2191,-6810,-3377,12,84,6,0
1063186,2211,-6645,-3304,10,96,6,0
1063191,2176,-6560,-3275,8,105,5,0
1063196,2146,-6512,-3295,7,112,5,0
1063201,1998,-7459,-3287,6,116,5,0
1063206,1958,-7068,-3414,5,110,5,0
1063211,2018,-6930,-3536,6,101,6,0
1063215,1965,-8241,-3528,8,101,8,0
1063220,2124,-7919,-3497,6,95,7,0
1063225,2488,-7621,-3563,4,75,7,0
1063231,2580,-7905,-3764,6,60,9,0
1063236,2888,-7838,-3478,7,40,9,0
1063241,3142,-7702,-3493,6,26,7,0
1063246,3268,-7535,-3605,8,14,8,0
1063251,3521,-7421,-3371,8,-3,7,0
1063256,3235,-7320,-3238,8,-7,8,0
1063261,2948,-7411,-2891,7,-13,6,0
1063266,2631,-7316,-2718,6,-13,6,0
1063271,2323,-7269,-2730,6,-11,6,0
1063276,2104,-7276,-2799,5,-5,7,0
1063281,1997,-7331,-2895,4,7,6,0
1063285,1879,-7337,-2763,5,16,8,0
1063291,1842,-7405,-2820,4,13,8,0
1063296,1812,-7492,-2783,4,7,8,0
1063301,1820,-7545,-2924,4,5,8,0
1063305,1854,-7583,-2954,3,8,8,0
1063311,1929,-7613,-3041,3,11,8,0
1063316,2047,-7656,-3034,3,12,9,0
1063321,2192,-7703,-3106,3,12,9,0
1063326,2288,-7757,-3089,2,12,9,0
1063331,2308,-7820,-3139,2,10,9,0
1063336,2258,-7897,-3109,2,6,9,0
1063341,2155,-7982,-3095,1,2,8,0
1063345,2020,-8054,-3070,1,0,8,0
1063351,1876,-8114,-3106,0,1,8,0
1063356,1766,-8159,-3123,0,4,8,0
1063360,1750,-8181,-3173,-1,11,8,0
1063365,1786,-8176,-3174,-2,19,7,0
1063370,1843,-8159,-3151,-2,23,7,0
1063375,1911,-8128,-3135,-3,24,7,0
1063380,1975,-8083,-3120,-3,24,7,0
1063385,2079,-8026,-3150,-3,22,7,0
1063390,2241,-7955,-3208,-4,19,7,0
1063396,2387,-7878,-3248,-4,15,7,0
1063401,2508,-7811,-3244,-5,8,7,0
1063405,2560,-7749,-3228,-5,2,7,0
1063410,2535,-7689,-3183,-6,-4,7,0
1063416,2490,-7618,-3178,-6,-9,7,0
1063420,2446,-7536,-3180,-7,-9,7,0
1063425,2391,-7452,-3184,-7,-7,7,0
1063431,2356,-7380,-3164,-8,-4,7,0
1063436,2294,-7308,-3131,-9,-1,7,0
1063440,2202,-7239,-3060,-9,1,7,0
1063445,2114,-7169,-3018,-10,4,6,0
1063450,2030,-7089,-2980,-11,9,6,0
1063456,1953,-7012,-2957,-12,15,6,0
1063460,1904,-6942,-2928,-12,21,6,0
1063465,1856,-6883,-2896,-13,27,5,0
1063470,1814,-6838,-2850,-14,31,5,0
1063475,1783,-6804,-2837,-15,34,5,0
1063480,1775,-6767,-2843,-15,35,4,0
1063485,1791,-6735,-2870,-16,35,4,0
1063491,1835,-6712,-2888,-16,35,4,0
1063496,1892,-6696,-2893,-17,33,3,0
1063501,1953,-6687,-2887,-17,28,3,0
1063506,2005,-6680,-2884,-17,21,3,0
1063511,2031,-6652,-2879,-18,14,3,0
1063517,2034,-6616,-2866,-18,8,3,0
1063522,2001,-6575,-2841,-19,5,2,0
1063527,1927,-6534,-2784,-19,5,2,0
1063532,1828,-6501,-2709,-20,8,2,0
1063537,1716,-6479,-2633,-21,13,2,0
1063542,1591,-6467,-2568,-22,19,1,0
1063546,1469,-6475,-2529,-23,27,1,0
1063550,1360,-6504,-2509,-24,36,1,0
1063555,1270,-6563,-2492,-24,44,0,0
1063560,1224,-6648,-2494,-25,52,0,0
1063565,1229,-6743,-2520,-26,57,-1,0
1063571,1261,-6846,-2563,-26,59,-1,0
1063576,1320,-6959,-2629,-26,59,-2,0
1063582,1388,-7076,-2696,-26,57,-2,0
1063586,1449,-7189,-2742,-27,54,-2,0
1063591,1519,-7289,-2783,-27,50,-3,0
1063596,1597,-7371,-2827,-27,45,-3,0
1063600,1664,-7437,-2864,-27,41,-3,0
1063605,1718,-7487,-2901,-27,38,-3,0
1063610,1744,-7524,-2924,-27,36,-3,0
1063615,1730,-7550,-2930,-27,35,-3,0
1063620,1697,-7566,-2940,-27,34,-3,0
1063625,1644,-7566,-2955,-27,36,-3,0
1063630,1592,-7561,-2974,-27,39,-3,0
1063636,1550,-7556,-2997,-27,43,-3,0
1063641,1501,-7560,-3006,-27,48,-3,0
1063645,1460,-7584,-3007,-27,53,-3,0
1063651,1433,-7621,-3024,-27,58,-3,0
1063655,1423,-7674,-3057,-27,63,-3,0
1063660,1473,-7738,-3115,-27,67,-3,0
1063665,1595,-7799,-3194,-26,70,-3,0
1063670,1767,-7859,-3277,-26,69,-2,0
1063675,1973,-7921,-3342,-26,62,-2,0
1063680,2168,-7992,-3404,-25,51,-2,0
1063686,2319,-8059,-3464,-24,37,-1,0
1063690,2422,-8103,-3524,-24,23,-1,0
1063696,2459,-8110,-3565,-23,10,-1,0
1063700,2440,-8092,-3587,-23,1,0,0
1063705,2376,-8062,-3574,-22,-4,0,0
1063711,2263,-8021,-3523,-22,-4,0,0
1063716,2114,-7973,-3461,-23,-1,1,0
1063722,1961,-7922,-3400,-23,5,1,0
1063727,1836,-7887,-3365,-23,15,1,0
1063732,1776,-7872,-3370,-23,24,1,0
1063737,1779,-7864,-3406,-23,30,1,0
1063742,1827,-7864,-3455,-24,33,1,0
1063746,1905,-7872,-3496,-24,33,1,0
1063751,1990,-7881,-3526,-24,30,2,0
1063756,2068,-7882,-3550,-24,25,2,0
1063760,2130,-7876,-3571,-24,20,2,0
1063765,2159,-7862,-3583,-24,16,2,0
1063770,2156,-7841,-3586,-24,14,2,0
1063775,2131,-7818,-3580,-24,13,2,0
1063780,2096,-7792,-3565,-24,13,2,0
1063785,2070,-7769,-3558,-24,15,2,0
1063790,2072,-7746,-3556,-25,17,2,0
1063796,2097,-7732,-3551,-25,19,1,0
1063802,2133,-7722,-3549,-25,19,1,0
1063806,2166,-7718,-3543,-26,17,1,0
1063812,2190,-7717,-3538,-26,16,1,0
1063817,2199,-7716,-3536,-26,15,1,0
1063821,2199,-7713,-3528,-26,15,1,0
1063826,2198,-7710,-3516,-26,15,1,0
1063830,2203,-7705,-3508,-27,15,1,0
1063835,2213,-7696,-3503,-27,15,1,0
1063840,2220,-7666,-3502,-27,14,1,0
1063845,2205,-7614,-3495,-27,12,0,0
1063850,2186,-7545,-3474,-27,11,0,0
1063855,2164,-7468,-3442,-28,12,0,0
1063860,2149,-7391,-3404,-28,14,0,0
1063865,2161,-7294,-3369,-28,15,0,0
1063870,2179,-7205,-3354,-28,14,0,0
1063875,2178,-7127,-3353,-29,12,0,0
1063880,2170,-7042,-3354,-29,11,0,0
1063885,2168,-6957,-3344,-29,11,0,0
1063890,2189,-6867,-3336,-29,11,0,0
1063895,2239,-6778,-3317,-29,9,0,0
1063900,2291,-6688,-3287,-29,7,0,0
1063905,2329,-6593,-3248,-29,3,0,0
1063910,2331,-6499,-3207,-30,0,0,0
1063915,2295,-6414,-3171,-30,-2,0,0
1063920,2233,-6337,-3147,-30,-3,0,0
1063925,2175,-6263,-3130,-30,-2,0,0
1063930,2144,-6191,-3118,-30,0,0,0
1063935,2141,-6108,-3100,-30,3,0,0
1063940,2148,-6021,-3071,-31,5,0,0
1063945,2154,-5953,-3036,-31,5,0,0
1063950,2167,-5907,-3019,-31,6,0,0
1063955,2183,-5865,-3023,-31,6,0,0
1063960,2199,-5826,-3049,-31,6,0,0
1063965,2203,-5804,-3072,-31,5,0,0
1063970,2192,-5811,-3080,-31,6,0,0
1063975,2165,-5849,-3080,-31,7,0,0
1063980,2127,-5910,-3079,-31,10,-1,0
1063985,2085,-6001,-3091,-31,13,-1,0
1063990,2072,-6067,-3131,-31,17,-1,0
1063995,2081,-6139,-3197,-30,19,-1,0
1064000,2093,-6230,-3264,-30,20,-2,0
1064005,2109,-6327,-3331,-30,21,-2,0
1064010,2134,-6429,-3360,-29,23,-2,0
1064015,2191,-6527,-3392,-29,25,-2,0
1064020,2264,-6621,-3435,-28,24,-2,0
1064025,2327,-6708,-3503,-27,21,-2,0
1064030,2365,-6788,-3584,-27,20,-2,0
1064035,2390,-6859,-3665,-26,19,-2,0
1064040,2400,-6916,-3729,-25,20,-2,0
1064045,2412,-6963,-3780,-25,20,-2,0
1064050,2433,-7010,-3822,-24,20,-2,1
1064055,2475,-7060,-3869,-23,21,-1,1
1064060,2533,-7108,-3935,-22,22,-1,1
1064065,2591,-7157,-3991,-21,22,-1,1
1064070,2642,-7220,-4040,-20,20,0,1
1064075,2680,-7298,-4077,-19,17,0,1
1064080,2715,-7383,-4120,-18,15,1,1
1064085,2755,-7449,-4163,-17,13,2,1
1064090,2779,-7496,-4214,-16,11,2,1
1064095,2783,-7539,-4253,-15,8,3,1
1064100,2783,-7578,-4285,-14,5,3,1
1064105,2790,-7606,-4303,-13,3,4,1
1064110,2799,-7627,-4313,-12,2,4,1
1064115,2805,-7641,-4319,-12,1,5,1
1064120,2796,-7655,-4318,-11,0,5,1
1064125,2790,-7670,-4315,-10,-1,6,1
1064130,2799,-7693,-4318,-9,-2,7,1
1064135,2833,-7729,-4319,-9,-2,7,1
1064140,2907,-7766,-4327,-8,-3,8,1
1064145,3001,-7791,-4331,-8,-6,9,1
1064150,3089,-7801,-4324,-7,-11,10,1
1064155,3147,-7797,-4306,-6,-17,11,1
1064160,3166,-7783,-4290,-6,-21,11,1
1064165,3149,-7767,-4267,-6,-22,12,1
1064170,3102,-7748,-4253,-5,-23,13,1
1064175,3028,-7735,-4243,-5,-23,13,1
1064180,2940,-7730,-4239,-4,-22,14,1
1064185,2858,-7726,-4243,-4,-20,15,1
1064190,2790,-7712,-4245,-4,-17,15,1
1064195,2745,-7693,-4243,-4,-15,16,1
1064200,2743,-7673,-4238,-4,-13,16,1
1064205,2821,-7659,-4236,-3,-12,17,1
1064210,2903,-7649,-4203,-3,-15,18,1
1064215,3016,-7633,-4214,-3,-18,18,1
1064221,3067,-7627,-4189,-2,-24,19,1
1064226,3064,-7605,-4224,-2,-30,19,1
1064231,3005,-7583,-4206,-2,-31,20,1
1064236,2951,-7546,-4240,-1,-32,21,1
1064241,2862,-7494,-4215,-1,-31,21,1
1064246,2779,-7441,-4214,-1,-29,21,1
1064251,2664,-7384,-4157,-1,-27,22,1
1064255,2540,-7322,-4140,-1,-23,22,1
1064260,2409,-7256,-4105,-1,-18,22,1
1064265,2331,-7182,-4108,-1,-13,23,1
1064270,2286,-7108,-4073,-1,-7,23,1
1064275,2302,-7040,-4048,-1,-3,24,1
1064280,2329,-6996,-3985,-1,-1,24,1
1064285,2365,-6986,-3942,0,-2,24,1
1064290,2374,-7002,-3920,0,-4,25,1
1064295,2378,-7038,-3941,0,-7,25,1
1064300,2367,-7087,-3972,0,-10,26,1
1064305,2379,-7139,-4007,0,-12,26,1
1064310,2392,-7176,-4008,1,-15,26,1
1064315,2421,-7181,-3992,1,-18,27,1
1064320,2427,-7157,-3954,1,-21,27,1
1064325,2416,-7116,-3921,2,-24,27,1
1064330,2375,-7076,-3893,2,-25,28,1
1064335,2332,-7050,-3875,2,-25,28,1
1064340,2275,-7042,-3856,2,-23,28,1
1064345,2211,-7044,-3835,2,-21,28,1
1064350,2120,-7051,-3806,2,-19,28,1
1064355,2010,-7071,-3783,3,-17,28,1
1064360,1908,-7100,-3778,3,-15,28,1
1064365,1847,-7125,-3796,3,-12,28,1
1064370,1830,-7142,-3805,3,-10,28,1
1064375,1850,-7159,-3808,3,-10,27,1
1064380,1881,-7185,-3793,3,-11,27,1
1064385,1919,-7222,-3787,3,-15,27,1
1064390,1951,-7257,-3790,4,-20,27,1
1064395,1967,-7267,-3805,4,-26,26,1
1064400,1971,-7252,-3827,4,-31,26,1
1064405,1950,-7241,-3830,5,-36,25,1
1064410,1884,-7233,-3818,5,-40,25,1
1064415,1776,-7225,-3788,5,-41,24,1
1064420,1645,-7208,-3767,5,-39,23,1
1064425,1496,-7182,-3755,6,-37,23,1
1064430,1346,-7155,-3761,6,-34,22,1
1064435,1214,-7120,-3763,6,-30,21,1
1064439,1112,-7084,-3755,6,-25,20,1
1064444,1041,-7046,-3731,6,-20,19,1
1064449,1000,-7014,-3707,6,-16,19,1
1064454,973,-6990,-3694,6,-14,18,1
1064459,971,-6972,-3705,6,-14,17,1
1064465,992,-6962,-3727,6,-14,16,1
1064470,1033,-6955,-3748,6,-16,16,1
1064475,1072,-6941,-3759,6,-18,15,1
1064481,1095,-6915,-3753,6,-21,15,1
1064486,1078,-6875,-3734,6,-23,14,1
1064491,1027,-6823,-3719,6,-25,14,1
1064496,967,-6764,-3721,6,-24,13,1
1064500,917,-6704,-3725,6,-20,13,1
1064505,873,-6659,-3719,6,-16,13,1
1064510,831,-6643,-3710,6,-12,12,1
1064514,784,-6654,-3707,6,-10,12,1
1064520,739,-6686,-3732,6,-9,11,1
1064524,709,-6740,-3783,6,-8,11,1
1064529,702,-6812,-3840,6,-7,11,1
1064535,720,-6856,-3882,7,-5,10,1
1064539,752,-6890,-3915,7,-7,10,1
1064545,760,-6923,-3925,7,-11,10,1
1064550,760,-6940,-3943,7,-13,9,1
1064555,757,-6943,-3952,7,-12,9,1
1064559,756,-6935,-3964,7,-10,9,1
1064564,741,-6923,-3973,7,-9,8,1
1064569,717,-6919,-3973,7,-7,8,1
1064574,676,-6930,-3967,7,-4,8,1
1064579,639,-6936,-3974,7,-1,7,1
1064584,600,-6945,-3983,7,3,7,1
1064589,574,-6965,-3991,7,6,7,1
1064594,561,-7000,-4004,7,10,6,1
1064599,576,-7061,-4022,7,14,6,1
1064604,611,-7145,-4064,7,16,5,1
1064609,675,-7236,-4127,7,16,5,1
1064614,753,-7319,-4191,7,14,4,1
1064619,843,-7387,-4240,7,11,4,1
1064624,935,-7435,-4257,7,9,4,1
1064629,1020,-7459,-4251,7,5,4,1
1064634,1089,-7460,-4241,7,2,3,1
1064639,1140,-7451,-4236,7,-1,3,1
1064645,1166,-7442,-4241,7,-2,3,1
1064649,1185,-7426,-4238,7,-2,3,1
1064654,1183,-7405,-4224,6,-1,3,1
1064659,1159,-7371,-4200,6,0,3,1
1064664,1117,-7330,-4161,6,2,3,1
1064669,1068,-7284,-4109,6,6,2,1
1064674,1017,-7235,-4057,5,11,2,1
1064679,964,-7194,-4003,5,17,2,1
1064684,908,-7162,-3940,5,24,2,1
1064689,862,-7138,-3870,4,31,2,1
1064694,833,-7116,-3799,4,39,2,1
1064699,822,-7101,-3732,4,46,2,1
1064704,828,-7096,-3659,3,53,2,1
1064709,853,-7054,-3581,3,60,2,1
1064714,900,-7005,-3501,3,65,2,1
1064719,953,-6991,-3417,3,70,2,1
1064724,1008,-7010,-3351,4,75,2,1
1064729,1064,-7052,-3296,4,79,2,1
1064734,1133,-7131,-3242,4,82,3,1
1064739,1224,-7276,-3202,5,83,3,1
1064744,1340,-7455,-3185,6,80,3,1
1064749,1472,-7626,-3191,7,73,3,1
1064754,1611,-7763,-3213,8,62,4,1
1064759,1737,-7854,-3217,9,49,4,1
1064764,1836,-7904,-3179,10,38,4,1
1064769,1897,-7929,-3103,12,29,5,1
1064774,1905,-7941,-3010,13,22,5,1
1064779,1867,-7936,-2944,14,18,5,1
1064784,1803,-7913,-2929,15,16,6,1
1064789,1741,-7881,-2953,16,16,6,1
1064794,1703,-7860,-2988,17,18,7,1
1064799,1716,-7846,-3010,18,21,7,1
1064804,1778,-7833,-3008,19,21,8,1
1064809,1862,-7812,-2999,20,16,9,1
1064814,1943,-7779,-2998,21,8,9,1
1064819,1993,-7737,-3011,22,-1,10,1
1064824,2006,-7703,-3025,23,-9,10,1
1064829,1987,-7681,-3024,24,-14,11,1
1064834,1946,-7674,-3009,25,-17,11,1
1064839,1891,-7653,-3001,26,-20,11,1
1064844,1812,-7612,-2989,26,-22,12,1
1064849,1712,-7553,-2984,27,-22,12,1
1064854,1591,-7488,-2956,27,-21,12,1
1064860,1460,-7429,-2913,27,-18,12,1
1064865,1354,-7386,-2858,28,-13,12,1
1064869,1280,-7369,-2817,28,-10,12,1
1064874,1240,-7377,-2806,28,-7,12,1
1064879,1277,-8664,-2833,28,-6,11,1
1064884,933,-8709,-920,32,-16,11,1
1064889,996,-8671,-1337,32,-70,8,1
1064894,917,-8703,-3216,11,-126,1,1
1064899,1234,-8208,-5097,3,-107,1,1
1064904,1183,-8418,-6616,4,-15,6,1
1064909,1451,-8180,-7698,-2,46,5,1
1064914,1985,-7752,-8457,-5,50,4,1
1064919,2380,-7593,-8405,6,64,9,1
1064925,1682,-8067,-5589,4,87,9,1
1064929,1545,-7806,-5181,-12,70,-1,1
1064935,1717,-7516,-4781,-12,38,0,1
1064940,875,-7249,-3425,-10,49,1,1
1064946,466,-7226,-2466,-6,44,4,1
1064951,455,-7139,-2193,-4,41,4,1
1064957,571,-6897,-2589,-5,47,4,1
1064961,973,-6739,-3061,-6,56,2,1
1064966,1014,-6665,-3157,-8,78,1,1
1064970,1089,-6681,-3024,-9,82,-1,1
1064975,1078,-6686,-2663,-9,81,-1,1
1064979,773,-6664,-2172,-7,75,0,1
1064985,717,-6630,-1980,-6,65,1,1
1064990,746,-6548,-2031,-5,72,1,1
1064995,884,-6449,-2137,-6,85,0,1
1065000,979,-6436,-2104,-6,98,-1,1
1065004,1030,-6510,-2046,-5,105,-1,1
1065009,936,-6643,-1928,-4,103,-1,1
1065014,993,-7806,-1889,-3,92,0,1
1065019,1226,-7822,-1203,1,74,-1,1
1065025,1373,-7790,-1010,0,49,0,1
1065029,1445,-7949,-1180,-7,17,1,1
1065035,1438,-8001,-1358,-10,4,0,1
1065040,1494,-7934,-2262,-9,5,-1,1
1065045,1551,-7963,-3257,-2,8,0,1
1065050,1285,-8264,-3801,-3,7,0,1
1065055,1199,-8249,-4612,-6,-2,0,1
1065061,1088,-8250,-5018,-8,10,-1,1
1065066,993,-8079,-4841,-9,32,-1,1
1065070,848,-7929,-4558,-10,55,-1,1
1065075,855,-7749,-3769,-9,67,-1,1
1065080,851,-7676,-3440,-8,72,-1,1
1065084,887,-7706,-3038,-7,69,-1,1
1065089,960,-7735,-3040,-6,62,-1,1
1065094,1006,-7794,-3113,-6,56,-1,1
1065099,1153,-7803,-3331,-6,47,-2,1
1065104,1252,-7846,-3490,-7,27,-2,1
1065109,1204,-7785,-3574,-7,18,-2,1
1065114,1222,-7754,-3477,-7,29,-2,1
1065119,1146,-7666,-3426,-7,38,-2,1
1065124,1131,-7596,-3218,-7,33,-1,1
1065129,1154,-7641,-3067,-6,31,-2,1
1065134,1086,-7591,-2981,-6,31,-2,1
1065139,973,-7591,-2962,-6,29,-2,1
1065144,940,-7666,-2985,-6,27,-2,1
1065149,897,-7634,-3080,-6,34,-2,1
1065154,956,-7641,-3114,-7,38,-2,1
1065159,978,-7629,-3164,-7,42,-2,1
1065164,1022,-7572,-3193,-7,41,-2,1
1065169,1103,-7591,-3148,-7,41,-1,1
1065174,1184,-7561,-3245,-7,40,-1,1
1065179,1279,-7631,-3206,-7,36,-1,1
1065184,1376,-7569,-3297,-7,32,-1,1
1065189,1407,-7567,-3276,-7,30,0,1
1065194,1428,-7658,-3244,-7,28,0,1
1065199,1421,-7688,-3310,-7,25,0,1
1065204,1357,-7666,-3303,-6,23,0,1
1065209,1383,-7678,-3326,-6,24,0,1
1065214,1518,-7734,-3353,-6,28,0,1
1065219,1550,-7770,-3412,-6,33,0,1
1065224,1615,-7774,-3435,-6,32,0,1
1065229,1648,-7779,-3460,-5,32,0,1
1065234,1673,-7768,-3489,-5,34,1,1
1065239,1700,-7753,-3524,-5,35,1,1
1065244,1736,-7705,-3572,-5,35,1,1
1065249,1781,-7653,-3602,-5,34,1,1
1065254,1865,-7610,-3656,-5,33,2,1
1065259,1941,-7572,-3693,-5,33,2,1
1065264,1988,-7535,-3706,-5,31,1,1
1065269,2054,-7508,-3707,-5,28,1,1
1065274,2075,-7483,-3673,-5,27,1,1
1065279,2176,-7465,-3642,-4,27,1,1
1065284,2249,-7445,-3589,-4,30,2,1
1065289,2282,-7427,-3575,-4,31,2,1
1065294,2351,-7411,-3584,-4,33,2,1
1065299,2400,-7396,-3586,-4,35,2,1
1065304,2458,-7384,-3617,-4,37,2,1
1065309,2484,-7373,-3645,-4,37,2,1
1065314,2500,-7368,-3679,-4,37,2,1
1065319,2513,-7361,-3715,-4,36,2,1
1065324,2535,-7353,-3737,-4,35,2,1
1065329,2583,-7347,-3763,-4,34,2,1
1065334,2627,-7340,-3778,-4,32,2,1
1065339,2687,-7337,-3795,-4,31,3,1
1065344,2745,-7330,-3810,-4,29,3,1
1065349,2803,-7322,-3820,-3,27,3,1
1065354,2880,-7317,-3833,-3,26,4,1
1065359,2986,-7309,-3835,-3,23,4,1
1065364,3141,-7305,-3840,-3,20,4,1
1065369,3329,-7300,-3836,-3,18,5,1
1065374,3536,-7294,-3823,-3,16,5,1
1065379,3769,-7288,-3800,-3,14,6,1
1065384,3991,-7280,-3773,-3,11,6,1
1065389,4185,-7271,-3760,-2,7,7,1
1065394,4369,-7259,-3758,-2,3,7,1
1065399,4542,-7252,-3780,-2,-2,8,1
1065404,4692,-7251,-3827,-2,-7,8,1
1065409,4814,-7247,-3885,-1,-11,9,1
1065414,4893,-7245,-3931,-1,-17,9,1
1065419,4892,-7242,-3951,-1,-24,10,1
1065424,4806,-7230,-3939,-1,-31,10,1
1065429,4652,-7217,-3897,-1,-36,11,1
1065434,4461,-7195,-3842,0,-40,11,1
1065439,4266,-7167,-3787,0,-43,12,1
1065444,4076,-7150,-3742,0,-44,13,1
1065449,3910,-7146,-3717,0,-44,13,1
1065454,3737,-7173,-3697,0,-43,13,1
1065459,3536,-7188,-3701,0,-43,13,1
1065464,3314,-7186,-3672,0,-42,13,1
1065469,3072,-7197,-3632,0,-40,13,1
1065474,2826,-7215,-3594,0,-37,13,1
1065479,2593,-7237,-3537,0,-34,13,1
1065484,2391,-7273,-3497,0,-32,13,1
1065489,2200,-7299,-3474,1,-31,13,1
1065494,2021,-7316,-3465,1,-30,13,1
1065499,1858,-7312,-3460,1,-29,12,1
1065504,1703,-7304,-3456,1,-28,12,1
1065509,1572,-7283,-3462,1,-25,12,1
1065514,1455,-7276,-3451,1,-22,12,1
1065519,1365,-7293,-3441,0,-20,11,1
1065524,1292,-7305,-3419,0,-19,10,1
1065530,1220,-7324,-3390,0,-18,10,1
1065534,1142,-7346,-3398,1,-17,10,1
1065540,1052,-7353,-3427,1,-18,10,1
1065545,948,-7356,-3487,1,-19,10,1
1065549,905,-7375,-3544,1,-19,10,1
1065555,935,-7375,-3602,1,-18,9,1
1065560,996,-7371,-3648,0,-15,10,1
1065564,1111,-7362,-3662,0,-13,10,1
1065570,1285,-7347,-3683,0,-11,10,1
1065576,1535,-7395,-3714,0,-8,10,1
1065581,1825,-7400,-3820,0,-6,11,1
1065586,1944,-7393,-3921,1,-4,12,1
1065592,1867,-7394,-3940,2,-7,10,1
1065597,1660,-7417,-3950,1,-13,7,1
1065602,1430,-7488,-3958,0,-16,5,1
1065607,1223,-7551,-3951,0,-17,4,1
1065612,1276,-7590,-3962,1,-17,4,1
1065616,1291,-7581,-4014,2,-16,6,1
1065619,1506,-7622,-3823,4,-21,6,1
1065624,1630,-7693,-3611,5,-24,5,1
1065629,1813,-7728,-3484,5,-35,2,1
1065634,1781,-7640,-3459,5,-46,1,1
1065639,1847,-7604,-3432,6,-55,1,1
1065644,1751,-7537,-3532,7,-52,0,1
1065649,1821,-7496,-3503,7,-52,-1,1
1065653,1783,-7504,-3558,8,-47,-2,1
1065658,1808,-7433,-3560,8,-46,-4,1
1065663,1674,-7410,-3641,8,-41,-5,1
1065668,1685,-7378,-3699,9,-36,-7,1
1065673,1537,-7334,-3774,9,-29,-8,1
1065678,1557,-7362,-3809,9,-26,-10,1
1065683,1530,-7321,-3780,9,-21,-12,1
1065688,1612,-7279,-3812,8,-23,-13,1
1065693,1704,-7241,-3779,8,-23,-15,1
1065698,1878,-7180,-3800,7,-23,-17,1
1065703,1967,-7122,-3742,7,-24,-18,1
1065708,2085,-7072,-3691,7,-28,-20,1
1065714,2161,-7016,-3687,7,-30,-21,1
1065719,2228,-6947,-3766,7,-31,-23,1
1065723,2211,-6888,-3760,7,-29,-24,1
1065728,2205,-6838,-3787,6,-26,-26,1
1065733,2163,-6787,-3791,5,-21,-27,1
1065738,2156,-6742,-3832,4,-15,-28,1
1065743,2172,-6707,-3873,3,-9,-29,1
1065748,2236,-6692,-3935,2,-4,-30,1
1065753,2296,-6697,-3981,2,-1,-31,1
1065758,2383,-6728,-4046,1,0,-32,1
1065763,2448,-6772,-4087,0,-1,-33,1
1065768,2519,-6821,-4136,0,-3,-34,1
1065773,2588,-6868,-4179,-1,-4,-34,1
1065778,2649,-6908,-4234,-1,-4,-35,1
1065784,2698,-6936,-4281,-2,-5,-35,1
1065788,2750,-6950,-4315,-3,-5,-36,1
1065793,2780,-6958,-4321,-3,-5,-36,1
1065799,2819,-6959,-4325,-4,-6,-37,1
1065804,2859,-6955,-4309,-4,-5,-37,1
1065808,2882,-6948,-4293,-5,-5,-37,1
1065813,2889,-6947,-4284,-6,-4,-37,1
1065818,2874,-6949,-4288,-6,-3,-37,1
1065824,2829,-6948,-4298,-7,-2,-38,1
1065828,2789,-6936,-4320,-7,0,-38,1
1065834,2756,-6919,-4331,-8,4,-38,1
1065839,2742,-6907,-4318,-8,6,-38,1
1065843,2743,-6901,-4282,-9,9,-38,1
1065848,2744,-6902,-4236,-9,10,-38,1
1065853,2736,-6908,-4199,-9,11,-38,1
1065858,2727,-6912,-4184,-9,12,-38,1
1065863,2716,-6912,-4175,-9,13,-38,1
1065868,2724,-6914,-4152,-9,14,-38,1
1065873,2746,-6920,-4111,-10,15,-38,1
1065878,2769,-6924,-4055,-9,16,-38,1
1065883,2797,-6927,-3995,-9,15,-38,1
1065889,2833,-6932,-3947,-9,15,-38,1
1065894,2863,-6943,-3907,-9,14,-38,1
1065899,2896,-6966,-3881,-9,13,-38,1
1065903,2927,-6995,-3851,-8,12,-38,1
1065908,2947,-7009,-3822,-8,11,-37,1
1065913,2976,-7006,-3788,-8,11,-37,1
1065918,3015,-6990,-3748,-7,10,-37,1
1065923,3058,-6977,-3691,-7,9,-36,1
1065928,3105,-6963,-3627,-7,8,-36,1
1065933,3149,-6951,-3565,-6,8,-36,1
1065938,3186,-6937,-3509,-6,6,-36,1
1065943,3218,-6920,-3462,-5,4,-35,1
1065948,3248,-6901,-3416,-5,2,-35,1
1065953,3270,-6880,-3362,-4,1,-35,1
1065958,3290,-6856,-3296,-4,0,-34,1
1065963,3301,-6840,-3226,-4,0,-34,1
1065968,3295,-6833,-3153,-3,0,-34,1
1065973,3278,-6844,-3100,-2,0,-34,1
1065978,3260,-6882,-3073,-2,1,-34,1
1065983,3258,-6947,-3072,-1,3,-33,1
1065988,3280,-7040,-3088,0,4,-33,1
1065993,3317,-7153,-3111,1,3,-33,1
1065998,3362,-7267,-3125,2,1,-33,1
1066003,3417,-7363,-3138,3,-2,-33,1
1066008,3467,-7434,-3155,4,-5,-33,1
1066013,3492,-7477,-3188,5,-10,-33,1
1066018,3493,-7495,-3231,6,-14,-33,1
1066023,3483,-7495,-3250,7,-16,-33,1
1066028,3465,-7484,-3239,8,-16,-33,1
1066033,3454,-7464,-3207,9,-16,-33,1
1066038,3442,-7433,-3182,10,-16,-33,1
1066043,3421,-7392,-3175,11,-16,-33,1
1066048,3389,-7351,-3184,12,-16,-33,0
1066053,3359,-7312,-3195,13,-13,-33,0
1066058,3350,-7281,-3209,14,-11,-33,0
1066063,3356,-7255,-3224,14,-9,-33,0
1066068,3371,-7241,-3238,15,-9,-33,0
1066073,3401,-7229,-3250,16,-10,-33,0
1066078,3442,-7209,-3280,17,-11,-33,0
1066083,3492,-7196,-3323,19,-13,-33,0
1066088,3551,-7199,-3375,20,-17,-33,0
1066093,3600,-7211,-3406,20,-21,-33,0
1066098,3632,-7218,-3413,21,-27,-33,0
1066103,3651,-7213,-3402,22,-32,-33,0
1066108,3640,-7193,-3383,23,-36,-33,0
1066113,3594,-7156,-3362,24,-39,-33,0
1066118,3519,-7105,-3333,24,-38,-33,0
1066123,3420,-7050,-3307,24,-36,-34,0
1066128,3316,-6998,-3281,25,-31,-34,0
1066133,3220,-6942,-3261,25,-25,-34,0
1066138,3143,-6893,-3244,25,-18,-34,0
1066143,3107,-6852,-3239,25,-12,-35,0
1066148,3102,-6816,-3242,26,-9,-35,0
1066153,3125,-6794,-3241,26,-8,-35,0
1066158,3181,-6782,-3229,26,-7,-35,0
1066163,3257,-6778,-3219,27,-9,-36,0
1066168,3329,-6798,-3217,27,-12,-36,0
1066173,3397,-6842,-3235,28,-15,-36,0
1066178,3467,-6894,-3266,28,-20,-36,0
1066183,3549,-6931,-3292,29,-27,-36,0
1066188,3660,-6946,-3290,29,-34,-36,0
1066193,3771,-6941,-3249,29,-40,-36,0
1066198,3855,-6918,-3162,30,-46,-36,0
1066203,3885,-6886,-3069,30,-51,-36,0
1066208,3852,-6859,-2992,30,-54,-36,0
1066213,3778,-6840,-2949,30,-55,-36,0
1066218,3685,-6833,-2914,30,-52,-36,0
1066223,3580,-6828,-2884,29,-47,-36,0
1066228,3466,-6820,-2832,29,-39,-36,0
1066233,3340,-6816,-2762,29,-30,-36,0
1066238,3221,-6811,-2690,28,-20,-36,0
1066243,3151,-6812,-2644,28,-11,-36,0
1066248,3145,-6827,-2629,28,-3,-36,0
1066253,3213,-6853,-2633,28,2,-36,0
1066258,3328,-6881,-2629,28,4,-36,0
1066263,3464,-6910,-2616,28,3,-36,0
1066268,3594,-6942,-2593,29,-1,-36,0
1066273,3705,-6978,-2571,29,-7,-35,0
1066278,3791,-7016,-2563,29,-13,-35,0
1066283,3850,-7039,-2564,29,-18,-35,0
1066288,3882,-7049,-2563,29,-21,-34,0
1066293,3893,-7055,-2545,29,-23,-34,0
1066298,3889,-7052,-2510,29,-24,-34,0
1066303,3869,-7036,-2462,28,-24,-33,0
1066308,3834,-7000,-2415,28,-22,-33,0
1066313,3783,-6942,-2368,28,-19,-33,0
1066318,3714,-6880,-2324,27,-13,-33,0
1066323,3649,-6823,-2282,26,-7,-33,0
1066328,3597,-6768,-2253,26,-2,-32,0
1066333,3572,-6713,-2245,26,2,-32,0
1066338,3568,-6663,-2253,25,5,-32,0
1066343,3570,-6635,-2267,25,8,-32,0
1066348,3562,-6629,-2285,25,9,-31,0
1066353,3545,-6635,-2309,24,9,-31,0
1066358,3529,-6652,-2355,24,8,-31,0
1066363,3525,-6666,-2418,24,6,-31,0
1066368,3536,-6662,-2473,24,5,-31,0
1066373,3544,-6645,-2500,24,4,-30,0
1066378,3536,-6616,-2485,24,5,-30,0
1066383,3513,-6580,-2453,24,6,-30,0
1066388,3494,-6537,-2429,23,8,-30,0
1066393,3491,-6487,-2421,23,11,-29,0
1066398,3506,-6432,-2428,23,15,-29,0
1066403,3553,-6373,-2431,22,19,-28,0
1066408,3623,-6320,-2420,22,23,-28,0
1066413,3708,-6271,-2393,21,25,-27,0
1066418,3793,-6224,-2370,21,23,-26,0
1066423,3875,-6181,-2361,21,22,-26,0
1066428,3963,-6144,-2360,21,21,-25,0
1066433,4054,-6113,-2359,20,20,-24,0
1066438,4137,-6082,-2342,20,20,-23,0
1066443,4217,-6062,-2319,20,18,-22,0
1066448,4289,-6047,-2300,20,16,-21,0
1066453,4358,-6032,-2294,19,16,-20,0
1066458,4424,-6016,-2293,19,16,-19,0
1066463,4477,-6011,-2284,19,16,-18,0
1066468,4528,-6028,-2253,18,17,-17,0
1066473,4610,-6068,-2227,18,18,-16,0
1066478,4727,-6113,-2220,18,18,-15,0
1066483,4876,-6154,-2241,17,15,-13,0
1066488,5040,-6182,-2255,17,12,-12,0
1066493,5197,-6193,-2246,17,9,-11,0
1066498,5331,-6190,-2205,16,5,-10,0
1066503,5436,-6181,-2157,16,0,-8,0
1066508,5490,-6167,-2126,16,-6,-7,0
1066513,5495,-6154,-2126,16,-10,-6,0
1066518,5465,-6139,-2131,15,-10,-5,0
1066523,5414,-6130,-2129,15,-9,-4,0
1066528,5353,-6128,-2103,15,-8,-3,0
1066533,5305,-6125,-2068,14,-7,-3,0
1066538,5280,-6117,-2036,14,-5,-2,0
1066543,5288,-6107,-2012,14,-3,-1,0
1066548,5328,-6093,-1989,14,-1,-1,0
1066553,5381,-6084,-1962,13,-1,0,0
1066558,5441,-6084,-1929,13,-2,0,0
1066563,5495,-6085,-1894,13,-6,1,0
1066568,5537,-6088,-1865,13,-10,1,0
1066573,5573,-6083,-1840,13,-12,2,0
1066578,5589,-6063,-1805,12,-11,2,0
1066583,5582,-6035,-1739,12,-10,2,0
1066588,5552,-6007,-1650,12,-10,3,0
1066593,5519,-5981,-1556,12,-7,3,0
1066598,5493,-5948,-1491,11,-4,3,0
1066603,5464,-5919,-1454,11,-2,3,0
1066608,5427,-5905,-1441,11,0,2,0
1066613,5379,-5900,-1439,11,1,2,0
1066618,5328,-5904,-1444,11,2,1,0
1066623,5292,-5915,-1438,12,3,1,0
1066628,5287,-5936,-1436,12,4,1,0
1066633,5318,-5973,-1431,12,5,0,0
1066638,5368,-6013,-1425,12,4,0,0
1066643,5419,-6050,-1426,13,0,-1,0
1066648,5455,-6078,-1427,13,-4,-1,0
1066653,5465,-6096,-1428,13,-9,-2,0
1066658,5465,-6096,-1431,14,-13,-2,0
1066662,5451,-6085,-1436,14,-14,-2,0
1066668,5421,-6064,-1434,14,-13,-3,0
1066673,5366,-6027,-1425,14,-11,-3,0
1066678,5298,-5986,-1417,14,-9,-3,0
1066683,5234,-5954,-1424,14,-6,-4,0
1066687,5201,-5926,-1439,14,-3,-4,0
1066693,5205,-5894,-1456,14,1,-4,0
1066698,5235,-5863,-1456,14,5,-4,0
1066703,5275,-5841,-1453,13,8,-4,0
1066708,5301,-5838,-1454,13,9,-4,0
1066713,5300,-5841,-1463,13,8,-4,0
1066718,5300,-5844,-1477,13,9,-4,0
1066723,5307,-5844,-1479,12,12,-4,0
1066728,5320,-5859,-1472,11,15,-4,0
1066733,5331,-5885,-1465,11,16,-3,0
1066738,5338,-5920,-1475,11,16,-3,0
1066743,5361,-5954,-1496,10,16,-3,0
1066748,5397,-5990,-1518,10,16,-3,0
1066753,5438,-6042,-1522,9,17,-3,0
1066758,5485,-6109,-1516,9,18,-2,0
1066763,5527,-6189,-1511,8,18,-2,0
1066768,5557,-6266,-1527,8,17,-2,0
1066773,5578,-6338,-1560,8,16,-2,0
1066777,5598,-6408,-1587,7,15,-1,0
1066783,5611,-6482,-1598,7,15,-1,0
1066788,5609,-6558,-1598,7,14,-1,0
1066792,5588,-6627,-1604,7,13,0,0
1066798,5557,-6688,-1624,7,12,0,0
1066803,5536,-6744,-1655,6,11,0,0
1066808,5531,-6796,-1675,6,11,0,0
1066812,5537,-6839,-1677,6,9,1,0
1066818,5548,-6874,-1652,6,8,1,0
1066823,5550,-6890,-1614,6,6,1,0
1066828,5530,-6893,-1576,6,4,1,0
1066833,5481,-6889,-1556,6,3,2,0
1066838,5402,-6888,-1553,6,2,2,0
1066843,5307,-6895,-1563,6,3,2,0
1066848,5218,-6907,-1576,5,5,2,1
1066852,5137,-6915,-1583,5,6,2,1
1066857,5065,-6924,-1579,5,9,1,1
1066862,5000,-6940,-1560,5,11,1,1
1066868,4943,-6959,-1535,5,12,1,1
1066873,4888,-6973,-1511,5,13,1,1
1066877,4834,-6982,-1486,5,14,0,1
1066882,4786,-6989,-1458,5,15,0,1
1066887,4747,-6991,-1423,5,17,0,1
1066892,4715,-6986,-1378,5,18,-1,1
1066897,4669,-6984,-1331,5,19,-1,1
1066902,4605,-6980,-1290,5,19,-1,1
1066907,4533,-6974,-1254,5,21,-2,1
1066912,4463,-6963,-1216,5,23,-2,1
1066917,4396,-6947,-1166,4,25,-3,1
1066922,4329,-6926,-1094,4,28,-3,1
1066927,4265,-6903,-1011,4,32,-4,1
1066932,4209,-6895,-932,4,35,-4,1
1066937,4171,-6893,-881,4,38,-4,1
1066943,4157,-6897,-858,4,41,-4,1
1066948,4163,-6913,-843,4,44,-5,1
1066952,4186,-6940,-818,3,45,-5,1
1066958,4219,-6980,-775,3,45,-5,1
1066963,4266,-7028,-734,4,44,-5,1
1066968,4324,-7074,-706,4,40,-5,1
1066972,4378,-7108,-691,4,37,-4,1
1066977,4414,-7124,-681,4,34,-4,1
1066982,4423,-7132,-660,4,32,-4,1
1066987,4402,-7139,-622,4,31,-4,1
1066992,4370,-7139,-569,4,32,-3,1
1066998,4346,-7123,-529,4,33,-2,1
1067002,4348,-7100,-517,4,35,-2,1
1067007,4374,-7084,-525,4,36,-1,1
1067012,4408,-7073,-529,4,36,0,1
1067017,4452,-7058,-522,4,36,0,1
1067022,4514,-7034,-495,3,34,2,1
1067027,4595,-7009,-459,3,31,3,1
1067032,4675,-6981,-430,3,28,4,1
1067037,4738,-6951,-408,3,25,5,1
1067042,4770,-6922,-393,3,21,6,1
1067047,4766,-6901,-376,2,19,7,1
1067052,4742,-6884,-367,2,17,9,1
1067057,4712,-6864,-364,2,15,10,1
1067062,4685,-6845,-361,2,15,11,1
1067067,4651,-6821,-357,1,15,12,1
1067072,4610,-6797,-348,1,15,13,1
1067077,4558,-6781,-331,0,16,15,1
1067082,4507,-6772,-322,0,17,16,1
1067087,4471,-6771,-313,0,16,17,1
1067092,4450,-6768,-310,0,14,18,1
1067097,4433,-6763,-312,-1,13,20,1
1067102,4407,-6780,-320,-1,11,21,1
1067107,4378,-6818,-332,-1,10,22,1
1067112,4359,-6865,-361,-1,8,23,1
1067117,4358,-6906,-399,-1,6,24,1
1067122,4362,-6941,-437,-1,3,26,1
1067127,4348,-6965,-449,-1,0,27,1
1067132,4298,-6980,-427,-1,-2,28,1
1067138,4218,-6990,-391,-1,-3,29,1
1067143,4122,-6995,-367,-1,-2,30,1
1067148,4024,-7000,-362,-1,-1,30,1
1067152,3938,-7246,-373,-2,2,31,1
1067157,2147,-8542,-251,-1,1,34,1
1067162,293,-9243,-293,0,-92,31,1
1067167,2591,-8840,-784,2,-84,-1,1
1067172,4560,-9155,-988,3,97,10,1
1067177,6248,-9043,-728,-2,118,1,1
1067182,7696,-8370,-841,-5,84,-14,1
1067187,7594,-7905,-1269,-1,90,-14,1
1067192,7559,-7698,-1351,2,42,-11,1
1067197,6925,-7656,-1538,2,25,-3,1
1067202,5635,-7595,-873,-1,7,0,1
1067207,4962,-7466,-942,-6,-17,-6,1
1067212,4310,-7300,-765,-6,-8,-5,1
1067218,3541,-7211,-329,-5,6,-1,1
1067223,2987,-7115,-248,-5,8,2,1
1067228,2773,-7019,43,-4,19,4,1
1067232,2505,-6948,2,-4,32,3,1
1067237,2658,-6945,383,-5,30,-1,1
1067242,3217,-6925,366,-6,30,-1,1
1067247,4312,-6921,436,-4,37,3,1
1067252,5019,-7056,250,-3,50,3,1
1067257,5927,-6999,147,-3,37,-1,1
1067263,6319,-7001,-85,-2,28,-4,1
1067268,6243,-6953,-94,-1,12,-5,1
1067274,6025,-7155,-128,-1,2,-4,1
1067279,5469,-7208,-161,-1,-2,-2,1
1067284,5268,-7107,-317,-1,-9,0,1
1067288,4861,-7167,-394,-1,-5,2,1
1067294,4781,-7148,-453,-1,-4,2,1
1067298,4688,-7283,-471,-2,7,2,1
1067302,4798,-7297,-518,-2,11,2,1
1067307,4963,-7263,-441,-1,15,1,1
1067312,4946,-7244,-465,-1,15,0,1
1067317,5059,-7179,-397,-1,11,0,1
1067322,4929,-7129,-404,-1,11,1,1
1067328,4942,-7090,-334,-1,7,1,1
1067332,4906,-7152,-280,0,9,2,1
1067337,4973,-7155,-289,0,9,2,1
1067342,5000,-7143,-302,1,9,2,1
1067347,5002,-7111,-419,1,6,2,1
1067352,5007,-7081,-444,1,6,2,1
1067357,4953,-7040,-516,1,5,2,1
1067362,5012,-7002,-530,1,5,3,1
1067367,5011,-6955,-535,1,7,2,1
1067372,5046,-6920,-493,1,8,2,1
1067377,5048,-6886,-410,1,9,2,1
1067382,5021,-6844,-333,1,7,2,1
1067387,5017,-6835,-251,2,4,2,1
1067392,5027,-6814,-252,2,3,3,1
1067397,5056,-6781,-245,2,4,2,1
1067402,5083,-6769,-289,2,4,2,1
1067407,5140,-6751,-326,2,5,2,1
1067412,5149,-6747,-324,2,4,2,1
1067417,5206,-6758,-341,2,2,3,1
1067422,5277,-6760,-342,2,0,3,1
1067427,5337,-6749,-341,2,-1,3,1
1067432,5416,-6750,-344,2,-2,3,1
1067437,5458,-6742,-331,2,-3,3,1
1067442,5461,-6729,-308,3,-6,3,1
1067447,5451,-6727,-297,3,-9,3,1
1067452,5431,-6715,-294,3,-9,3,1
1067457,5364,-6705,-281,3,-8,3,1
1067462,5286,-6712,-277,3,-6,3,1
1067467,5182,-6732,-272,3,-3,3,1
1067472,5052,-6748,-277,3,-2,3,1
1067477,4953,-6749,-312,4,-2,4,1
1067482,4883,-6748,-365,4,1,4,1
1067487,4836,-6753,-401,4,4,4,1
1067492,4834,-6754,-437,3,7,4,1
1067497,4844,-6752,-431,3,10,3,1
1067502,4870,-6750,-401,3,9,3,1
1067507,4922,-6750,-365,4,7,4,1
1067512,4988,-6748,-313,4,5,3,1
1067517,5048,-6744,-285,4,3,3,1
1067522,5059,-6745,-246,4,1,3,1
1067527,5030,-6746,-229,5,-1,3,1
1067532,4972,-6743,-238,5,-2,3,1
1067537,4912,-6746,-275,5,-2,3,1
1067542,4866,-6749,-317,5,1,3,1
1067547,4835,-6755,-359,5,4,3,1
1067552,4804,-6757,-369,5,7,3,1
1067557,4755,-6756,-339,5,10,3,1
1067562,4735,-6761,-308,5,13,3,1
1067567,4751,-6761,-279,5,16,4,1
