millis,ax,ay,az,gx,gy,gz,label
4504299,403,-8266,903,1,1,1,0
4504304,395,-8264,913,1,0,1,0
4504309,385,-8264,928,1,0,1,0
4504314,374,-8265,933,1,-1,1,0
4504319,361,-8264,930,1,-1,1,0
4504324,351,-8264,930,1,-2,1,0
4504329,344,-8265,928,1,-2,1,0
4504334,346,-8267,914,1,-2,1,0
4504339,349,-8265,905,1,-2,1,0
4504344,353,-8265,901,1,-2,1,0
4504349,357,-8264,901,1,-2,1,0
4504354,358,-8261,896,1,-2,1,0
4504359,355,-8259,898,0,-1,1,0
4504364,348,-8256,903,0,-1,1,0
4504369,339,-8256,897,0,-1,1,0
4504374,326,-8254,888,0,-1,1,0
4504379,317,-8251,882,0,-1,1,0
4504384,310,-8251,867,0,-1,1,0
4504389,306,-8253,844,0,-1,1,0
4504394,309,-8259,816,0,-1,1,0
4504399,316,-8260,795,0,-1,1,0
4504404,326,-8260,769,0,-2,1,0
4504409,336,-8260,751,0,-2,1,0
4504414,346,-8260,734,0,-2,1,0
4504419,357,-8260,727,0,-2,1,0
4504424,368,-8260,716,0,-2,1,0
4504429,376,-8261,710,0,-2,1,0
4504434,382,-8258,700,0,-2,1,0
4504439,387,-8257,685,0,-1,1,0
4504444,384,-8256,667,0,-1,1,0
4504449,375,-8256,649,0,-1,1,0
4504454,366,-8259,633,0,0,1,0
4504459,351,-8262,617,0,0,1,0
4504464,335,-8264,606,0,1,1,0
4504469,323,-8263,600,0,1,1,0
4504474,313,-8261,602,0,2,1,0
4504479,302,-8261,607,0,2,1,0
4504484,296,-8261,616,0,2,1,0
4504489,290,-8262,628,0,2,1,0
4504494,285,-8262,642,0,2,1,0
4504499,279,-8263,648,0,2,1,0
4504504,268,-8263,656,0,2,1,0
4504509,256,-8261,658,0,2,1,0
4504514,247,-8262,660,0,2,1,0
4504519,238,-8263,660,0,3,1,0
4504524,229,-8264,660,0,3,0,0
4504529,218,-8266,663,0,3,0,0
4504534,207,-8267,666,0,3,1,0
4504539,197,-8267,681,0,3,0,0
4504544,191,-8267,695,0,3,0,0
4504549,190,-8265,705,0,3,0,0
4504554,186,-8263,714,0,3,0,0
4504559,187,-8262,718,0,2,0,0
4504564,189,-8261,719,0,2,0,0
4504569,194,-8263,717,0,1,0,0
4504574,196,-8260,717,0,1,0,0
4504579,202,-8259,713,0,0,0,0
4504584,208,-8261,711,0,0,0,0
4504589,210,-8260,707,0,0,0,0
4504594,216,-8259,707,0,0,0,0
4504599,224,-8258,709,0,0,0,0
4504604,229,-8260,710,0,0,0,0
4504609,239,-8259,713,0,0,0,0
4504614,247,-8261,721,0,0,0,0
4504619,259,-8263,728,0,0,0,0
4504624,267,-8266,737,0,0,0,0
4504629,272,-8267,741,0,0,0,0
4504634,277,-8269,747,0,0,0,0
4504639,281,-8267,752,0,-1,0,0
4504644,286,-8267,756,0,-1,0,0
4504649,292,-8262,755,0,0,0,0
4504654,293,-8260,755,0,0,0,0
4504659,292,-8259,757,0,0,0,0
4504664,290,-8258,756,0,0,0,0
4504669,288,-8256,758,0,0,0,0
4504674,286,-8256,760,0,0,0,0
4504679,286,-8257,761,0,0,0,0
4504684,282,-8261,767,0,1,0,0
4504689,283,-8258,770,0,1,0,0
4504694,287,-8260,770,0,1,0,0
4504699,290,-8262,773,0,1,0,0
4504704,298,-8260,777,0,1,0,0
4504709,308,-8258,777,0,1,0,0
4504714,314,-8256,778,0,1,0,0
4504719,316,-8257,778,0,1,0,0
4504724,315,-8256,779,0,1,0,0
4504729,312,-8258,778,0,1,0,0
4504734,306,-8262,776,0,1,0,0
4504739,298,-8262,775,0,1,0,0
4504744,290,-8259,779,0,1,0,0
4504749,284,-8255,780,0,1,0,0
4504754,279,-8254,783,0,1,0,0
4504759,276,-8256,789,0,1,0,0
4504764,273,-8259,792,0,1,0,0
4504769,270,-8258,795,0,1,0,0
4504774,265,-8258,794,0,0,0,0
4504779,263,-8257,795,0,0,0,0
4504784,259,-8255,796,0,0,0,0
4504789,256,-8256,793,0,0,0,0
4504794,254,-8257,795,0,0,0,0
4504799,249,-8261,799,0,0,0,0
4504804,245,-8260,798,0,0,0,0
4504809,237,-8260,797,0,0,0,0
4504814,229,-8261,794,0,0,0,0
4504819,216,-8258,787,0,0,-1,0
4504824,200,-8259,780,0,0,-1,0
4504829,185,-8263,776,0,0,-1,0
4504834,173,-8263,768,-1,0,-1,0
4504839,167,-8262,760,-1,0,-1,0
4504844,163,-8264,761,-1,-1,-1,0
4504849,165,-8263,762,-1,-1,-1,0
4504854,172,-8264,761,-1,-1,-1,0
4504859,181,-8267,762,-1,-1,-1,0
4504864,193,-8267,753,-1,-1,-1,0
4504869,196,-8266,753,-1,-1,-1,0
4504874,193,-8266,772,-1,-2,-1,0
4504879,189,-8266,768,-1,-2,-1,0
4504884,189,-8266,768,-1,-1,-1,0
4504889,193,-8265,786,-1,-1,-1,0
4504894,197,-8266,798,-1,-1,-1,0
4504899,207,-8262,794,-1,-1,-1,0
4504904,214,-8261,792,-1,-1,-1,0
4504909,217,-8263,795,-1,-1,-1,0
4504914,222,-8260,797,-1,-2,-1,0
4504919,223,-8258,798,-1,-2,-1,0
4504924,218,-8262,799,-1,-2,-1,0
4504929,213,-8265,796,-1,-2,-1,0
4504934,204,-8266,798,-1,-2,-1,0
4504939,197,-8268,799,-1,-2,-1,0
4504944,189,-8267,798,-1,-1,-1,0
4504949,184,-8266,798,-1,-1,-1,0
4504954,181,-8264,794,-1,-1,-1,0
4504959,180,-8266,791,-1,-2,-1,0
4504964,180,-8267,791,-1,-2,-1,0
4504969,179,-8265,789,-1,-2,-1,0
4504974,178,-8262,788,-1,-3,-1,0
4504979,174,-8260,782,-1,-3,-1,0
4504984,175,-8260,781,-1,-3,-2,0
4504989,176,-8258,775,-1,-3,-1,0
4504994,176,-8261,773,-1,-3,-2,0
4504999,174,-8263,768,-1,-3,-2,0
4505004,177,-8262,759,-1,-3,-2,0
4505009,181,-8263,745,-1,-3,-2,0
4505014,182,-8264,731,-1,-3,-2,0
4505019,184,-8267,723,-1,-3,-2,0
4505024,186,-8268,718,-1,-3,-2,0
4505029,193,-8263,715,-1,-4,-2,0
4505034,200,-8259,712,-1,-3,-2,0
4505039,208,-8260,708,-1,-3,-2,0
4505044,219,-8260,712,-1,-3,-2,0
4505049,230,-8258,706,-1,-4,-2,0
4505054,243,-8259,696,-1,-4,-2,0
4505059,255,-8261,683,-1,-4,-2,0
4505064,266,-8261,677,-1,-4,-2,0
4505069,275,-8260,672,-1,-4,-2,0
4505074,284,-8258,666,-1,-4,-2,0
4505079,288,-8258,662,-1,-3,-2,0
4505084,296,-8259,661,-1,-3,-2,0
4505089,305,-8260,664,-1,-3,-2,0
4505094,307,-8259,664,-1,-3,-2,0
4505099,312,-8258,669,-1,-3,-2,0
4505104,315,-8258,672,-1,-4,-2,0
4505109,318,-8257,674,-1,-4,-2,0
4505114,318,-8258,674,-1,-4,-2,0
4505119,324,-8256,672,-1,-4,-2,0
4505124,329,-8253,667,-1,-4,-2,0
4505129,335,-8252,659,-1,-5,-2,0
4505134,341,-8251,649,-1,-5,-2,0
4505139,349,-8254,642,-1,-5,-2,0
4505144,357,-8255,638,-1,-5,-2,0
4505149,364,-8256,637,-1,-5,-2,0
4505154,373,-8255,634,-1,-4,-2,0
4505159,384,-8255,629,-1,-4,-2,0
4505164,391,-8256,630,-1,-4,-2,0
4505169,400,-8260,632,-1,-4,-2,0
4505174,407,-8262,636,-1,-4,-2,0
4505179,418,-8262,644,-1,-4,-2,0
4505184,424,-8264,652,-1,-3,-2,0
4505189,429,-8264,653,-1,-3,-2,0
4505194,436,-8264,656,-1,-3,-2,0
4505199,440,-8265,654,-1,-3,-2,0
4505204,444,-8268,651,-1,-3,-2,0
4505209,447,-8269,659,-1,-3,-2,0
4505214,455,-8270,666,-1,-3,-2,0
4505219,462,-8269,676,-1,-3,-1,0
4505224,470,-8267,682,-1,-2,-2,0
4505229,478,-8266,683,-1,-2,-2,0
4505234,487,-8264,686,-1,-2,-1,0
4505239,496,-8263,688,-1,-2,-1,0
4505244,500,-8263,694,-1,-2,-1,0
4505249,505,-8265,704,-1,-2,-1,0
4505254,508,-8265,709,-1,-2,-1,0
4505259,508,-8267,709,-1,-2,-1,0
4505264,506,-8268,706,-1,-2,-1,0
4505269,501,-8266,705,-1,-2,-1,0
4505274,496,-8264,705,-1,-2,-1,0
4505279,492,-8263,700,-1,-2,-1,0
4505284,488,-8267,698,-1,-2,-1,0
4505289,489,-8266,699,-1,-1,-1,0
4505294,492,-8267,697,-1,-1,-1,0
4505299,492,-8267,702,-1,-1,-1,0
4505304,487,-8268,707,-1,-1,-1,0
4505309,482,-8270,710,-1,-1,-1,0
4505314,477,-8268,715,-1,-1,-1,0
4505319,469,-8269,718,-1,-1,-1,0
4505324,461,-8270,721,-1,0,-1,0
4505329,454,-8269,725,-1,0,-1,0
4505334,448,-8268,727,-1,0,-1,0
4505339,447,-8266,728,-1,0,-1,0
4505344,445,-8268,729,-1,0,-1,0
4505349,444,-8267,736,-1,0,-1,0
4505354,444,-8265,737,-1,0,-1,0
4505359,445,-8263,736,-1,0,-1,0
4505364,446,-8262,738,-1,-1,-1,0
4505369,441,-8264,740,-1,-1,-1,0
4505374,441,-8261,738,-1,-1,-1,0
4505379,435,-8261,741,-1,-1,-1,0
4505384,429,-8262,743,-1,-1,-1,0
4505389,422,-8263,742,-1,-1,-1,0
4505394,420,-8263,744,-1,-1,-1,0
4505399,421,-8264,742,-1,-1,-1,0
4505404,423,-8263,741,-1,-1,-1,0
4505409,422,-8265,734,-1,-1,-1,0
4505414,422,-8262,728,-1,-1,-1,0
4505419,423,-8262,723,-1,-1,-1,0
4505424,426,-8259,723,-1,-1,-1,0
4505429,431,-8259,715,-1,-1,-1,0
4505434,434,-8258,714,-1,-1,-1,0
4505439,439,-8257,713,-1,-1,-1,0
4505444,441,-8259,713,-1,0,-1,0
4505449,442,-8261,711,-1,0,-1,0
4505454,443,-8263,711,-1,0,-1,0
4505459,442,-8265,711,-1,0,-1,0
4505464,442,-8264,709,-1,0,-1,0
4505469,442,-8263,706,-1,0,-1,0
4505474,439,-8263,703,-1,0,-1,0
4505479,435,-8263,699,-1,0,-1,0
4505484,434,-8265,694,-1,0,-1,0
4505489,432,-8267,686,-1,0,-1,0
4505494,427,-8269,679,-1,-1,-1,0
4505499,425,-8267,675,-1,-1,-1,0
4505504,421,-8265,669,-1,0,-1,0
4505509,416,-8266,672,-1,0,-1,0
4505514,414,-8265,674,-1,-1,-1,0
4505519,408,-8264,675,-1,-1,-1,0
4505524,402,-8260,674,-1,-1,-1,0
4505529,395,-8261,675,-1,-1,-1,0
4505534,391,-8260,676,-1,-1,-1,0
4505539,387,-8261,677,-1,-1,-1,0
4505544,385,-8259,677,-1,-2,-1,0
4505549,383,-8261,672,-1,-2,-1,0
4505554,383,-8261,662,-1,-2,-1,0
4505559,384,-8259,655,-1,-2,-1,0
4505564,390,-8261,643,-1,-2,-1,0
4505569,392,-8261,631,-1,-2,-1,0
4505574,391,-8263,629,-1,-2,-1,0
4505579,388,-8264,628,-1,-2,-1,0
4505584,381,-8262,629,-1,-2,-1,0
4505589,380,-8263,635,-1,-2,-1,0
4505594,377,-8262,644,-1,-2,-1,0
4505599,371,-8261,651,-1,-2,-1,0
4505604,368,-8261,656,-1,-2,-1,0
4505609,366,-8262,661,-1,-2,-1,0
4505614,366,-8261,663,-1,-2,-1,0
4505619,366,-8260,664,-1,-2,-1,0
4505624,364,-8257,663,-1,-3,-1,0
4505629,363,-8257,664,-1,-3,-1,0
4505634,362,-8259,662,-1,-3,-1,0
4505639,358,-8257,663,-1,-3,-1,0
4505644,353,-8257,659,-1,-3,-1,0
4505649,348,-8258,661,-1,-3,-1,0
4505654,344,-8257,665,-1,-2,-1,0
4505659,336,-8254,671,-1,-2,-1,0
4505664,329,-8257,676,-1,-2,-1,0
4505669,324,-8258,674,-1,-2,-1,0
4505674,319,-8258,674,-1,-2,-1,0
4505679,318,-8257,670,-1,-2,-1,0
4505684,314,-8260,669,-1,-2,-1,0
4505689,311,-8259,669,-1,-2,-1,0
4505694,308,-8262,671,-1,-2,-1,0
4505699,308,-8263,681,-1,-2,-1,0
4505704,309,-8264,685,-1,-2,-1,0
4505709,309,-8264,693,-1,-2,-1,0
4505714,312,-8266,705,-1,-2,-1,0
4505719,320,-8267,717,-1,-3,-1,0
4505724,325,-8267,728,-1,-3,-1,0
4505729,330,-8267,738,-1,-3,-1,0
4505734,341,-8268,749,-1,-3,-2,0
4505739,351,-8267,760,-1,-3,-2,0
4505744,361,-8268,778,-1,-4,-2,0
4505749,374,-8268,801,-1,-4,-1,0
4505754,387,-8268,820,-1,-5,-2,0
4505759,397,-8269,835,-1,-5,-2,0
4505764,409,-8268,850,-1,-5,-1,0
4505769,424,-8268,857,-1,-6,-1,0
4505774,436,-8268,864,-1,-6,-1,0
4505779,451,-8267,871,-1,-6,-1,0
4505784,464,-8268,873,-1,-5,-1,0
4505789,474,-8270,873,-2,-5,-1,0
4505794,484,-8268,869,-2,-5,-1,0
4505799,491,-8268,866,-2,-4,-1,0
4505804,495,-8269,857,-2,-4,-1,0
4505809,499,-8267,845,-2,-4,-1,0
4505814,503,-8268,836,-2,-3,-1,0
4505819,504,-8269,829,-2,-3,-1,0
4505824,507,-8268,825,-2,-2,-1,0
4505829,509,-8268,812,-2,-2,-1,0
4505834,506,-8266,802,-2,-2,-1,0
4505839,500,-8264,798,-2,-2,-1,0
4505844,495,-8267,786,-2,-1,-1,0
4505849,487,-8267,775,-2,-1,-1,0
4505854,481,-8267,771,-2,-1,-1,0
4505859,475,-8267,768,-2,-1,-1,0
4505864,472,-8267,767,-2,-1,-1,0
4505869,473,-8265,769,-2,-1,-1,0
4505874,474,-8264,773,-2,-1,-1,0
4505879,478,-8267,774,-2,-1,-1,0
4505884,480,-8269,773,-2,-1,-1,0
4505889,482,-8268,774,-2,-1,-1,0
4505894,486,-8269,774,-2,-1,-1,0
4505899,485,-8267,777,-2,-1,-1,0
4505904,483,-8267,774,-3,-1,-1,0
4505909,483,-8268,769,-3,-1,-1,0
4505914,487,-8270,762,-3,-1,-1,0
4505919,489,-8268,751,-3,-1,-1,0
4505924,491,-8267,736,-3,-1,-1,0
4505929,493,-8267,727,-3,0,-1,0
4505934,491,-8265,719,-3,0,-1,0
4505939,487,-8264,716,-3,0,-1,0
4505944,478,-8265,713,-3,0,-1,0
4505949,467,-8264,707,-3,0,-1,0
4505954,456,-8266,702,-3,0,-1,0
4505959,447,-8265,693,-3,-1,-1,0
4505964,444,-8268,688,-3,0,-1,0
4505969,444,-8268,682,-3,0,-1,0
4505974,454,-8271,676,-3,0,-1,0
4505979,468,-8272,665,-3,-1,-1,0
4505984,481,-8273,649,-3,-1,-1,0
4505989,498,-8271,638,-3,-1,-1,0
4505994,515,-8270,628,-3,-1,-1,0
4505999,527,-8268,618,-3,-1,-1,0
4506004,535,-8265,602,-3,0,-1,0
4506009,540,-8267,587,-3,0,-1,0
4506014,542,-8269,570,-3,0,-1,0
4506019,544,-8271,553,-3,1,-1,0
4506024,543,-8270,536,-3,1,-1,0
4506029,546,-8270,524,-3,1,-1,0
4506034,551,-8270,517,-3,1,-1,0
4506039,554,-8272,510,-3,0,-1,0
4506044,556,-8271,504,-3,0,-1,0
4506049,561,-8268,501,-3,0,-1,0
4506054,567,-8267,497,-3,0,-1,0
4506059,576,-8270,488,-3,0,-1,0
4506064,585,-8272,477,-3,0,-1,0
4506069,591,-8273,462,-2,0,-1,0
4506074,597,-8271,453,-2,0,-1,0
4506079,603,-8269,439,-2,1,-1,0
4506084,609,-8268,430,-2,1,-1,0
4506089,615,-8269,420,-2,1,0,0
4506094,619,-8268,409,-2,2,0,0
4506099,622,-8267,401,-2,2,0,0
4506104,620,-8268,394,-2,2,0,0
4506109,617,-8264,393,-2,2,0,0
4506114,613,-8264,390,-2,2,0,0
4506119,604,-8269,384,-2,2,0,0
4506124,589,-8271,381,-2,2,0,0
4506129,573,-8270,374,-2,2,0,0
4506134,559,-8272,364,-2,2,0,0
4506139,547,-8276,355,-2,2,0,0
4506144,540,-8277,348,-2,2,0,0
4506149,537,-8276,347,-2,2,0,0
4506154,536,-8276,347,-2,2,0,0
4506159,538,-8274,347,-2,2,0,0
4506164,544,-8271,350,-2,2,0,0
4506169,546,-8271,356,-1,1,0,0
4506174,544,-8268,360,-1,1,0,0
4506179,538,-8267,361,-1,1,0,0
4506184,533,-8267,357,-1,1,0,0
4506189,528,-8267,358,-1,1,0,0
4506194,522,-8267,350,-1,1,0,0
4506199,512,-8267,345,-1,1,0,0
4506204,502,-8269,342,-1,1,0,0
4506209,491,-8271,338,-1,0,0,0
4506214,477,-8270,335,-1,0,0,0
4506219,459,-8267,333,-1,0,0,0
4506224,442,-8269,332,-1,0,0,0
4506229,423,-8270,331,-1,0,0,0
4506234,412,-8268,337,-1,0,0,0
4506239,404,-8266,344,-1,-1,0,0
4506244,401,-8269,349,-1,-1,0,0
4506249,402,-8270,347,-1,-1,0,0
4506254,403,-8269,347,-1,-1,0,0
4506259,404,-8270,344,-1,-1,0,0
4506264,404,-8272,338,0,-1,0,0
4506269,398,-8274,334,0,-1,0,0
4506274,388,-8276,324,0,-2,0,0
4506279,378,-8278,321,0,-2,-1,0
4506284,368,-8278,324,0,-2,-1,0
4506289,357,-8278,324,0,-2,-1,0
4506294,343,-8279,325,0,-2,-1,0
4506299,328,-8279,327,0,-2,-1,0
4506304,314,-8281,331,0,-2,-1,0
4506309,295,-8283,338,0,-2,-1,0
4506314,279,-8283,341,0,-2,-1,0
4506319,268,-8284,351,0,-2,-1,0
4506324,260,-8284,360,0,-2,-1,0
4506329,253,-8281,372,0,-3,-1,0
4506334,247,-8279,383,0,-3,-1,0
4506339,242,-8279,397,0,-3,-1,0
4506344,237,-8280,412,0,-3,-1,0
4506349,236,-8283,427,0,-3,-1,0
4506354,237,-8283,443,0,-3,-1,0
4506359,242,-8283,460,0,-3,-2,0
4506364,249,-8284,481,0,-4,-2,0
4506369,259,-8283,503,0,-4,-2,0
4506374,272,-8284,523,0,-5,-2,0
4506379,281,-8282,542,0,-6,-2,0
4506384,292,-8278,554,0,-6,-2,0
4506389,305,-8277,564,0,-6,-2,0
4506394,317,-8277,576,0,-7,-2,0
4506399,329,-8277,583,0,-7,-2,0
4506404,338,-8278,590,0,-7,-2,0
4506409,356,-8278,590,0,-7,-2,0
4506414,371,-8276,593,0,-7,-2,0
4506419,388,-8276,597,0,-7,-2,0
4506424,411,-8275,600,0,-7,-2,0
4506429,433,-8277,603,0,-7,-2,0
4506434,452,-8278,609,0,-6,-2,0
4506439,471,-8278,609,0,-6,-2,0
4506444,488,-8278,605,0,-6,-2,0
4506449,503,-8280,602,0,-6,-2,0
4506454,515,-8279,596,0,-6,-2,0
4506459,528,-8279,595,0,-5,-2,0
4506464,538,-8280,595,0,-5,-2,0
4506469,547,-8279,596,-1,-4,-2,0
4506474,558,-8278,597,0,-4,-2,0
4506479,572,-8277,595,-1,-4,-2,0
4506484,585,-8275,595,-1,-4,-2,0
4506489,596,-8272,586,-1,-4,-2,0
4506494,605,-8271,580,-1,-4,-2,0
4506499,608,-8272,573,0,-4,-2,0
4506504,613,-8273,559,0,-4,-2,0
4506509,617,-8269,546,0,-3,-2,0
4506514,618,-8268,526,-1,-3,-2,0
4506519,619,-8270,509,0,-2,-2,0
4506524,619,-8271,499,0,-1,-2,0
4506529,622,-8268,489,0,-1,-1,0
4506534,627,-8269,487,0,-1,-1,0
4506539,630,-8270,479,0,0,-1,0
4506544,635,-8272,472,0,1,-1,0
4506549,643,-8273,468,0,1,-1,0
4506554,652,-8272,460,0,2,-1,0
4506559,663,-8270,456,0,3,-1,0
4506564,671,-8270,441,0,4,-1,0
4506569,677,-8271,429,0,4,-1,0
4506574,672,-8273,416,0,5,-1,0
4506579,663,-8271,400,0,6,-1,0
4506584,652,-8269,390,0,8,-1,0
4506589,641,-8269,383,0,11,-1,0
4506594,632,-8269,367,0,14,-1,0
4506599,626,-8271,349,0,18,-1,0
4506604,627,-8272,327,0,23,-1,0
4506609,624,-8272,308,0,27,-1,0
4506614,619,-8274,294,0,31,-1,0
4506619,609,-8277,275,0,35,-1,0
4506624,592,-8276,269,0,39,-1,0
4506629,585,-8278,285,0,41,-1,0
4506634,572,-8281,331,0,38,-1,0
4506639,563,-8280,375,0,33,-1,0
4506644,538,-8277,421,0,30,-1,0
4506649,500,-8275,454,0,28,-1,0
4506654,466,-8276,468,1,29,-1,0
4506659,442,-8276,460,1,30,-1,0
4506664,424,-8277,439,1,29,-1,0
4506669,407,-8280,419,1,28,-1,0
4506674,392,-8282,408,0,24,-1,0
4506679,385,-8286,407,0,21,-1,0
4506684,389,-8285,430,0,18,-1,0
4506689,415,-8284,479,0,16,-1,0
4506694,463,-8280,545,0,15,-1,0
4506699,528,-8276,613,0,13,-1,0
4506704,606,-8272,681,0,10,-1,0
4506709,685,-8268,734,0,7,-1,0
4506714,767,-8267,787,0,1,-1,0
4506719,816,-8269,824,0,-10,-1,0
4506724,825,-8269,843,0,-18,-1,0
4506729,810,-8271,850,0,-23,-1,0
4506734,781,-8273,837,0,-23,0,0
4506739,746,-8274,802,0,-20,0,0
4506744,729,-8275,745,0,-15,0,0
4506749,723,-8276,679,0,-9,0,0
4506754,726,-8276,609,0,-6,0,0
4506759,725,-8272,552,0,-4,0,0
4506764,718,-8269,491,0,-4,0,0
4506769,688,-8270,503,0,-5,0,0
4506774,652,-8269,496,0,-6,0,0
4506779,658,-8276,542,0,-7,0,0
4506784,661,-8279,660,0,-16,0,0
4506789,690,-8278,756,0,-31,0,0
4506794,718,-8272,841,0,-47,0,0
4506799,741,-8268,919,0,-61,0,0
4506804,780,-8268,983,0,-73,1,0
4506809,822,-8263,1014,0,-84,1,0
4506814,868,-8262,1002,0,-93,0,0
4506819,898,-8263,979,0,-102,0,0
4506824,908,-8265,928,0,-110,0,0
4506829,909,-8266,865,0,-116,0,0
4506834,891,-8269,819,0,-120,1,0
4506839,870,-8270,788,0,-122,1,0
4506844,840,-8269,766,0,-121,1,0
4506849,783,-8268,754,0,-118,1,0
4506854,646,-8272,722,0,-110,1,0
4506859,366,-8279,819,-1,-85,0,0
4506864,214,-8273,804,-1,-55,0,0
4506869,46,-8266,735,-1,-22,0,0
4506874,-50,-8268,692,0,6,0,0
4506879,-48,-8272,568,0,26,0,0
4506884,6,-8278,446,0,37,0,0
4506889,114,-8282,343,-1,42,0,0
4506894,226,-8281,239,-1,42,0,0
4506899,369,-8278,186,-2,38,0,0
4506904,494,-8272,174,-2,34,0,0
4506909,597,-8267,195,-1,28,0,0
4506914,700,-8264,242,-1,22,0,0
4506919,750,-8263,299,-1,17,0,0
4506924,788,-8270,388,-1,9,0,0
4506929,769,-8275,561,-1,-3,0,0
4506934,771,-8271,691,-1,-20,0,0
4506939,748,-8267,805,-1,-33,0,0
4506944,724,-8261,931,-1,-43,1,0
4506949,720,-8257,992,0,-51,1,0
4506954,744,-8255,994,0,-57,1,0
4506959,781,-8257,944,0,-62,1,0
4506964,787,-8263,841,0,-66,1,0
4506969,794,-8267,716,0,-70,0,0
4506974,763,-8267,578,0,-73,0,0
4506979,705,-8268,476,0,-76,0,0
4506984,656,-8273,396,0,-80,0,0
4506989,593,-8272,339,0,-82,0,0
4506994,529,-8273,315,0,-85,0,0
4506999,481,-8272,303,0,-87,0,0
4507004,439,-8270,302,1,-88,0,0
4507009,414,-8270,300,1,-90,0,0
4507014,398,-8271,307,1,-91,0,0
4507019,375,-8272,328,1,-92,0,0
4507024,346,-8276,352,1,-91,0,0
4507029,317,-8279,379,1,-87,0,0
4507034,273,-8281,414,1,-80,0,0
4507039,238,-8282,447,1,-70,0,0
4507044,223,-8284,470,0,-59,-1,0
4507049,214,-8283,471,0,-46,-1,0
4507054,193,-8284,504,0,-31,-1,0
4507059,201,-8285,491,0,-17,-1,0
4507064,212,-8285,475,0,-4,-1,0
4507069,239,-8289,465,0,6,-1,0
4507074,277,-8288,449,0,13,-1,0
4507079,300,-8284,441,0,17,-1,0
4507084,330,-8282,438,0,20,-1,0
4507089,345,-8280,443,-1,23,-1,0
4507094,352,-8281,464,-1,27,-1,0
4507099,359,-8278,484,-1,31,-1,0
4507104,347,-8280,507,-1,36,-1,0
4507109,329,-8281,532,-1,41,-2,0
4507113,319,-8281,547,-1,47,-1,0
4507119,318,-8279,552,-1,51,-1,0
4507124,334,-8279,554,-1,55,-1,0
4507128,360,-8281,552,-1,59,-1,0
4507134,390,-8281,551,-1,62,-1,0
4507138,418,-8279,541,-1,65,-1,0
4507144,442,-8277,537,-1,70,-2,0
4507148,461,-8274,543,-1,74,-2,0
4507153,489,-8260,550,-1,78,-1,0
4507158,437,-8256,560,-1,84,-2,0
4507164,416,-8255,607,-1,86,-2,0
4507169,436,-8259,638,-2,87,-2,0
4507173,421,-8262,649,-2,88,-1,0
4507178,469,-8263,695,-1,87,-1,0
4507184,551,-8267,745,-1,86,-1,0
4507189,672,-8269,779,-2,84,-1,0
4507193,805,-8265,813,-2,81,-1,0
4507199,933,-8265,841,-2,76,-1,0
4507204,1050,-8264,860,-2,70,-1,0
4507208,1125,-8264,874,-2,63,-1,0
4507214,1191,-8263,879,-2,57,0,0
4507218,1233,-8260,875,-2,52,0,0
4507224,1236,-8260,866,-2,48,0,0
4507229,1235,-8258,859,-2,45,0,0
4507234,1200,-8259,847,-2,44,0,0
4507239,1143,-8260,839,-2,45,1,0
4507244,1084,-8262,827,-2,47,1,0
4507249,1004,-8263,811,-2,51,1,0
4507254,915,-8264,797,-2,54,1,0
4507259,828,-8263,782,-2,58,1,0
4507264,742,-8266,770,-2,62,1,0
4507269,664,-8270,763,-3,65,1,0
4507274,605,-8269,753,-3,68,1,0
4507279,555,-8269,742,-3,69,1,0
4507284,510,-8271,738,-3,70,1,0
4507289,484,-8272,730,-3,69,0,0
4507294,450,-8276,732,-3,69,0,0
4507299,424,-8276,720,-3,67,0,0
4507304,404,-8275,706,-3,65,0,0
4507309,395,-8273,683,-3,63,0,0
4507314,404,-8274,651,-3,60,0,0
4507318,425,-8275,628,-3,56,0,0
4507324,458,-8277,614,-3,50,0,0
4507328,500,-8275,608,-3,43,0,0
4507334,542,-8276,605,-3,36,0,0
4507339,577,-8273,613,-3,28,0,0
4507344,605,-8271,629,-2,20,0,0
4507349,623,-8271,637,-2,12,0,0
4507354,636,-8275,644,-2,5,0,0
4507359,633,-8272,642,-2,-1,0,0
4507363,620,-8271,621,-2,-7,0,0
4507368,603,-8267,593,-2,-10,0,0
4507373,592,-8270,550,-2,-14,0,0
4507378,586,-8269,499,-2,-18,0,0
4507383,591,-8269,461,-2,-21,0,0
4507388,621,-8268,431,-2,-25,1,0
4507393,635,-8267,383,-2,-26,1,0
4507398,621,-8268,326,-1,-22,1,0
4507403,564,-8271,269,-1,-15,0,0
4507408,484,-8272,201,-1,-7,-1,0
4507413,419,-8269,153,-1,-1,-1,0
4507419,358,-8268,130,-1,5,-1,0
4507423,309,-8270,132,0,10,-2,0
4507428,272,-8270,142,0,13,-2,0
4507433,242,-8267,169,0,13,-2,0
4507438,214,-8267,192,0,11,-2,0
4507443,187,-8270,232,0,7,-2,0
4507448,150,-8276,267,0,4,-2,0
4507453,100,-8283,259,0,1,-2,0
4507458,75,-8288,232,0,-2,-1,0
4507464,68,-8288,198,0,-1,0,0
4507469,99,-8283,184,-1,1,0,0
4507474,158,-8277,186,-1,6,0,0
4507479,222,-8276,215,-1,13,-1,0
4507484,272,-8275,263,-1,20,-1,0
4507488,318,-8275,312,-1,26,-1,0
4507494,345,-8277,361,-1,30,-1,0
4507499,367,-8278,423,-1,30,-1,0
4507504,390,-8281,492,-1,28,-1,0
4507508,403,-8279,548,-1,25,-1,0
4507514,410,-8278,613,-1,20,-1,0
4507518,406,-8280,672,-1,17,-1,0
4507524,384,-8281,714,-1,14,-1,0
4507529,360,-8280,741,-1,14,-1,0
4507534,357,-8279,741,-1,17,-1,0
4507539,374,-8277,724,-1,20,-1,0
4507544,407,-8273,693,-1,23,-1,0
4507549,473,-8271,643,-1,25,-1,0
4507554,517,-8269,575,-1,26,-1,0
4507558,533,-8267,501,-1,24,-1,0
4507564,502,-8271,434,-1,22,-2,0
4507569,408,-8272,388,-1,20,-2,0
4507573,287,-8274,366,-1,18,-2,0
4507579,145,-8273,352,-1,19,-2,0
4507584,15,-8274,363,-1,20,-2,0
4507588,-88,-8273,384,-1,21,-2,0
4507594,-136,-8274,404,-1,20,-2,0
4507599,-152,-8277,421,-1,16,-2,0
4507604,-144,-8279,441,-1,9,-3,0
4507609,-111,-8281,457,-1,2,-3,0
4507614,-66,-8280,466,-1,-3,-3,0
4507619,-33,-8277,453,-1,-5,-3,0
4507624,27,-8277,445,-1,-5,-3,0
4507629,103,-8276,425,0,-6,-3,0
4507634,175,-8279,400,0,-9,-3,0
4507638,233,-8280,387,0,-12,-3,0
4507643,280,-8279,382,-1,-12,-3,0
4507648,337,-8274,395,-1,-7,-3,0
4507653,426,-8274,442,-1,1,-2,0
4507659,556,-8269,497,-1,10,-2,0
4507663,705,-8266,548,-1,18,-2,0
4507668,848,-8263,584,-1,27,-2,0
4507674,985,-8261,601,-1,35,-2,0
4507678,1111,-8261,595,-1,42,-2,0
4507683,1209,-8260,582,-1,45,-2,0
4507688,1262,-8262,563,-1,45,-2,0
4507693,1256,-8266,538,-1,42,-2,0
4507698,1203,-8268,519,-2,38,-1,0
4507704,1109,-8268,519,-2,33,-1,0
4507708,980,-8268,523,-2,29,-1,0
4507713,835,-8269,521,-1,24,-1,0
4507718,681,-8269,508,-1,19,-1,0
4507723,528,-8268,472,-1,14,-1,0
4507728,395,-8272,423,-1,8,-1,0
4507733,278,-8274,352,0,3,-1,0
4507738,178,-8277,268,0,-3,-1,0
4507743,95,-8280,187,0,-7,-2,0
4507748,28,-8282,107,0,-9,-2,0
4507753,-25,-8287,40,0,-7,-2,0
4507758,-55,-8289,-16,0,-4,-2,0
4507764,-68,-8290,-55,0,0,-3,0
4507769,-60,-8290,-69,0,6,-3,0
4507773,-28,-8292,-60,0,11,-3,0
4507778,24,-8293,-30,0,16,-3,0
4507783,99,-8292,20,0,22,-3,0
4507788,198,-8287,86,0,29,-3,0
4507793,314,-8280,158,0,35,-2,0
4507799,446,-8275,232,0,41,-2,0
4507803,583,-8273,304,0,46,-2,0
4507808,713,-8271,363,0,47,-2,0
4507813,828,-8270,419,0,47,-2,0
4507819,919,-8269,470,0,44,-2,0
4507823,977,-8268,520,0,40,-2,0
4507828,1001,-8267,568,0,35,-2,0
4507833,1006,-8265,607,0,30,-2,0
4507838,985,-8260,640,0,25,-1,0
4507843,955,-8260,658,0,21,-1,0
4507849,927,-8261,657,0,15,-1,0
4507853,897,-8263,652,0,10,-1,0
4507858,860,-8262,640,0,4,-1,0
4507863,821,-8263,621,0,-1,-1,0
4507868,774,-8265,610,0,-5,-1,0
4507873,718,-8267,605,0,-8,-1,0
4507878,659,-8267,603,0,-9,-1,0
4507883,599,-8273,609,0,-9,-1,0
4507888,547,-8278,619,0,-9,-1,0
4507893,507,-8279,636,0,-8,-1,0
4507898,483,-8278,651,0,-7,-1,0
4507904,478,-8277,676,0,-6,-1,0
4507908,498,-8279,701,0,-5,-1,0
4507913,535,-8281,725,0,-6,-1,0
4507918,584,-8279,747,0,-7,-1,0
4507923,635,-8279,765,-1,-10,-1,0
4507928,685,-8276,792,-1,-13,-1,0
4507933,723,-8274,817,-1,-16,-1,0
4507938,748,-8271,837,-1,-20,-1,0
4507943,763,-8269,852,-1,-23,-1,0
4507948,767,-8267,855,-1,-26,-1,0
4507953,759,-8266,850,-1,-30,-1,0
4507958,738,-8265,831,-1,-33,-1,0
4507963,710,-8270,809,-1,-36,-1,0
4507968,673,-8270,782,-1,-39,-1,0
4507973,633,-8268,749,-1,-41,-1,0
4507978,538,-8273,687,-1,-45,-1,0
4507983,417,-8280,659,-1,-50,-1,0
4507988,311,-8283,621,-1,-48,-1,0
4507993,258,-8278,559,-1,-38,0,0
4507998,258,-8274,498,-1,-25,1,0
4508003,313,-8276,437,-1,-12,0,0
4508008,433,-8279,371,-1,1,0,0
4508013,586,-8278,300,-1,12,-1,0
4508018,739,-8279,245,-1,16,-1,0
4508023,863,-8282,218,-1,16,0,0
4508028,951,-8282,226,-2,16,0,0
4508033,1010,-8277,280,-2,16,0,0
4508038,1044,-8270,356,-2,19,0,0
4508043,1065,-8264,435,-1,23,1,0
4508048,1084,-8262,508,-1,26,1,0
4508053,1100,-8259,551,-1,26,1,0
4508058,1114,-8262,554,-1,23,1,0
4508063,1116,-8266,531,-1,17,1,0
4508068,1099,-8269,494,-1,11,2,0
4508073,1055,-8271,449,-1,6,2,0
4508078,995,-8270,403,-1,3,2,0
4508083,920,-8270,354,-1,3,2,0
4508088,833,-8267,320,-1,4,2,0
4508093,744,-8270,297,-1,5,2,0
4508098,661,-8274,284,-1,6,2,0
4508103,585,-8278,286,-1,6,2,0
4508108,523,-8279,292,-1,6,2,0
4508113,472,-8278,301,-1,6,2,0
4508118,438,-8280,319,0,5,1,0
4508123,419,-8278,336,0,4,1,0
4508128,407,-8278,355,0,3,1,0
4508133,399,-8276,372,0,0,1,0
4508138,389,-8274,383,0,-2,1,0
4508143,374,-8273,387,0,-4,1,0
4508148,357,-8274,394,0,-6,1,0
4508153,339,-8275,397,0,-6,1,0
4508158,328,-8276,391,0,-6,1,0
4508163,318,-8276,388,0,-5,1,0
4508168,311,-8277,384,0,-5,1,0
4508173,305,-8275,374,0,-4,1,0
4508178,299,-8275,368,0,-4,1,0
4508183,292,-8274,365,0,-3,1,0
4508188,284,-8273,369,0,-3,0,0
4508193,275,-8274,372,0,-3,0,0
4508198,268,-8278,370,0,-3,0,0
4508203,258,-8282,375,0,-3,0,0
4508208,247,-8283,376,0,-3,0,0
4508213,237,-8282,376,0,-3,0,0
4508218,227,-8283,374,0,-3,0,0
4508223,223,-8283,372,0,-3,0,0
4508228,224,-8282,369,0,-4,0,0
4508233,226,-8281,367,0,-4,0,0
4508238,232,-8281,363,0,-5,0,0
4508243,237,-8277,361,0,-5,0,0
4508248,245,-8277,365,0,-4,0,0
4508253,255,-8277,372,0,-4,0,0
4508258,266,-8280,382,1,-4,0,0
4508263,280,-8282,395,1,-4,-1,0
4508268,293,-8284,409,0,-4,-1,0
4508273,304,-8285,420,1,-5,-1,0
4508278,314,-8283,430,1,-5,-1,0
4508283,320,-8282,440,1,-5,-1,0
4508288,325,-8278,461,0,-6,-1,0
4508293,332,-8280,477,0,-6,-1,0
4508298,334,-8277,491,0,-6,-1,0
4508303,336,-8278,502,1,-6,-1,0
4508308,333,-8278,508,1,-6,-1,0
4508313,332,-8279,511,0,-5,-1,0
4508318,329,-8277,513,0,-5,-1,0
4508323,330,-8278,521,0,-4,-1,0
4508328,331,-8278,527,0,-3,-1,0
4508333,334,-8279,539,0,-3,-1,0
4508338,340,-8278,548,0,-3,-1,0
4508343,349,-8279,554,0,-4,-1,0
4508348,354,-8281,559,0,-4,-1,0
4508353,362,-8279,561,0,-5,-1,0
4508358,363,-8280,563,0,-5,-1,0
4508363,364,-8279,563,0,-6,-1,0
4508368,366,-8278,565,0,-6,-1,0
4508373,366,-8278,571,0,-7,-1,0
4508378,369,-8279,574,0,-7,-1,0
4508383,371,-8279,580,0,-7,-1,0
4508388,381,-8279,591,0,-6,-1,0
4508393,397,-8279,593,0,-6,-1,0
4508398,414,-8279,596,0,-6,-1,0
4508403,430,-8279,590,0,-5,-1,0
4508408,445,-8279,584,0,-5,-1,0
4508413,456,-8278,581,0,-4,-1,0
4508418,467,-8277,578,0,-4,-1,0
4508423,481,-8276,579,0,-3,-1,0
4508428,500,-8278,586,0,-3,-1,0
4508433,522,-8278,587,0,-3,-1,0
4508438,543,-8278,594,0,-3,-1,0
4508443,565,-8275,602,0,-4,-1,0
4508448,585,-8274,612,0,-6,-1,0
4508453,602,-8275,619,0,-8,-1,0
4508458,612,-8275,632,0,-12,-1,0
4508463,600,-8277,646,0,-15,-1,0
4508468,575,-8276,648,0,-18,-1,0
4508473,543,-8274,646,0,-20,-1,0
4508478,506,-8276,639,0,-21,-1,0
4508483,474,-8277,628,0,-20,-1,0
4508488,459,-8278,608,0,-19,-1,0
4508493,464,-8277,588,0,-18,-1,0
4508498,475,-8277,564,0,-18,-1,0
4508503,491,-8278,542,0,-19,-1,0
4508508,498,-8278,522,0,-19,-1,0
4508513,502,-8278,508,0,-19,-1,0
4508518,504,-8278,506,0,-20,-1,0
4508523,495,-8274,516,0,-21,-1,0
4508528,477,-8273,526,0,-22,-1,0
4508533,464,-8275,538,0,-21,-1,0
4508538,456,-8271,539,0,-20,-1,0
4508543,454,-8271,525,0,-18,-1,0
4508548,458,-8272,504,0,-18,-1,0
4508553,462,-8275,464,0,-17,-1,0
4508558,452,-8275,404,0,-17,-1,0
4508563,377,-8280,312,0,-15,-2,0
4508568,308,-8284,250,1,-16,-3,0
4508573,289,-8286,184,1,-15,-2,0
4508578,217,-8287,127,0,-10,-2,0
4508583,186,-8287,114,0,-4,-1,0
4508588,213,-8286,106,0,7,-1,0
4508593,285,-8279,90,0,21,-1,0
4508598,378,-8274,87,1,30,-2,7
4508603,476,-8274,92,1,35,-2,7
4508608,561,-8274,65,1,38,-2,7
4508613,598,-8270,41,1,39,-2,7
4508618,606,-8270,31,1,38,-2,7
4508623,585,-8273,35,1,40,-2,7
4508628,535,-8270,50,1,45,-2,7
4508633,489,-8270,80,1,50,-2,7
4508638,439,-8271,101,1,57,-2,7
4508643,388,-8273,111,2,63,-2,7
4508648,361,-8277,113,2,66,-2,7
4508653,342,-8279,99,2,68,-2,7
4508658,329,-8281,92,2,68,-2,7
4508663,326,-8281,87,2,67,-2,7
4508668,327,-8279,86,2,65,-2,7
4508673,329,-8278,92,2,62,-2,7
4508678,337,-8276,106,3,59,-2,7
4508683,331,-8271,120,3,55,-2,7
4508688,309,-8265,129,3,50,-2,7
4508693,282,-8263,137,3,45,-3,7
4508698,246,-8262,145,3,40,-3,7
4508703,215,-8264,150,4,35,-3,7
4508708,194,-8264,164,4,30,-3,7
4508713,179,-8265,176,4,26,-3,7
4508718,180,-8267,193,4,22,-3,7
4508723,188,-8266,206,4,20,-3,7
4508728,200,-8263,210,4,19,-3,7
4508733,216,-8263,208,5,18,-3,7
4508738,236,-8266,204,5,18,-3,7
4508743,259,-8268,206,5,17,-3,7
4508748,283,-8269,223,5,17,-3,7
4508753,301,-8266,243,5,17,-3,7
4508758,322,-8263,281,5,17,-3,7
4508763,340,-8258,332,5,18,-3,7
4508768,355,-8255,392,5,18,-4,7
4508773,371,-8251,463,5,17,-4,7
4508778,383,-8250,529,5,15,-4,7
4508783,394,-8250,597,5,12,-3,7
4508788,408,-8251,674,5,8,-4,7
4508793,413,-8251,744,5,5,-4,7
4508798,419,-8255,819,5,2,-4,7
4508803,435,-8256,907,4,1,-4,7
4508808,450,-8255,1007,4,-1,-3,7
4508813,475,-8254,1111,4,-2,-3,7
4508818,503,-8251,1225,3,-3,-4,7
4508823,528,-8250,1341,3,-4,-3,7
4508828,546,-8251,1461,3,-4,-3,7
4508833,563,-8256,1578,2,-5,-3,7
4508838,570,-8260,1701,1,-5,-3,7
4508843,578,-8261,1829,0,-4,-3,7
4508848,581,-8264,1954,0,-2,-2,7
4508853,579,-8263,2074,-1,0,-2,7
4508858,577,-8262,2188,-1,1,-2,7
4508863,584,-8257,2296,-2,3,-2,7
4508868,590,-8251,2403,-2,4,-2,7
4508873,603,-8252,2508,-3,4,-3,7
4508878,616,-8252,2607,-3,3,-3,7
4508883,627,-8252,2694,-3,0,-3,7
4508888,630,-8253,2781,-4,-3,-4,7
4508893,603,-8251,2863,-5,-5,-4,7
4508898,550,-8250,2947,-5,-7,-4,7
4508903,481,-8253,3031,-6,-8,-4,7
4508908,405,-8254,3122,-7,-7,-4,7
4508913,343,-8254,3216,-8,-6,-4,7
4508918,304,-8253,3309,-9,-4,-4,7
4508923,294,-8249,3396,-10,-2,-4,7
4508928,315,-8240,3477,-11,-2,-4,7
4508933,359,-8235,3550,-12,-2,-4,7
4508938,405,-8233,3607,-13,-3,-4,7
4508943,448,-8228,3652,-14,-3,-4,7
4508948,497,-8223,3695,-15,-1,-4,7
4508953,549,-8218,3721,-16,2,-4,7
4508958,615,-8204,3743,-17,7,-4,7
4508963,689,-8190,3763,-17,11,-4,7
4508968,749,-8178,3765,-18,13,-4,7
4508973,791,-8170,3758,-19,14,-4,7
4508978,812,-8159,3728,-20,14,-4,7
4508983,813,-8149,3685,-21,16,-4,7
4508988,814,-8136,3632,-22,19,-4,7
4508993,825,-8123,3553,-23,23,-4,7
4508998,852,-8109,3453,-23,27,-4,7
4509003,895,-8098,3344,-24,30,-4,7
4509008,946,-8088,3213,-25,32,-4,7
4509013,992,-8077,3073,-25,32,-4,7
4509018,1031,-8063,2925,-26,32,-4,7
4509023,1059,-8052,2773,-26,32,-4,7
4509028,1075,-8040,2616,-27,32,-4,7
4509033,1082,-8030,2457,-27,31,-4,7
4509038,1082,-8022,2298,-27,30,-4,7
4509043,1082,-8017,2127,-28,29,-4,7
4509048,1093,-8015,1941,-28,29,-4,7
4509053,1111,-8018,1730,-28,26,-3,7
4509058,1108,-8026,1487,-28,24,-3,7
4509063,1105,-8039,1217,-28,23,-3,7
4509068,1104,-8042,922,-28,24,-3,7
4509073,1105,-8034,615,-27,25,-4,7
4509078,1099,-8028,334,-27,25,-4,7
4509083,1076,-8021,93,-26,27,-4,7
4509088,1057,-8015,-114,-26,28,-5,7
4509093,1034,-8010,-300,-25,27,-5,7
4509098,1002,-8007,-463,-24,27,-6,7
4509103,1007,-8003,-574,-23,27,-6,7
4509108,963,-7991,-791,-22,25,-6,7
4509113,904,-8004,-967,-22,14,-6,7
4509118,821,-8032,-1087,-23,2,-5,7
4509123,705,-8047,-1215,-24,-3,-4,7
4509128,594,-8037,-1355,-24,0,-4,7
4509133,524,-8007,-1508,-23,2,-4,7
4509138,454,-8025,-2044,-20,-1,-6,7
4509143,516,-8045,-2460,-16,-17,-6,7
4509148,519,-8064,-2803,-14,-33,-5,7
4509153,420,-8081,-3236,-14,-41,-4,7
4509158,417,-8091,-3611,-15,-44,-4,7
4509163,383,-8101,-3949,-15,-36,-4,7
4509168,389,-8111,-4143,-14,-24,-4,7
4509173,419,-8119,-4205,-13,-9,-5,7
4509178,463,-8129,-4195,-12,1,-6,7
4509183,515,-8141,-4105,-11,3,-6,7
4509188,497,-8155,-3986,-10,-1,-6,7
4509193,507,-8167,-3836,-9,-6,-6,7
4509198,498,-8178,-3693,-8,-6,-5,7
4509203,526,-8184,-3565,-7,-5,-5,7
4509208,644,-8189,-3449,-6,-4,-5,7
4509213,775,-8193,-3363,-5,-1,-4,7
4509218,953,-8196,-3258,-4,0,-4,7
4509223,1156,-8200,-3146,-4,1,-4,7
4509228,1350,-8203,-3016,-4,1,-4,7
4509233,1548,-8205,-2829,-4,2,-3,7
4509238,1743,-8206,-2595,-4,1,-3,7
4509243,1917,-8208,-2333,-4,0,-2,7
4509248,2088,-8208,-2058,-3,-1,-2,7
4509253,2266,-8207,-1785,-3,-2,-1,7
4509258,2444,-8206,-1514,-3,-3,0,7
4509263,2640,-8205,-1268,-3,-3,1,7
4509268,2859,-8206,-1045,-3,-2,3,7
4509273,3050,-8206,-837,-3,-2,4,7
4509278,3209,-8206,-648,-3,-3,6,7
4509283,3335,-8207,-484,-4,-3,8,7
4509288,3421,-8206,-341,-4,-1,10,7
4509293,3528,-8203,-212,-4,2,11,7
4509298,3628,-8199,-64,-5,9,11,7
4509303,3723,-8194,92,-5,15,9,7
4509308,3897,-8188,225,-6,17,8,7
4509313,4248,-8182,198,-6,18,10,7
4509318,4512,-8170,153,-5,18,14,7
4509323,4617,-8162,119,-4,16,16,7
4509328,4749,-8147,56,-5,15,16,7
4509333,4849,-8133,-86,-5,16,16,7
4509338,4852,-8120,-184,-5,17,17,7
4509343,4737,-8110,-232,-6,17,17,7
4509348,4553,-8099,-289,-6,18,18,7
4509353,4339,-8089,-336,-6,21,19,7
4509358,4089,-8077,-372,-6,24,21,7
4509363,3856,-8063,-414,-6,27,22,7
4509368,3667,-8049,-475,-6,29,23,7
4509373,3496,-8033,-519,-5,30,24,7
4509378,3378,-8020,-618,-5,30,24,7
4509383,3292,-8012,-774,-5,27,25,7
4509388,3206,-8007,-969,-4,22,25,7
4509393,3107,-7996,-1181,-4,17,26,7
4509398,2974,-7986,-1387,-4,14,26,7
4509403,2810,-7975,-1585,-4,14,26,7
4509408,2631,-7966,-1753,-4,16,26,7
4509413,2433,-7960,-1883,-3,20,27,7
4509418,2235,-7957,-1982,-3,24,27,7
4509423,2064,-7950,-2062,-3,26,27,7
4509428,1909,-7942,-2122,-2,26,28,7
4509433,1764,-7937,-2181,-1,25,28,7
4509438,1630,-7931,-2244,-1,24,29,7
4509443,1505,-7923,-2311,0,23,29,7
4509448,1392,-7917,-2398,0,23,29,7
4509453,1290,-7911,-2489,1,23,29,7
4509458,1194,-7906,-2575,2,23,29,7
4509463,1094,-7902,-2660,2,24,29,7
4509468,994,-7897,-2740,3,24,29,7
4509473,894,-7891,-2819,3,24,29,7
4509478,785,-7887,-2910,4,24,29,7
4509483,680,-7879,-2983,4,23,28,7
4509488,568,-7870,-3043,5,21,28,7
4509493,434,-7867,-3103,5,20,28,7
4509498,294,-7861,-3136,6,19,27,7
4509503,168,-7857,-3160,6,18,27,7
4509508,17,-7853,-3181,7,18,27,7
4509513,-215,-7857,-3190,8,15,26,7
4509518,-439,-7858,-3142,8,10,26,7
4509523,-704,-7859,-3104,9,8,26,7
4509528,-981,-7859,-3018,9,8,27,7
4509533,-1214,-7861,-2903,10,12,27,7
4509538,-1375,-7863,-2802,11,16,27,7
4509543,-1444,-7862,-2709,12,18,27,7
4509548,-1469,-7867,-2660,13,17,26,7
4509553,-1452,-7873,-2662,14,12,26,7
4509558,-1447,-7876,-2690,14,6,25,7
4509563,-1466,-7882,-2723,15,1,25,7
4509568,-1502,-7883,-2733,15,0,24,7
4509573,-1564,-7886,-2703,15,3,24,7
4509578,-1622,-7886,-2617,15,7,23,7
4509583,-1675,-7885,-2512,16,12,23,7
4509588,-1714,-7884,-2392,16,14,23,7
4509593,-1749,-7881,-2286,17,14,22,7
4509598,-1807,-7882,-2208,18,12,22,7
4509603,-1880,-7882,-2162,18,9,21,7
4509608,-1971,-7883,-2149,19,7,21,7
4509613,-2082,-7886,-2145,19,5,20,7
4509618,-2193,-7886,-2146,20,4,20,7
4509623,-2297,-7887,-2138,20,3,19,7
4509628,-2391,-7887,-2121,20,2,18,7
4509633,-2473,-7888,-2092,21,1,18,7
4509638,-2537,-7889,-2054,21,1,17,7
4509643,-2593,-7889,-2010,22,0,17,7
4509648,-2636,-7887,-1979,22,-2,16,7
4509653,-2677,-7885,-1964,23,-5,15,7
4509658,-2719,-7887,-1953,24,-7,15,7
4509663,-2761,-7886,-1958,24,-8,14,7
4509668,-2811,-7885,-1965,25,-8,13,7
4509673,-2863,-7883,-1951,25,-8,12,7
4509678,-2926,-7884,-1916,25,-8,11,7
4509683,-3005,-7884,-1855,26,-9,11,7
4509688,-3092,-7882,-1774,26,-9,10,7
4509693,-3179,-7877,-1668,26,-10,9,7
4509698,-3271,-7875,-1535,26,-11,8,7
4509703,-3364,-7876,-1369,27,-12,7,7
4509708,-3460,-7874,-1197,27,-14,6,7
4509713,-3556,-7872,-1041,27,-16,5,7
4509718,-3634,-7868,-915,28,-19,5,7
4509723,-3696,-7865,-828,28,-21,4,7
4509728,-3736,-7863,-769,29,-23,3,7
4509733,-3753,-7864,-748,29,-24,2,7
4509738,-3752,-7864,-748,29,-25,1,7
4509743,-3727,-7858,-760,29,-25,0,7
4509748,-3706,-7849,-752,29,-24,-1,7
4509753,-3725,-7847,-652,29,-24,-2,7
4509758,-3725,-7842,-558,29,-22,-3,7
4509763,-3713,-7838,-468,29,-22,-4,7
4509768,-3678,-7833,-366,30,-22,-4,7
4509773,-3654,-7834,-245,30,-21,-5,7
4509778,-3659,-7838,-54,29,-21,-6,7
4509783,-3673,-7836,179,29,-21,-8,7
4509788,-3705,-7823,387,28,-19,-9,7
4509793,-3730,-7810,571,28,-19,-10,7
4509798,-3748,-7802,769,29,-20,-10,7
4509803,-3752,-7804,988,29,-21,-11,7
4509808,-3712,-7805,1186,28,-21,-12,7
4509813,-3637,-7794,1322,27,-20,-13,7
4509818,-3540,-7791,1431,27,-21,-14,7
4509823,-3445,-7787,1536,27,-23,-14,7
4509828,-3371,-7789,1643,27,-26,-15,7
4509833,-3319,-7792,1738,26,-28,-16,7
4509838,-3289,-7794,1815,26,-27,-17,7
4509843,-3281,-7797,1899,25,-25,-18,7
4509848,-3279,-7805,1998,24,-22,-19,7
4509853,-3274,-7804,2106,24,-18,-19,7
4509858,-3268,-7800,2254,23,-14,-20,7
4509863,-3256,-7799,2428,23,-13,-21,7
4509868,-3219,-7795,2582,22,-13,-22,7
4509873,-3168,-7787,2712,21,-16,-22,7
4509878,-3104,-7780,2813,21,-21,-23,7
4509883,-3015,-7776,2879,21,-27,-24,7
4509888,-2902,-7771,2907,20,-33,-24,7
4509893,-2773,-7768,2909,20,-40,-25,7
4509898,-2644,-7771,2889,19,-44,-25,7
4509903,-2497,-7769,2854,18,-47,-26,7
4509908,-2349,-7768,2826,18,-47,-26,7
4509913,-2207,-7763,2815,17,-46,-27,7
4509918,-2028,-7760,2658,17,-45,-27,7
4509923,-1857,-7767,2559,17,-45,-28,7
4509928,-1741,-7786,2666,16,-46,-28,7
4509933,-1631,-7786,2738,14,-41,-29,7
4509938,-1549,-7766,2780,12,-35,-29,7
4509943,-1534,-7756,2914,12,-32,-29,7
4509948,-1534,-7746,3081,12,-27,-29,7
4509953,-1496,-7736,3206,11,-24,-29,7
4509958,-1418,-7730,3298,11,-21,-29,7
4509963,-1287,-7726,3318,11,-21,-29,7
4509968,-1104,-7726,3280,11,-23,-29,7
4509973,-892,-7723,3200,10,-27,-30,7
4509978,-690,-7724,3096,10,-32,-30,7
4509983,-521,-7726,2984,9,-38,-31,7
4509988,-404,-7729,2896,9,-42,-31,7
4509993,-356,-7728,2849,8,-44,-32,7
4509998,-349,-7728,2834,8,-44,-32,7
4510003,-355,-7728,2818,8,-42,-32,7
4510008,-354,-7729,2801,7,-39,-32,7
4510013,-320,-7729,2784,7,-36,-31,7
4510018,-234,-7729,2754,6,-33,-31,7
4510023,-119,-7730,2693,6,-32,-31,7
4510028,10,-7729,2613,5,-33,-31,7
4510033,126,-7728,2539,5,-35,-31,7
4510038,216,-7730,2491,4,-37,-30,7
4510043,272,-7732,2465,3,-38,-31,7
4510048,328,-7730,2505,3,-36,-31,7
4510053,390,-7729,2573,3,-33,-31,7
4510058,471,-7725,2638,3,-29,-31,7
4510063,563,-7724,2684,3,-26,-31,7
4510068,658,-7727,2715,3,-24,-31,7
4510073,749,-7731,2722,2,-23,-31,7
4510078,837,-7732,2709,2,-22,-31,7
4510083,894,-7736,2688,1,-20,-31,7
4510088,940,-7737,2679,1,-13,-31,7
4510093,978,-7734,2698,0,-4,-31,7
4510098,1027,-7733,2739,-1,5,-31,7
4510103,1091,-7734,2804,-1,14,-30,7
4510108,1169,-7733,2892,-2,19,-30,7
4510113,1261,-7728,2989,-2,20,-30,7
4510118,1358,-7726,3099,-2,16,-30,7
4510123,1456,-7727,3205,-2,10,-29,7
4510128,1550,-7726,3302,-3,3,-29,7
4510133,1634,-7730,3390,-3,-4,-28,7
4510138,1701,-7734,3458,-4,-11,-28,7
4510143,1772,-7735,3502,-4,-16,-28,7
4510148,1840,-7731,3508,-5,-20,-28,7
4510153,1922,-7738,3512,-5,-23,-28,7
4510158,2019,-7745,3529,-6,-25,-28,7
4510163,2114,-7753,3555,-7,-23,-27,7
4510168,2185,-7756,3582,-8,-20,-27,7
4510173,2252,-7758,3622,-8,-18,-26,7
4510178,2328,-7760,3685,-9,-16,-26,7
4510183,2406,-7766,3757,-10,-14,-26,7
4510188,2485,-7770,3821,-10,-12,-25,7
4510193,2565,-7770,3871,-11,-12,-24,7
4510198,2651,-7772,3902,-12,-12,-24,7
4510203,2741,-7771,3920,-12,-13,-24,7
4510208,2827,-7773,3930,-13,-12,-23,7
4510213,2912,-7775,3940,-14,-10,-22,7
4510218,3001,-7774,3944,-15,-7,-22,7
4510223,3095,-7776,3953,-16,-4,-21,7
4510228,3185,-7780,3969,-16,-1,-21,7
4510233,3274,-7783,3993,-17,2,-20,7
4510238,3353,-7782,4027,-18,4,-20,7
4510243,3420,-7778,4071,-19,6,-19,7
4510248,3474,-7778,4107,-19,6,-19,7
4510253,3517,-7777,4132,-20,6,-18,7
4510258,3544,-7777,4151,-21,5,-17,7
4510263,3614,-7776,4148,-22,5,-17,7
4510268,3738,-7772,4117,-22,7,-15,7
4510273,3861,-7770,4071,-23,9,-14,7
4510278,4002,-7764,4016,-24,10,-13,7
4510283,4153,-7758,3950,-25,11,-13,7
4510288,4281,-7752,3893,-25,14,-12,7
4510293,4356,-7746,3866,-26,17,-12,7
4510298,4391,-7741,3846,-27,20,-11,7
4510303,4397,-7736,3851,-28,24,-11,7
4510308,4366,-7731,3856,-28,28,-10,7
4510313,4338,-7725,3846,-29,31,-9,7
4510318,4335,-7718,3809,-29,34,-8,7
4510323,4358,-7708,3738,-30,36,-7,7
4510328,4406,-7699,3637,-30,37,-7,7
4510333,4468,-7691,3517,-31,37,-6,7
4510338,4531,-7684,3379,-31,37,-5,7
4510343,4590,-7673,3237,-32,37,-4,7
4510348,4640,-7665,3093,-32,39,-4,7
4510353,4677,-7658,2948,-33,42,-3,7
4510358,4706,-7652,2823,-33,45,-3,7
4510363,4733,-7647,2706,-34,49,-2,7
4510368,4762,-7642,2602,-34,54,-1,7
4510373,4803,-7636,2505,-35,58,0,7
4510378,4858,-7631,2427,-35,61,1,7
4510383,4929,-7626,2361,-36,64,2,7
4510388,5013,-7618,2305,-36,66,3,7
4510393,5100,-7605,2244,-36,66,3,7
4510398,5179,-7594,2176,-36,64,4,7
4510403,5242,-7587,2098,-36,61,5,7
4510408,5270,-7581,2011,-36,58,5,7
4510413,5262,-7577,1898,-37,54,6,7
4510418,5228,-7575,1781,-37,52,7,7
4510423,5171,-7572,1647,-37,52,7,7
4510428,5108,-7568,1504,-37,53,8,7
4510433,5046,-7564,1359,-37,55,9,7
4510438,4995,-7556,1215,-37,57,10,7
4510443,4964,-7547,1076,-37,58,11,7
4510448,4982,-7535,907,-37,59,11,7
4510453,5038,-7525,712,-37,59,13,7
4510458,5103,-7520,520,-36,58,14,7
4510463,5161,-7518,353,-35,56,15,7
4510468,5192,-7518,206,-35,53,15,7
4510473,5184,-7517,72,-35,52,15,7
4510478,5133,-7514,-78,-35,50,15,7
4510483,5046,-7514,-249,-35,49,16,7
4510488,4924,-7514,-409,-35,49,17,7
4510493,4771,-7519,-534,-34,49,18,7
4510498,4603,-7523,-641,-34,50,18,7
4510503,4449,-7526,-746,-33,51,19,7
4510508,4318,-7529,-837,-33,52,19,7
4510513,4199,-7534,-915,-32,53,20,7
4510518,4101,-7545,-988,-32,53,20,7
4510523,4029,-7553,-1119,-32,53,21,7
4510528,3988,-7557,-1310,-32,51,21,7
4510533,3941,-7561,-1512,-32,50,22,7
4510538,3856,-7566,-1690,-31,50,22,7
4510543,3746,-7568,-1844,-31,52,22,7
4510548,3624,-7575,-1976,-31,55,22,7
4510553,3470,-7585,-2075,-30,57,22,7
4510558,3282,-7593,-2161,-30,58,22,7
4510563,3087,-7610,-2242,-29,57,22,7
4510568,2893,-7629,-2295,-28,54,22,7
4510573,2677,-7633,-2474,-27,51,23,7
4510578,2464,-7651,-2751,-25,46,23,7
4510583,2288,-7669,-2967,-24,40,23,7
4510588,2111,-7691,-3197,-23,36,23,7
4510593,1941,-7713,-3466,-22,35,23,7
4510598,1789,-7737,-3712,-21,37,23,0
4510603,1671,-7756,-3900,-20,39,22,0
4510608,1590,-7776,-4032,-20,40,22,0
4510613,1390,-7782,-4264,-18,37,22,0
4510618,1124,-7802,-4537,-16,28,20,0
4510623,944,-7825,-4672,-14,16,19,0
4510628,736,-7857,-4894,-12,8,18,0
4510633,462,-7890,-5214,-11,1,18,0
4510638,214,-7925,-5442,-10,-6,19,0
4510643,-51,-7957,-5681,-8,-7,19,0
4510648,-250,-7981,-5881,-7,-3,19,0
4510653,-389,-7995,-6020,-5,1,19,0
4510658,-458,-8013,-6177,-2,3,18,0
4510663,-462,-8030,-6337,0,1,18,0
4510668,-470,-8046,-6522,2,-5,17,0
4510673,-468,-8060,-6722,4,-12,16,0
4510678,-494,-8069,-6948,7,-18,16,0
4510683,-539,-8078,-7165,9,-22,15,0
4510688,-585,-8088,-7353,11,-23,15,0
4510693,-656,-8094,-7501,13,-22,14,0
4510698,-699,-8091,-7592,15,-20,14,0
4510703,-718,-8089,-7638,17,-17,14,0
4510708,-720,-8080,-7627,19,-16,13,0
4510713,-694,-8068,-7551,21,-15,13,0
4510718,-664,-8051,-7427,23,-15,13,0
4510723,-628,-8034,-7239,24,-13,12,0
4510728,-577,-8017,-6992,26,-12,12,0
4510733,-532,-7997,-6694,27,-11,11,0
4510738,-500,-7971,-6335,29,-9,11,0
4510743,-457,-7949,-5953,30,-7,11,0
4510748,-399,-7929,-5553,31,-4,11,0
4510753,-329,-7903,-5146,32,-2,11,0
4510758,-231,-7883,-4745,33,0,11,0
4510763,-122,-7862,-4354,34,1,11,0
4510768,-16,-7843,-3978,34,0,11,0
4510773,85,-7837,-3605,35,0,10,0
4510778,156,-7827,-3226,35,0,10,0
4510783,234,-7815,-2844,35,1,10,0
4510788,299,-7804,-2455,35,4,10,0
4510793,322,-7791,-2041,35,6,10,0
4510798,322,-7777,-1591,35,7,10,0
4510803,277,-7771,-1137,34,8,9,0
4510808,191,-7775,-723,33,6,8,0
4510813,148,-7780,-382,31,3,6,0
4510818,214,-7758,-150,31,3,5,0
4510823,311,-7735,-25,32,4,7,0
4510828,82,-7740,205,34,3,9,0
4510833,-471,-7774,862,33,-10,7,0
4510838,-998,-7810,1671,29,-14,4,0
4510843,-1323,-7805,2223,25,-4,3,0
4510848,-1856,-7808,2929,25,3,4,0
4510853,-2313,-7832,3837,25,-3,6,0
4510858,-2383,-7844,4464,25,-8,6,0
4510863,-2166,-7865,4843,25,-17,7,0
4510868,-1777,-7907,4999,25,-36,8,0
4510873,-1310,-7942,4813,22,-59,8,0
4510878,-786,-7975,4575,21,-77,6,0
4510883,-425,-8007,4518,18,-80,5,0
4510888,-200,-8029,4518,16,-65,3,0
4510893,-13,-8042,4543,15,-46,1,0
4510898,109,-8050,4617,14,-28,0,0
4510903,81,-8065,4811,13,-18,-1,0
4510908,-12,-8078,5059,12,-16,-1,0
4510913,-125,-8089,5220,12,-19,-1,0
4510918,-242,-8106,5313,11,-25,-1,0
4510923,-366,-8131,5293,10,-29,0,0
4510928,-432,-8154,5146,9,-33,1,0
4510933,-380,-8173,4913,8,-35,1,0
4510938,-248,-8186,4612,7,-33,1,0
4510943,-90,-8199,4297,6,-30,1,0
4510948,64,-8208,4008,5,-27,0,0
4510953,189,-8212,3737,4,-25,-1,0
4510958,227,-8219,3531,3,-24,-1,0
4510963,199,-8225,3405,3,-25,-1,0
4510968,116,-8230,3315,2,-24,-1,0
4510973,-12,-8236,3264,2,-24,-1,0
4510978,-107,-8239,3235,2,-23,-1,0
4510983,-36,-8233,3032,1,-20,0,0
4510988,77,-8221,2872,1,-17,0,0
4510993,170,-8223,2809,1,-18,0,0
4510998,237,-8228,2723,0,-20,0,0
4511003,321,-8226,2599,0,-22,0,0
4511008,374,-8228,2525,0,-22,0,0
4511013,390,-8231,2416,0,-20,0,0
4511018,417,-8232,2270,-1,-19,-1,0
4511023,440,-8235,2124,-1,-16,-1,0
4511028,412,-8239,2017,-1,-12,0,0
4511033,393,-8242,1937,-2,-9,0,0
4511038,405,-8241,1846,-2,-5,0,0
4511043,397,-8242,1776,-2,-2,0,0
4511048,397,-8242,1722,-2,-1,0,0
4511053,417,-8240,1649,-2,0,0,0
4511058,423,-8244,1587,-2,0,0,0
4511063,421,-8247,1517,-2,-1,0,0
4511068,412,-8247,1433,-2,-2,-1,0
4511073,382,-8245,1349,-2,-2,-1,0
4511078,352,-8244,1254,-2,-2,-1,0
4511083,324,-8243,1169,-2,-2,-1,0
4511088,291,-8243,1088,-2,-1,0,0
4511093,278,-8242,1009,-2,0,-1,0
4511098,272,-8243,935,-2,1,0,0
4511103,268,-8248,884,-2,1,0,0
4511108,287,-8251,835,-2,1,-1,0
4511113,307,-8250,800,-2,1,-1,0
4511118,327,-8247,786,-2,0,-1,0
4511123,345,-8246,774,-2,-1,-1,0
4511128,354,-8247,758,-2,-2,-1,0
4511133,359,-8249,755,-2,-3,-1,0
4511138,360,-8250,752,-2,-3,-1,0
4511143,361,-8251,740,-2,-4,-1,0
4511148,379,-8250,735,-2,-5,-1,0
4511153,394,-8250,742,-2,-6,-1,0
4511158,414,-8250,749,-2,-6,0,0
4511163,450,-8246,757,-2,-6,0,0
4511168,484,-8245,771,-2,-5,0,0
4511173,519,-8244,789,-1,-5,0,0
4511178,552,-8243,796,-1,-6,0,0
4511183,564,-8245,809,-1,-6,-1,0
4511188,559,-8243,822,-2,-6,0,0
4511193,546,-8243,832,-2,-5,0,0
4511198,530,-8244,858,-2,-3,0,0
4511203,520,-8244,883,-2,-1,0,0
4511208,517,-8245,896,-2,1,0,0
4511213,521,-8244,911,-2,1,0,0
4511218,526,-8245,912,-2,1,0,0
4511223,530,-8243,911,-2,1,0,0
4511228,529,-8241,906,-2,1,0,0
4511233,528,-8238,884,-2,1,0,0
4511238,518,-8244,873,-2,1,0,0
4511243,507,-8246,853,-2,1,0,0
4511248,496,-8247,837,-2,1,0,0
4511253,477,-8250,837,-2,2,0,0
4511258,460,-8250,838,-2,2,0,0
4511263,450,-8253,838,-2,2,0,0
4511268,441,-8254,858,-2,2,0,0
4511273,442,-8252,875,-2,2,0,0
4511278,447,-8252,886,-2,1,0,0
4511283,449,-8251,904,-2,0,0,0
4511288,449,-8248,917,-2,-1,0,0
4511293,454,-8249,928,-2,-2,0,0
4511298,461,-8249,953,-2,-3,0,0
4511303,466,-8248,955,-2,-3,0,0
4511308,470,-8248,962,-2,-4,0,0
4511313,473,-8247,968,-2,-3,0,0
4511318,479,-8247,968,-2,-2,0,0
4511323,487,-8249,969,-2,-2,0,0
4511328,497,-8250,966,-2,-2,0,0
4511333,499,-8249,953,-2,-2,0,0
4511338,491,-8248,947,-2,-3,0,0
4511343,480,-8249,927,-2,-3,0,0
4511348,466,-8251,902,-2,-4,0,0
4511353,447,-8252,882,-2,-4,0,0
4511358,420,-8252,855,-2,-3,0,0
4511363,396,-8252,827,-2,-3,0,0
4511368,365,-8252,806,-2,-2,0,0
4511373,340,-8254,781,-2,-2,0,0
4511378,319,-8256,760,-2,-1,0,0
4511383,303,-8259,743,-2,-1,0,0
4511388,292,-8259,727,-2,-1,0,0
4511393,280,-8260,716,-2,-2,0,0
4511398,273,-8262,714,-2,-2,0,0
4511403,273,-8260,710,-2,-3,0,0
4511408,271,-8256,718,-2,-4,0,0
4511413,271,-8252,726,-2,-5,0,0
4511418,268,-8255,733,-2,-6,0,0
4511423,266,-8253,746,-2,-6,0,0
4511428,261,-8254,752,-2,-6,0,0
4511433,253,-8253,753,-1,-6,0,0
4511438,252,-8257,757,-2,-6,0,0
4511443,252,-8258,757,-2,-5,0,0
4511448,254,-8258,770,-2,-4,0,0
4511453,266,-8259,788,-2,-3,0,0
4511458,282,-8260,794,-2,-2,0,0
4511463,296,-8261,814,-2,-1,0,0
4511468,313,-8260,833,-2,-1,-1,0
4511473,325,-8260,847,-2,-1,-1,0
4511478,335,-8258,859,-2,-1,-1,0
4511483,343,-8256,872,-2,0,-1,0
4511488,348,-8257,881,-2,0,-1,0
4511493,354,-8257,888,-2,0,-1,0
4511498,356,-8257,888,-2,1,-1,0
4511503,358,-8260,883,-2,1,-1,0
4511508,362,-8259,880,-2,1,-1,0
4511513,370,-8258,865,-2,1,0,0
4511518,375,-8257,850,-2,1,-1,0
4511523,387,-8256,847,-2,1,-1,0
4511528,396,-8258,836,-2,1,0,0
4511533,407,-8253,836,-2,2,0,0
4511538,423,-8252,834,-2,3,0,0
4511543,445,-8251,829,-2,3,-1,0
4511548,463,-8252,841,-2,0,-1,0
4511553,457,-8254,839,-2,-3,-1,0
4511558,430,-8253,836,-2,-4,-1,0
4511563,402,-8255,829,-2,-4,0,0
4511568,390,-8254,807,-2,-1,0,0
4511573,390,-8258,792,-2,0,0,0
4511578,403,-8259,784,-2,0,0,0
4511583,420,-8258,763,-2,0,0,0
4511588,433,-8258,743,-2,-1,0,0
4511593,442,-8259,734,-2,-1,0,0
4511598,448,-8259,728,-2,0,0,0
4511603,449,-8255,730,-2,1,0,0
4511608,452,-8255,734,-2,1,0,0
4511613,453,-8254,734,-2,1,0,0
4511618,449,-8252,741,-2,1,0,0
4511623,450,-8250,742,-2,1,0,0
4511628,452,-8249,735,-2,1,0,0
4511633,448,-8250,730,-2,1,0,0
4511638,447,-8251,718,-2,1,0,0
4511643,444,-8254,707,-2,1,0,0
4511648,441,-8257,700,-2,1,0,0
4511653,439,-8258,681,-2,0,0,0
4511658,429,-8255,668,-2,0,0,0
4511663,414,-8252,655,-2,-2,0,0
4511668,399,-8253,641,-1,-2,0,0
4511673,379,-8256,629,-1,-3,0,0
4511678,361,-8260,619,-1,-3,0,0
4511683,343,-8261,609,-1,-4,0,0
4511688,330,-8262,607,-1,-4,0,0
4511693,323,-8263,609,-1,-5,0,0
4511698,320,-8261,615,-1,-5,0,0
4511703,318,-8259,624,-1,-6,0,0
4511708,324,-8258,626,-1,-7,0,0
4511713,331,-8258,620,-1,-7,-1,0
4511718,333,-8258,618,-1,-8,-1,0
4511723,339,-8258,619,-1,-8,0,0
4511728,346,-8262,623,-1,-7,0,0
4511733,354,-8265,622,-1,-7,0,0
4511738,366,-8263,622,-1,-5,-1,0
4511743,380,-8264,624,-1,-4,0,0
4511748,391,-8262,633,-1,-3,0,0
4511753,406,-8258,650,-1,-2,0,0
4511758,419,-8258,670,-1,-1,-1,0
4511763,426,-8258,684,-1,-1,-1,0
4511768,431,-8256,697,-1,0,0,0
4511773,426,-8258,711,-1,0,-1,0
4511778,417,-8259,728,-1,0,0,0
4511783,405,-8258,735,-1,0,0,0
4511788,393,-8260,734,-1,0,-1,0
4511793,382,-8260,734,-1,0,-1,0
4511798,368,-8262,728,-1,-1,-1,0
4511803,355,-8263,722,-1,-1,-1,0
4511808,346,-8264,718,-1,-1,-1,0
4511813,335,-8266,717,-1,-2,-1,0
4511818,322,-8266,710,-1,-2,-1,0
4511823,307,-8267,698,-1,-2,-1,0
4511828,291,-8266,692,-1,-2,-1,0
4511833,274,-8264,682,-1,-2,-1,0
4511838,261,-8262,679,-1,-2,-1,0
4511843,256,-8259,671,-1,-2,-1,0
4511848,261,-8261,662,-1,-2,-1,0
4511853,270,-8264,660,-1,-2,-1,0
4511858,287,-8265,658,-1,-2,-1,0
4511863,304,-8265,663,-1,-2,-1,0
4511868,323,-8264,670,-1,-2,-1,0
4511873,338,-8266,678,-1,-2,-1,0
4511878,345,-8267,692,-1,-2,-1,0
4511883,350,-8263,702,-1,-2,-1,0
4511888,350,-8263,711,-1,-1,-1,0
4511893,351,-8263,719,-1,-1,-1,0
4511898,356,-8261,730,-1,-1,-1,0
4511903,357,-8260,733,-1,-1,-1,0
4511908,360,-8261,738,-1,-1,-1,0
4511913,365,-8261,739,-1,-1,-1,0
4511918,372,-8263,736,-1,-1,-1,0
4511923,377,-8264,731,-1,-1,-1,0
4511928,378,-8267,725,-1,-1,-1,0
4511933,375,-8269,712,-1,-2,-1,0
4511938,371,-8267,706,-1,-2,-1,0
4511943,360,-8265,695,-1,-2,-1,0
4511948,352,-8263,686,-1,-1,-1,0
4511953,350,-8260,684,-1,-1,-1,0
4511958,353,-8259,675,-1,-1,-1,0
4511963,355,-8257,670,-1,-1,-1,0
4511968,361,-8255,666,-1,-2,-1,0
4511973,368,-8258,667,-1,-2,-1,0
4511978,371,-8259,666,-1,-2,-1,0
4511983,378,-8258,667,-1,-1,-1,0
4511988,387,-8260,670,-1,-1,-1,0
4511993,395,-8260,680,-1,-1,-1,0
4511998,404,-8258,687,-1,-1,-1,0
4512003,414,-8257,691,-1,-1,-1,0
4512008,418,-8256,694,-1,-1,-1,0
4512013,421,-8254,696,-1,-1,-1,0
4512018,427,-8253,698,-1,-1,-1,0
4512023,435,-8255,699,-1,-1,-1,0
4512028,441,-8259,696,-1,-2,-1,0
4512033,441,-8259,691,-1,-2,-1,0
4512038,441,-8261,684,-1,-2,-1,0
4512043,444,-8260,681,-1,-2,-1,0
4512048,447,-8261,680,-1,-1,-1,0
4512053,452,-8263,684,-1,-1,-1,0
4512058,452,-8262,684,-1,-1,-1,0
4512063,444,-8261,685,-1,-1,-1,0
4512068,435,-8259,690,-1,-1,-1,0
4512073,426,-8259,691,0,-1,-1,0
4512078,413,-8261,696,0,-1,-1,0
4512083,402,-8264,695,0,-2,-1,0
4512088,395,-8267,691,0,-2,-1,0
4512093,392,-8266,686,0,-2,-1,0
4512098,394,-8263,681,0,-2,-1,0
4512103,402,-8262,676,0,-3,-1,0
4512108,413,-8261,679,0,-3,-1,0
4512113,426,-8257,676,0,-3,-1,0
4512118,438,-8258,675,0,-3,-1,0
4512123,444,-8259,679,0,-3,-1,0
4512128,449,-8257,684,0,-3,-1,0
4512133,449,-8258,689,0,-3,-1,0
4512138,447,-8257,699,0,-3,-1,0
4512143,442,-8256,701,0,-3,-1,0
4512148,440,-8255,704,0,-2,-1,0
4512153,441,-8254,705,0,-2,-1,0
4512158,441,-8252,700,0,-2,-1,0
4512163,439,-8256,696,0,-2,-1,0
4512168,439,-8259,695,0,-2,-1,0
4512173,441,-8262,694,0,-2,-1,0
4512178,439,-8264,696,0,-1,-1,0
4512183,438,-8263,698,0,-1,-1,0
4512188,438,-8260,702,0,-1,-1,0
4512193,434,-8262,710,0,-1,-1,0
4512198,467,-8259,689,0,-1,-1,0
4512203,461,-8256,698,0,0,-1,0
4512208,446,-8252,728,0,-1,-1,0
4512213,435,-8249,725,0,-2,-1,0
4512218,424,-8247,724,0,-2,-1,0
4512223,407,-8250,737,0,-1,-1,0
4512228,400,-8252,731,0,-1,-1,0
4512233,410,-8251,727,0,-1,-1,0
4512238,420,-8255,729,0,-1,-1,0
4512243,428,-8252,728,0,-2,-1,0
4512248,443,-8253,727,0,-3,-1,0
4512253,453,-8255,723,0,-3,-1,0
4512258,460,-8258,720,0,-3,-1,0
4512263,471,-8258,722,0,-3,-1,0
4512268,481,-8258,723,0,-4,-1,0
4512273,481,-8257,727,0,-4,-1,0
4512278,484,-8256,733,0,-4,-1,0
4512283,490,-8257,740,0,-4,-1,0
4512288,495,-8258,745,0,-4,-1,0
4512293,501,-8257,747,0,-3,-1,0
4512298,504,-8257,757,0,-3,-1,0
4512303,508,-8256,762,0,-3,-1,0
4512308,517,-8253,759,-1,-3,-1,0
4512313,516,-8253,771,-1,-3,-1,0
4512318,512,-8258,785,-1,-2,-1,0
4512323,512,-8258,782,-1,-2,-1,0
4512328,508,-8260,786,-1,-2,-1,0
4512333,503,-8261,791,-1,-2,-1,0
4512338,504,-8261,783,-1,-2,-1,0
4512343,502,-8260,771,-1,-2,-1,0
4512348,502,-8259,767,-1,-2,-1,0
4512353,507,-8258,760,-1,-1,-1,0
4512358,517,-8258,759,-1,0,-1,0
4512363,522,-8257,752,-1,0,-1,0
4512368,529,-8256,749,-1,1,-1,0
4512373,536,-8255,752,-1,2,-1,0
4512378,539,-8255,754,-1,2,-1,0
4512383,538,-8257,761,-1,3,-1,0
4512388,537,-8256,767,-1,3,-1,0
4512393,541,-8254,776,-1,2,-1,0
4512398,552,-8254,789,-1,2,-1,0
4512403,567,-8256,802,-1,0,-1,0
4512408,581,-8256,812,-1,-1,0,0
4512413,592,-8256,825,-1,-3,0,0
4512418,602,-8259,832,-1,-4,0,0
4512423,603,-8260,836,-1,-5,0,0
4512428,599,-8261,832,-1,-6,-1,0
4512433,591,-8260,821,-1,-6,0,0
4512438,577,-8263,806,-1,-6,0,0
4512443,561,-8262,790,-1,-6,0,0
4512448,547,-8262,775,-1,-6,0,0
4512453,532,-8261,761,-1,-6,0,0
4512458,522,-8261,744,-1,-6,0,0
4512463,518,-8260,740,-1,-5,0,0
4512468,519,-8261,734,-1,-5,0,0
4512473,522,-8263,734,-1,-5,0,0
4512478,522,-8263,740,-1,-5,0,0
4512483,516,-8262,750,-1,-5,0,0
4512488,510,-8262,754,-1,-5,0,0
4512493,502,-8258,756,-1,-5,0,0
4512498,494,-8254,761,-1,-4,0,0
4512503,486,-8254,756,-1,-4,0,0
4512508,481,-8256,751,-1,-4,0,0
4512513,476,-8260,746,-1,-3,0,0
4512518,479,-8263,746,-1,-3,0,0
4512523,487,-8267,746,-1,-3,0,0
4512528,492,-8266,736,-1,-2,0,0
4512533,496,-8264,731,-1,-2,0,0
4512538,491,-8265,726,-1,-2,0,0
4512543,482,-8265,725,-1,-2,0,0
4512548,468,-8264,726,-1,-2,0,0
4512553,447,-8264,722,-1,-2,0,0
4512558,427,-8263,714,-1,-2,0,0
4512563,416,-8264,702,-1,-2,0,0
4512568,410,-8265,693,-1,-1,0,0
4512573,414,-8265,684,-1,-2,0,0
4512578,425,-8264,685,-1,-3,0,0
4512583,442,-8261,688,-1,-4,0,0
4512588,460,-8260,689,-1,-5,0,0
4512593,479,-8263,691,-1,-5,0,0
4512598,490,-8263,694,-1,-6,0,0
4512603,492,-8261,699,-1,-7,0,0
4512608,489,-8259,704,-1,-7,0,0
4512613,479,-8255,702,-1,-7,0,0
4512618,467,-8255,699,-1,-6,0,0
4512623,459,-8254,692,-1,-4,0,0
4512628,454,-8256,680,-1,-3,0,0
4512633,451,-8258,668,-1,-1,0,0
4512638,448,-8258,659,-1,0,0,0
4512643,443,-8261,655,-1,0,0,0
4512648,438,-8261,656,-1,1,0,0
4512653,428,-8262,655,-1,1,0,0
4512658,415,-8262,660,-1,1,-1,0
4512663,400,-8261,661,-1,1,-1,0
4512668,388,-8264,665,-1,1,0,0
4512673,380,-8267,666,-1,1,0,0
4512678,383,-8268,668,-1,1,0,0
4512683,391,-8268,666,-1,1,0,0
4512688,403,-8267,665,-1,1,0,0
4512693,421,-8266,662,-1,1,-1,0
4512698,438,-8265,659,-1,1,-1,0
4512703,450,-8267,662,-1,1,-1,0
4512708,459,-8268,663,-1,1,-1,0
4512713,467,-8270,665,-1,1,-1,0
4512718,467,-8272,679,-1,0,-1,0
4512723,464,-8271,692,-1,0,-1,0
4512728,457,-8270,699,-1,-1,-1,0
4512733,451,-8269,709,-1,0,-1,0
4512738,450,-8269,711,-1,0,-1,0
4512743,453,-8268,709,-1,0,-1,0
4512748,456,-8267,703,-1,0,-1,0
4512753,460,-8270,697,-1,0,-1,0
4512758,461,-8270,688,-1,-1,-1,0
4512763,462,-8272,681,-1,-1,-1,0
4512768,458,-8272,678,-1,-1,-1,0
4512773,445,-8271,683,-1,0,-1,0
4512778,433,-8270,689,-1,0,-1,0
4512783,422,-8269,688,-1,0,-1,0
4512788,420,-8269,693,-1,0,-1,0
4512793,425,-8270,693,-1,0,-1,0
4512798,432,-8272,695,-1,-1,-1,0
4512803,440,-8273,691,-1,-1,-1,0
4512808,448,-8272,685,-1,-1,-1,0
4512813,458,-8271,677,-1,-1,-1,0
4512818,469,-8273,678,-1,-1,-1,0
4512823,476,-8271,678,-1,-1,-1,0
4512828,480,-8270,675,-1,-1,-1,0
4512833,484,-8274,679,-1,-1,-1,0
4512838,484,-8276,681,-1,-1,-1,0
4512843,481,-8275,684,-1,-1,-1,0
4512848,481,-8272,694,-1,-1,-1,0
4512853,486,-8269,700,-1,-1,-1,0
4512858,488,-8269,703,-1,0,-1,0
4512863,491,-8268,703,-1,0,-1,0
4512868,498,-8267,705,-1,0,-1,0
4512873,500,-8264,704,-1,0,-1,0
4512878,500,-8261,708,-1,0,-1,0
4512883,496,-8263,709,-1,-1,-1,0
4512888,489,-8263,710,-1,-1,-1,0
4512893,479,-8262,713,-1,-1,-1,0
4512898,472,-8265,716,-1,-1,-1,0
4512903,470,-8262,719,-1,-1,-1,0
4512908,475,-8263,725,-1,-1,-1,0
4512913,483,-8261,725,-1,-2,-1,0
4512918,489,-8262,720,-1,-2,-1,0
4512923,493,-8262,713,-1,-3,-1,0
4512928,494,-8263,704,-1,-2,-1,0
4512933,494,-8266,696,-1,-2,-1,0
4512938,495,-8267,690,-1,-2,-1,0
4512943,492,-8267,686,-1,-2,-1,0
4512948,487,-8265,685,-1,-2,-1,0
4512953,484,-8262,686,-1,-2,-1,0
4512958,481,-8260,688,-1,-3,-1,0
4512963,484,-8262,691,-1,-3,-1,0
4512968,489,-8260,691,-1,-4,-1,0
4512973,497,-8259,691,-1,-4,-1,0
4512978,505,-8260,693,-1,-5,-1,0
4512983,512,-8260,694,-1,-5,-1,0
4512988,515,-8260,699,-1,-5,-1,0
4512993,516,-8260,700,-1,-5,-1,0
4512998,516,-8261,707,-1,-5,-1,0
4513003,506,-8263,708,-1,-5,-1,0
4513008,493,-8264,706,-1,-5,-1,0
4513013,481,-8266,704,-1,-5,-1,0
4513018,467,-8270,692,-1,-4,-1,0
4513023,455,-8269,689,-1,-4,-1,0
4513028,448,-8269,683,-1,-4,-1,0
4513033,445,-8268,671,-1,-4,-1,0
4513038,446,-8268,665,-1,-5,-1,0
4513043,447,-8269,658,-1,-5,-1,0
4513048,446,-8267,658,-1,-5,-1,0
4513053,447,-8266,662,-1,-5,-1,0
4513058,447,-8266,666,-1,-6,-1,0
4513063,450,-8266,676,-1,-5,-1,0
4513068,452,-8265,682,-1,-5,-1,0
4513073,455,-8263,691,-1,-5,-1,0
4513078,462,-8261,699,-1,-5,-1,0
4513083,465,-8260,700,-1,-4,-1,0
4513088,471,-8260,699,-1,-4,-1,0
4513093,476,-8261,698,-1,-3,-1,0
4513098,477,-8263,697,-1,-3,-1,0
4513103,478,-8263,700,-1,-3,-1,0
4513108,474,-8262,704,-1,-3,-1,0
4513113,470,-8260,712,-1,-3,-1,0
4513118,462,-8260,716,-1,-3,-1,0
4513123,455,-8260,721,-1,-3,-1,0
4513128,448,-8258,726,-1,-4,-1,0
4513133,444,-8258,726,-1,-4,-1,0
4513138,442,-8257,723,-1,-5,-1,0
4513143,440,-8257,718,-1,-5,-1,0
4513148,439,-8259,709,-1,-5,-1,0
4513153,442,-8258,697,-1,-5,-1,0
4513158,448,-8258,688,-1,-4,-1,0
4513163,455,-8262,674,-1,-4,-1,0
4513168,463,-8263,666,-1,-3,-1,0
4513173,473,-8265,663,-1,-3,-1,0
4513178,486,-8265,666,-1,-2,-1,0
4513183,499,-8265,675,-1,-2,-1,0
4513188,510,-8267,689,-1,-2,-1,0
4513193,517,-8266,696,-1,-2,-1,0
4513198,525,-8266,708,-1,-3,-1,0
4513203,526,-8266,714,-1,-3,-1,0
4513208,524,-8268,713,-1,-3,-1,0
4513213,521,-8268,710,-1,-4,-1,0
4513218,519,-8267,705,-1,-4,-1,0
4513223,517,-8266,695,-1,-4,-1,0
4513228,519,-8264,687,-1,-3,-1,0
4513233,522,-8266,672,-1,-3,-1,0
4513238,531,-8266,665,-1,-3,-1,0
4513243,544,-8266,666,-1,-4,-1,0
4513248,557,-8265,669,-1,-4,-1,0
4513253,571,-8266,669,-1,-4,-1,0
4513258,581,-8266,673,-1,-4,-1,0
4513263,592,-8266,676,-1,-4,-1,0
4513268,604,-8268,679,-1,-4,0,0
4513273,615,-8267,680,-1,-4,0,0
4513278,629,-8261,682,-1,-4,0,0
4513283,642,-8259,683,0,-4,0,0
4513288,651,-8260,684,0,-4,0,0
4513293,659,-8260,686,-1,-4,0,0
4513298,660,-8259,695,-1,-3,0,0
4513303,658,-8260,701,-1,-3,0,0
4513308,654,-8261,705,-1,-3,0,0
4513313,644,-8263,712,-1,-3,0,0
4513318,631,-8267,726,-1,-4,0,0
4513323,612,-8270,728,-1,-3,0,0
4513328,597,-8270,725,-1,-3,0,0
4513333,585,-8270,729,-1,-3,0,0
4513338,576,-8269,726,-1,-3,0,0
4513343,570,-8268,716,-1,-3,0,0
4513348,563,-8265,709,-1,-2,0,0
4513353,553,-8264,701,-1,-2,0,0
4513358,542,-8264,700,-1,-1,0,0
4513363,533,-8266,695,-1,0,0,0
4513368,524,-8269,693,-1,0,0,0
4513373,517,-8267,699,-1,1,0,0
4513378,513,-8264,702,-1,1,0,0
4513383,513,-8264,707,-1,0,0,0
4513388,511,-8262,706,-1,0,0,0
4513393,512,-8261,703,-1,0,0,0
4513398,513,-8263,697,-1,0,0,0
4513403,512,-8261,688,-1,0,0,0
4513408,508,-8261,672,-1,0,0,0
4513413,505,-8262,656,-1,0,0,0
4513418,505,-8262,645,-1,1,0,0
4513423,506,-8260,630,-1,1,0,0
4513428,510,-8257,622,-1,1,0,0
4513433,515,-8255,617,-1,1,0,0
4513438,522,-8255,621,-1,1,0,0
4513443,524,-8256,632,0,0,0,0
4513448,519,-8257,634,0,0,0,0
4513453,510,-8260,638,0,-1,0,0
4513458,496,-8263,637,0,-1,0,0
4513463,478,-8264,638,0,-1,0,0
4513468,459,-8267,631,0,-1,0,0
4513473,438,-8270,626,0,-1,0,0
4513478,417,-8271,623,0,-1,0,0
4513483,402,-8271,614,0,-1,0,0
4513488,388,-8272,606,0,-1,0,0
4513493,384,-8274,602,0,0,0,0
4513498,383,-8273,598,0,0,0,0
4513503,388,-8269,596,0,0,0,0
4513508,394,-8267,600,0,0,0,0
4513513,403,-8267,608,0,0,0,0
4513518,418,-8267,613,0,-1,0,0
4513523,433,-8266,618,0,-1,0,0
4513528,444,-8266,627,0,-1,0,0
4513533,453,-8262,643,0,0,0,0
4513538,461,-8261,655,0,0,0,0
4513543,468,-8262,666,0,0,0,0
4513548,474,-8262,669,0,0,0,0
4513553,473,-8260,679,0,0,0,0
4513558,469,-8261,684,0,0,0,0
4513563,462,-8263,690,0,0,0,0
4513568,458,-8262,696,0,0,0,0
4513573,456,-8260,706,0,1,0,0
4513578,456,-8260,714,0,1,0,0
4513583,460,-8262,716,0,1,0,0
4513588,462,-8261,723,0,1,0,0
4513593,465,-8258,727,0,1,0,0
4513598,468,-8261,728,0,1,0,0
4513603,471,-8263,729,0,1,0,0
4513608,474,-8267,734,0,1,0,0
4513613,478,-8266,738,0,1,0,0
4513618,481,-8264,741,0,1,0,0
4513623,478,-8265,745,0,1,0,0
4513628,472,-8266,740,0,0,0,0
4513633,466,-8265,738,0,0,0,0
4513638,461,-8267,743,0,0,0,0
4513643,459,-8266,747,-1,0,0,0
4513648,461,-8266,747,-1,-1,0,0
4513653,465,-8269,746,0,-1,0,0
4513658,465,-8268,744,-1,-1,0,0
4513663,469,-8267,746,-1,-1,0,0
4513668,473,-8267,743,-1,-1,0,0
4513673,474,-8267,741,-1,-1,0,0
4513678,472,-8267,739,-1,0,0,0
4513683,471,-8264,738,-1,0,0,0
4513688,471,-8264,738,-1,1,0,0
4513693,468,-8259,736,-1,1,0,0
4513698,464,-8261,737,-1,1,0,0
4513703,464,-8261,739,-1,1,0,0
4513708,464,-8262,739,-1,1,0,0
4513713,463,-8266,742,-1,0,0,0
4513718,458,-8269,746,-1,0,0,0
4513723,456,-8266,749,-1,0,0,0
4513728,457,-8265,749,-1,0,0,0
4513733,457,-8264,752,-1,-1,0,0
4513738,456,-8264,747,-1,-1,0,0
4513743,454,-8265,745,-1,-1,0,0
4513748,455,-8264,739,-1,-1,-1,0
4513753,452,-8260,731,-1,-1,0,0
4513758,455,-8260,726,-1,-1,-1,0
4513763,454,-8261,720,-1,-1,0,0
4513768,454,-8261,715,-1,-1,-1,0
4513773,455,-8261,709,-1,0,0,0
4513778,456,-8261,706,-1,0,0,0
4513783,454,-8261,707,-1,-1,-1,0
4513788,453,-8260,708,-1,-1,-1,0
4513793,453,-8260,703,-1,-1,-1,0
4513798,455,-8261,698,-1,-1,0,0
4513803,459,-8263,691,-1,-1,-1,0
4513808,464,-8262,686,-1,-1,0,0
4513813,466,-8262,681,-1,-1,-1,0
4513818,465,-8261,671,-1,-1,-1,0
4513823,469,-8263,663,-1,-1,-1,0
4513828,470,-8265,655,-1,-1,-1,0
4513833,468,-8266,654,-1,0,-1,0
4513838,465,-8266,649,-1,0,-1,0
4513843,464,-8267,651,-1,0,0,0
4513848,467,-8266,652,-1,0,0,0
4513853,471,-8267,656,-1,1,-1,0
4513858,474,-8267,659,-1,0,-1,0
4513863,477,-8267,667,-1,0,-1,0
4513868,480,-8269,674,-1,0,-1,0
4513873,479,-8266,683,-1,-1,-1,0
4513878,475,-8262,687,-1,-1,-1,0
4513883,466,-8264,689,-1,-1,-1,0
4513888,458,-8263,691,-1,-1,-1,0
4513893,451,-8263,683,-1,-1,-1,0
4513898,447,-8262,680,-1,-1,-1,0
4513903,452,-8263,671,-1,-1,-1,0
4513908,456,-8262,662,-1,-1,-1,0
4513913,460,-8262,651,-1,0,-1,0
4513918,464,-8260,642,-1,0,-1,0
4513923,467,-8259,635,-1,0,-1,0
4513928,463,-8260,628,0,0,-1,0
4513933,457,-8261,624,0,0,-1,0
4513938,450,-8257,620,0,0,-1,0
4513943,446,-8258,616,0,0,-1,0
4513948,448,-8258,613,0,0,-1,0
4513953,455,-8260,616,0,-1,-1,0
4513958,463,-8258,622,0,-1,-1,0
4513963,474,-8258,628,0,-1,-1,0
4513968,484,-8259,639,0,-1,-1,0
4513973,493,-8257,650,0,-1,-1,0
4513978,500,-8260,659,0,-1,-1,0
4513983,502,-8261,669,0,-1,-1,0
4513988,503,-8261,677,0,-1,-1,0
4513993,500,-8260,681,0,-1,-1,0
4513998,495,-8259,679,0,-1,-1,0
4514003,492,-8260,676,0,-1,-1,0
4514008,487,-8260,674,0,-1,-1,0
4514013,483,-8261,667,0,-1,-1,0
4514018,477,-8264,654,0,-1,-1,0
4514023,468,-8263,647,0,-1,-1,0
4514028,455,-8265,638,0,-1,-1,0
4514033,447,-8266,633,0,-1,-1,0
4514038,443,-8270,628,0,-1,-1,0
4514043,441,-8269,628,0,-1,-1,0
4514048,443,-8268,631,0,-1,-1,0
4514053,451,-8264,637,0,-1,-1,0
4514058,460,-8265,645,0,-1,-1,0
4514063,469,-8265,661,0,-2,-1,0
4514068,479,-8264,672,0,-2,-1,0
4514073,489,-8264,683,0,-2,-1,0
4514078,500,-8263,696,0,-1,-1,0
4514083,507,-8261,704,0,-1,-1,0
4514088,519,-8260,718,0,-1,-1,0
4514093,526,-8259,730,0,-1,0,0
4514098,533,-8261,737,0,-1,-1,0
4514103,535,-8262,747,0,-1,0,0
4514108,537,-8262,755,0,-1,-1,0
4514113,537,-8262,755,0,-1,0,0
4514118,534,-8264,754,0,-1,0,0
4514123,528,-8266,755,0,-1,-1,0
4514128,523,-8265,752,0,0,0,0
4514133,519,-8265,755,0,0,0,0
4514138,517,-8265,757,0,0,0,0
4514143,514,-8266,752,0,0,0,0
4514148,515,-8266,753,0,-1,0,0
4514153,514,-8267,755,0,-1,0,0
4514158,515,-8268,757,0,-1,0,0
4514163,513,-8269,764,-1,0,0,0
4514168,513,-8270,764,-1,-1,0,0
4514173,512,-8275,763,-1,-1,0,0
4514178,513,-8275,765,-1,0,0,0
4514183,508,-8274,764,-1,0,0,0
4514188,508,-8276,766,-1,0,0,0
4514193,506,-8275,762,-1,-1,0,0
4514198,504,-8273,763,-1,-1,0,0
4514203,499,-8268,761,-1,-1,0,0
4514208,493,-8266,756,-1,-1,0,0
4514213,491,-8263,753,-1,-1,0,0
4514218,491,-8264,748,-1,-1,0,0
4514223,495,-8263,743,-1,-1,0,0
4514228,500,-8266,734,-1,-1,0,0
4514233,508,-8267,729,-1,0,0,0
4514238,522,-8270,722,-1,0,0,0
4514243,535,-8272,718,-1,0,0,0
4514248,541,-8270,712,-1,0,0,0
4514253,540,-8270,710,-1,0,0,0
4514257,533,-8270,710,-1,0,0,0
4514263,521,-8270,708,-1,1,0,0
4514268,507,-8269,705,-1,1,0,0
4514273,491,-8266,703,-1,1,0,0
4514278,475,-8265,701,-1,1,0,0
4514282,460,-8264,699,-1,0,0,0
4514287,447,-8267,693,-1,0,0,0
4514293,441,-8267,685,-1,0,0,0
4514298,441,-8267,672,-1,0,0,0
4514303,446,-8266,665,-1,0,0,0
4514308,452,-8262,659,-1,0,0,0
4514313,459,-8262,655,-1,-1,0,0
4514318,467,-8262,649,-1,0,0,0
4514323,477,-8262,647,-1,0,0,0
4514328,487,-8264,644,-1,0,0,0
4514332,498,-8262,643,-1,0,0,0
4514337,511,-8263,640,-1,0,0,0
4514343,520,-8263,638,-1,0,0,0
4514348,526,-8261,640,-1,0,0,0
4514352,525,-8262,643,0,0,0,0
4514358,522,-8261,643,-1,0,0,0
4514363,512,-8264,641,0,0,0,0
4514367,498,-8261,632,0,0,0,0
4514372,479,-8260,628,0,0,0,0
4514378,458,-8258,620,0,0,0,0
4514383,443,-8257,620,0,0,0,0
4514387,433,-8258,622,0,0,0,0
4514393,426,-8258,632,0,0,0,0
4514398,422,-8259,640,0,0,0,0
4514402,426,-8257,645,0,0,0,0
4514408,431,-8256,653,0,-1,0,0
4514413,439,-8254,658,0,-1,0,0
4514417,445,-8254,661,0,-1,0,0
4514423,449,-8255,666,0,-1,0,0
4514428,450,-8257,672,0,-1,0,0
4514433,450,-8257,675,0,-1,0,0
4514438,455,-8258,680,0,0,0,0
4514443,461,-8257,681,0,0,0,0
4514448,467,-8259,688,0,0,0,0
4514453,472,-8257,691,0,0,0,0
4514457,472,-8258,689,0,0,0,0
4514462,470,-8257,688,0,0,0,0
4514468,468,-8257,690,0,0,0,0
4514473,467,-8257,693,0,-1,0,0
4514478,465,-8260,688,0,-1,0,0
4514483,460,-8261,685,0,-1,0,0
4514488,456,-8263,681,0,-1,0,0
4514493,456,-8261,677,0,-1,0,0
4514498,456,-8262,678,0,-1,0,0
4514503,456,-8261,675,0,-1,0,0
4514507,453,-8262,679,0,-1,0,0
4514512,449,-8264,683,0,-1,0,0
4514518,448,-8267,686,0,-1,0,0
4514522,448,-8266,694,0,-1,0,0
4514528,452,-8265,705,-1,-1,0,0
4514533,456,-8265,718,0,-1,0,0
4514538,463,-8265,727,0,-1,0,0
4514543,473,-8265,740,-1,-1,0,0
4514548,479,-8263,748,-1,-1,0,0
4514553,483,-8263,752,-1,-1,0,0
4514557,485,-8261,755,-1,-1,0,0
4514563,484,-8262,758,-1,-1,0,0
4514568,482,-8264,761,-1,-1,0,0
4514573,482,-8263,755,-1,-1,0,0
4514578,483,-8268,750,-1,0,0,0
4514583,483,-8268,744,-1,0,0,0
4514588,483,-8267,741,-1,0,0,0
4514593,481,-8265,742,-1,0,0,0
4514597,474,-8262,746,-1,0,0,0
4514602,472,-8266,743,-1,0,0,0
4514608,468,-8267,742,-1,0,0,0
4514612,462,-8268,739,-1,0,0,0
4514617,457,-8270,736,-1,0,0,0
4514622,454,-8270,733,-1,0,0,0
4514628,456,-8271,731,-1,0,0,0
4514632,458,-8273,728,-1,0,0,0
4514637,461,-8275,724,-1,0,0,0
4514642,464,-8274,725,-1,0,0,0
4514647,465,-8275,724,-1,0,0,0
4514652,464,-8274,719,-1,0,0,0
4514657,463,-8272,715,-1,0,0,0
4514663,465,-8269,700,-1,0,0,0
4514667,463,-8267,688,-1,0,0,0
4514672,461,-8269,681,-1,0,0,0
4514677,455,-8269,669,-1,0,0,0
4514683,448,-8268,652,-1,0,0,0
4514688,438,-8268,634,-1,0,0,0
4514692,429,-8268,623,-1,0,0,0
4514698,422,-8267,611,-1,0,0,0
4514702,416,-8266,608,-1,0,0,0
4514707,412,-8266,611,-1,0,0,0
4514712,409,-8266,613,-1,-1,0,0
4514718,410,-8264,616,-1,-1,0,0
4514723,414,-8264,616,-1,-1,0,0
4514728,416,-8262,618,-1,-1,0,0
4514732,416,-8262,619,-1,-1,0,0
4514737,416,-8262,618,0,-1,0,0
4514742,418,-8262,620,0,-1,0,0
4514747,416,-8264,617,0,0,0,0
4514753,418,-8265,613,0,0,0,0
4514757,419,-8264,616,0,0,0,0
4514763,418,-8265,621,0,0,0,0
4514767,421,-8265,626,0,0,-1,0
4514772,425,-8262,635,0,0,0,0
4514778,428,-8261,646,0,0,0,0
4514782,430,-8259,659,0,0,0,0
4514787,438,-8259,669,0,0,-1,0
4514792,440,-8259,675,0,-1,-1,0
4514798,443,-8260,688,0,-1,0,0
4514803,444,-8261,697,0,-1,0,0
4514808,443,-8263,699,0,-1,-1,0
4514813,443,-8263,703,0,-1,-1,0
4514817,442,-8264,703,0,-1,-1,0
4514823,440,-8265,702,0,-1,-1,0
4514827,438,-8265,702,0,-1,-1,0
4514832,433,-8264,697,0,-1,0,0
4514837,429,-8266,690,0,-1,-1,0
4514842,428,-8266,688,0,-1,-1,0
4514847,428,-8265,681,0,-1,-1,0
4514853,428,-8267,681,0,-1,-1,0
4514857,430,-8270,682,0,-1,-1,0
4514862,436,-8270,684,0,-1,-1,0
4514867,439,-8267,692,0,-1,-1,0
4514872,442,-8266,696,0,-1,-1,0
4514877,444,-8266,693,0,-1,-1,0
4514882,445,-8267,694,0,-1,-1,0
4514887,446,-8270,694,0,-1,-1,0
4514892,448,-8271,693,0,-1,-1,0
4514897,448,-8271,700,0,-1,-1,0
4514902,448,-8274,706,-1,-1,-1,0
4514907,445,-8274,705,-1,-1,-1,0
4514912,445,-8273,705,-1,-1,-1,0
4514917,441,-8274,706,-1,-1,-1,0
4514922,437,-8275,702,0,-1,-1,0
4514927,436,-8274,698,-1,-1,-1,0
4514932,434,-8274,695,-1,-1,-1,0
4514937,433,-8272,693,-1,-1,-1,0
4514942,431,-8269,694,-1,-1,-1,0
4514947,433,-8265,692,0,-1,-1,0
4514952,434,-8264,689,0,-1,-1,0
4514957,438,-8265,688,0,-1,-1,0
4514962,441,-8266,687,0,-1,-1,0
4514967,444,-8265,687,0,-1,-1,0
4514972,448,-8266,684,-1,-2,-1,0
4514977,453,-8265,687,0,-2,-1,0
4514982,461,-8264,688,0,-2,-1,0
4514987,467,-8262,688,0,-2,-1,0
4514992,469,-8262,690,0,-1,-1,0
4514997,471,-8262,687,0,-1,-1,0
4515003,476,-8263,680,0,0,-1,0
4515007,478,-8264,673,0,0,-1,0
4515012,482,-8263,673,0,-1,-1,0
4515017,472,-8263,676,0,-2,-1,0
4515022,452,-8266,675,0,-2,-1,0
4515027,436,-8267,674,0,-1,-1,0
4515032,429,-8269,674,0,-1,-1,0
4515037,426,-8270,675,0,-1,-1,0
4515042,427,-8272,678,0,-2,-1,0
4515047,440,-8271,678,0,-2,-1,0
4515052,450,-8271,676,0,-2,-1,0
4515057,459,-8269,673,0,-1,-1,0
4515062,467,-8268,681,0,-1,-1,0
4515067,473,-8268,685,0,-1,-1,0
4515072,472,-8269,692,0,-1,-1,0
4515077,466,-8267,696,0,-1,-1,0
4515082,462,-8267,707,0,-1,-1,0
4515087,459,-8263,716,0,0,-1,0
4515092,463,-8262,723,0,0,0,0
4515097,469,-8261,725,0,0,-1,0
4515102,478,-8260,727,0,-1,-1,0
4515107,487,-8258,715,0,-1,0,0
4515112,495,-8258,707,0,0,-1,0
4515117,504,-8259,703,-1,0,-1,0
4515122,511,-8258,703,-1,0,-1,0
4515127,516,-8257,706,-1,0,-1,0
4515132,516,-8255,714,-1,0,-1,0
4515137,514,-8255,719,-1,0,-1,0
4515142,510,-8255,727,-1,0,-1,0
4515147,500,-8255,726,-1,0,0,0
4515152,491,-8253,725,-1,0,0,0
4515157,481,-8254,717,0,-1,0,0
4515162,475,-8250,709,0,-1,0,0
4515167,468,-8251,697,0,-1,-1,0
4515172,460,-8254,688,-1,-1,-1,0
4515177,452,-8256,678,-1,-1,-1,0
4515182,447,-8255,675,-1,-1,0,0
4515187,448,-8258,682,-1,-1,0,0
4515192,451,-8259,693,-1,-1,0,0
4515197,460,-8260,705,-1,-1,0,0
4515202,471,-8259,722,-1,-1,0,0
4515207,484,-8260,734,-1,-1,0,0
4515212,494,-8261,741,-1,-1,0,0
4515217,501,-8260,741,-1,-1,0,0
4515222,501,-8261,734,-1,-1,0,0
4515227,501,-8263,729,-1,-1,0,0
4515232,498,-8265,724,-1,-1,0,0
4515237,494,-8267,720,-1,0,0,0
4515242,486,-8263,720,-1,0,0,0
4515247,477,-8262,711,-1,0,0,0
4515252,472,-8262,702,-1,0,0,0
4515257,467,-8262,700,-1,0,-1,0
4515262,464,-8266,698,-1,0,0,0
4515267,462,-8267,692,-1,0,0,0
4515272,462,-8269,693,-1,-1,0,0
4515277,461,-8269,687,-1,-1,0,0
4515282,463,-8271,685,-1,-1,0,0
4515287,465,-8274,685,-1,-1,0,0
4515292,468,-8274,684,-1,-1,0,0
4515297,470,-8273,684,-1,-1,0,0
4515302,475,-8271,686,-1,-1,0,0
4515307,477,-8270,685,-1,0,0,0
4515312,479,-8266,687,-1,0,0,0
4515317,476,-8263,685,-1,0,0,0
4515322,471,-8265,682,-1,0,0,0
4515327,463,-8267,679,-1,0,0,0
4515332,458,-8268,678,-1,0,0,0
4515337,457,-8267,675,-1,0,0,0
4515342,457,-8266,674,-1,0,0,0
4515347,461,-8266,683,-1,0,0,0
4515352,463,-8263,688,-1,0,0,0
4515357,467,-8264,698,-1,0,0,0
4515362,473,-8263,706,-1,0,0,0
4515367,474,-8265,710,-1,0,0,0
4515372,476,-8268,714,-1,0,0,0
4515377,476,-8267,720,-1,0,0,0
4515382,473,-8269,724,-1,0,0,0
4515387,472,-8268,726,-1,0,0,0
4515392,471,-8270,723,-1,0,0,0
4515397,469,-8271,717,-1,0,0,0
4515402,466,-8270,715,-1,0,0,0
4515407,459,-8268,710,-1,0,0,0
4515412,451,-8268,707,-1,0,0,0
4515417,444,-8265,703,-1,-1,0,0
4515422,438,-8263,700,-1,-1,0,0
4515427,432,-8261,700,-1,0,0,0
4515432,431,-8261,701,-1,0,0,0
4515437,433,-8261,698,-1,0,0,0
4515442,437,-8263,697,-1,0,0,0
4515447,445,-8263,688,-1,0,0,0
4515452,453,-8262,683,-1,0,0,0
4515457,460,-8262,682,-1,0,0,0
4515462,463,-8260,681,-1,0,0,0
4515467,465,-8257,682,-1,0,0,0
4515472,461,-8256,682,-1,0,0,0
4515477,452,-8255,680,-1,0,-1,0
4515482,442,-8256,678,-1,0,-1,0
4515487,432,-8258,676,-1,-1,-1,0
4515492,419,-8258,672,-1,-1,-1,0
4515497,408,-8259,671,-1,-1,-1,0
4515502,401,-8258,662,-1,-1,-1,0
4515507,399,-8257,654,-1,-1,-1,0
4515512,400,-8259,648,-1,-1,-1,0
4515517,405,-8258,641,0,-1,-1,0
4515522,414,-8260,631,0,-1,-1,0
4515527,423,-8261,629,-1,-1,-1,0
4515532,436,-8262,627,-1,-1,-1,0
4515537,441,-8263,635,-1,-1,-1,0
4515542,443,-8264,646,0,-1,-1,0
4515547,441,-8266,653,-1,-1,-1,0
4515552,444,-8267,660,-1,-1,-1,0
4515557,448,-8266,668,0,-1,-1,0
4515562,455,-8266,674,0,-1,-1,0
4515567,460,-8266,678,0,0,0,0
4515572,465,-8267,681,0,0,-1,0
4515577,468,-8266,686,-1,0,-1,0
4515582,471,-8265,693,-1,-1,-1,0
4515587,469,-8266,698,-1,-1,-1,0
4515592,462,-8265,701,-1,-1,0,0
4515597,457,-8265,710,-1,-1,0,0
4515602,453,-8268,723,-1,-1,-1,0
4515607,451,-8266,731,-1,-1,0,0
4515612,451,-8265,735,-1,-1,0,0
4515617,457,-8265,737,-1,-1,0,0
4515622,464,-8267,734,-1,-1,0,0
4515627,471,-8269,731,-1,-1,0,0
4515632,478,-8269,726,-1,-1,0,0
4515637,488,-8268,719,-1,-1,0,0
4515642,497,-8268,715,-1,-1,-1,0
4515647,498,-8264,714,-1,-1,0,0
4515652,495,-8263,709,-1,-1,0,0
4515657,490,-8262,708,-1,0,0,0
4515662,484,-8263,710,-1,0,0,0
4515667,471,-8262,709,-1,0,0,0
4515672,464,-8262,705,-1,-1,0,0
4515677,458,-8262,694,-1,-1,0,0
4515682,456,-8262,680,-1,-1,0,0
4515687,451,-8264,670,-1,-1,0,0
4515692,451,-8265,658,-1,-1,0,0
4515697,454,-8265,650,-1,-1,0,0
4515702,457,-8263,642,-1,-1,0,0
4515707,459,-8265,644,-1,-1,0,0
4515712,461,-8265,650,-1,-1,0,0
4515717,462,-8267,659,-1,-1,0,0
4515722,460,-8267,668,-1,-1,0,0
4515727,456,-8265,674,-1,-1,0,0
4515732,450,-8262,676,-1,0,0,0
4515737,444,-8261,673,-1,0,0,0
4515742,436,-8258,670,-1,0,-1,0
4515747,430,-8257,668,-1,0,0,0
4515752,426,-8259,669,-1,-1,0,0
4515757,428,-8261,670,-1,-1,0,0
4515762,429,-8264,667,-1,-1,0,0
4515767,435,-8265,663,-1,-1,0,0
4515772,442,-8266,666,-1,-1,0,0
4515777,449,-8267,667,-1,-1,0,0
4515782,462,-8268,668,-1,-1,0,0
4515787,474,-8266,672,-1,-1,0,0
4515792,484,-8263,670,-1,-1,0,0
4515797,489,-8263,667,-1,0,0,0
4515802,489,-8263,672,-1,0,0,0
4515807,490,-8259,674,-1,0,0,0
4515812,486,-8260,677,-1,0,0,0
4515817,476,-8262,681,-1,0,0,0
4515822,465,-8263,683,-1,0,-1,0
4515827,454,-8262,679,-1,0,0,0
4515832,441,-8263,675,-1,0,0,0
4515837,432,-8262,677,-1,0,0,0
4515842,423,-8260,672,-1,-1,0,0
4515847,417,-8263,666,-1,-1,0,0
4515852,415,-8265,669,-1,-1,0,0
4515857,414,-8266,668,-1,-1,0,0
4515862,415,-8263,667,-1,-1,0,0
4515867,416,-8263,671,-1,-1,0,0
4515872,420,-8266,675,-1,-1,0,0
4515877,422,-8269,679,-1,-1,0,0
4515882,427,-8269,674,-1,-1,0,0
4515887,433,-8268,684,-1,-1,-1,0
4515892,440,-8263,696,-1,-1,-1,0
4515897,442,-8261,700,-1,-1,-1,0
4515902,443,-8264,697,-1,-1,-1,0
4515907,439,-8266,695,-1,-1,-1,0
4515912,434,-8264,692,-1,0,-1,0
4515917,428,-8262,689,-1,0,-1,0
4515922,419,-8263,684,-1,0,-1,0
4515927,416,-8264,681,-1,0,-1,0
4515932,416,-8265,674,-1,0,-1,0
4515937,417,-8265,668,-1,0,-1,0
4515942,420,-8270,662,-1,-1,0,0
4515947,424,-8272,660,-1,-1,-1,0
4515952,427,-8272,662,-1,-1,-1,0
4515957,433,-8271,661,-1,-1,-1,0
4515962,434,-8269,666,-1,-1,-1,0
4515967,433,-8266,668,0,-1,-1,0
4515972,430,-8267,671,-1,-1,-1,0
4515977,425,-8267,677,0,-1,-1,0
4515982,420,-8269,676,0,-1,-1,0
4515987,417,-8269,669,-1,-1,-1,0
4515992,413,-8270,668,0,-1,-1,0
4515997,409,-8269,662,0,-1,-1,0
4516002,408,-8268,657,0,-1,-1,0
4516007,408,-8267,656,0,-1,-1,0
4516012,410,-8267,654,0,-1,-1,0
4516017,418,-8265,653,0,-1,-1,0
4516022,426,-8264,657,0,-1,-1,0
4516027,435,-8263,659,0,-1,-1,0
4516032,445,-8265,663,-1,-1,-1,0
4516037,454,-8264,662,0,-1,-1,0
4516042,459,-8266,661,0,-1,-1,0
4516047,460,-8267,663,0,-1,-1,0
4516052,459,-8265,671,0,-1,-1,0
4516057,455,-8263,670,0,-1,-1,0
4516062,449,-8263,664,0,-1,-1,0
4516067,442,-8263,656,0,-1,-1,0
4516072,436,-8265,653,0,-1,-1,0
4516077,434,-8265,651,0,-1,-1,0
4516082,431,-8267,650,0,-1,-1,0
4516087,434,-8265,650,0,-1,-1,0
4516092,442,-8266,650,-1,-1,-1,0
4516097,449,-8267,654,-1,-1,-1,0
4516102,459,-8267,663,0,-1,-1,0
4516107,470,-8267,674,0,-1,-1,0
4516112,479,-8267,686,0,-1,-1,0
4516117,489,-8265,698,0,-1,-1,0
4516122,498,-8265,705,0,-1,-1,0
4516127,503,-8264,707,0,-1,-1,0
4516132,503,-8264,704,0,-1,-1,0
4516137,499,-8263,698,0,0,-1,0
4516142,493,-8262,691,0,0,-1,0
4516147,490,-8263,685,0,0,-1,0
4516152,484,-8263,678,-1,0,-1,0
4516157,478,-8265,677,0,-1,-1,0
4516162,471,-8265,679,0,-1,-1,0
4516167,465,-8265,679,0,-1,-1,0
4516172,462,-8265,675,0,-1,-1,0
4516177,465,-8264,676,0,-1,-1,0
4516182,470,-8263,678,0,-1,-1,0
4516187,477,-8265,684,0,-1,-1,0
4516192,481,-8268,687,-1,-1,-1,0
4516197,484,-8265,689,-1,0,-1,0
4516202,486,-8262,695,-1,0,-1,0
4516207,484,-8263,696,-1,0,-1,0
4516212,482,-8264,693,-1,0,-1,0
4516217,479,-8266,695,-1,0,-1,0
4516222,475,-8267,695,-1,0,0,0
4516227,475,-8266,695,-1,0,-1,0
4516232,475,-8266,698,-1,0,0,0
4516237,479,-8265,705,-1,0,0,0
4516242,488,-8266,708,-1,0,0,0
4516247,499,-8265,712,-1,0,-1,0
4516252,509,-8264,719,-1,0,0,0
4516257,515,-8266,720,-1,-1,0,0
4516262,520,-8266,727,-1,-1,0,0
4516267,528,-8267,731,-1,-1,0,0
4516272,531,-8268,730,-1,-1,0,0
4516277,535,-8269,723,-1,-1,0,0
4516282,538,-8270,714,-1,-1,0,0
4516287,538,-8270,705,-1,-1,0,0
4516292,532,-8266,695,-1,-1,0,0
4516297,526,-8264,684,-1,-1,0,0
4516302,516,-8262,676,-1,0,0,0
4516307,505,-8261,670,-1,-1,0,0
4516312,495,-8265,669,-1,-1,0,0
4516317,483,-8267,669,-1,-1,0,0
4516322,474,-8269,668,-1,0,0,0
4516327,461,-8267,668,-1,0,0,0
4516332,451,-8267,669,-1,0,0,0
4516337,447,-8264,669,-1,0,0,0
4516342,445,-8261,664,-1,0,0,0
4516347,442,-8260,656,-1,0,0,0
4516352,435,-8262,651,-1,0,0,0
4516357,434,-8263,647,-1,0,0,0
4516362,432,-8265,647,-1,0,0,0
4516367,423,-8267,641,-1,-1,0,0
4516372,412,-8270,638,-1,-1,0,0
4516377,405,-8271,631,0,-1,0,0
4516382,392,-8269,622,0,-1,-1,0
4516387,381,-8268,616,0,-1,0,0
4516392,371,-8268,608,0,-2,-1,0
4516397,360,-8266,605,0,-2,-1,7
4516402,352,-8265,598,0,-2,-1,7
4516407,350,-8266,598,0,-2,-1,7
4516412,349,-8264,591,0,-2,-1,7
4516417,356,-8263,584,0,-2,-1,7
4516422,362,-8263,579,0,-2,-1,7
4516427,365,-8263,572,0,-2,-1,7
4516432,371,-8264,562,0,-2,-1,7
4516437,379,-8265,552,0,-2,-1,7
4516442,381,-8266,545,0,-2,-1,7
4516447,380,-8267,536,0,-2,-1,7
4516452,380,-8271,516,0,-2,-1,7
4516457,379,-8271,498,0,-2,-1,7
4516462,379,-8274,485,0,-1,-1,7
4516467,386,-8273,466,0,-1,-1,7
4516472,388,-8271,444,0,0,-1,7
4516477,391,-8271,425,1,0,-1,7
4516482,395,-8270,405,1,0,-1,7
4516487,396,-8269,386,1,0,-1,7
4516492,396,-8270,368,1,0,-1,7
4516497,392,-8273,346,1,0,-1,7
4516502,386,-8272,327,1,0,-1,7
4516507,384,-8271,306,1,0,-1,7
4516512,378,-8268,280,1,0,-1,7
4516517,375,-8266,249,2,0,-1,7
4516522,370,-8266,217,2,0,-1,7
4516527,374,-8266,189,2,0,-1,7
4516532,380,-8267,170,2,0,-1,7
4516537,386,-8267,159,2,0,-1,7
4516542,389,-8268,156,2,0,-1,7
4516547,387,-8268,163,3,-1,-1,7
4516552,389,-8264,185,3,-1,-1,7
4516557,386,-8263,218,3,-1,-1,7
4516562,380,-8263,262,3,-2,-1,7
4516567,369,-8261,316,3,-4,-1,7
4516572,357,-8263,377,3,-6,-1,7
4516577,342,-8265,438,3,-7,-1,7
4516582,326,-8265,495,3,-8,-2,7
4516587,311,-8264,551,3,-10,-2,7
4516592,313,-8263,603,3,-10,-2,7
4516597,289,-8264,680,3,-10,-2,7
4516602,263,-8265,761,3,-9,-2,7
4516607,240,-8266,862,2,-7,-2,7
4516612,194,-8266,1005,2,-4,-2,7
4516617,151,-8266,1191,1,-1,-2,7
4516622,108,-8265,1394,1,3,-2,7
4516627,75,-8268,1620,0,8,-2,7
4516632,46,-8269,1870,0,12,-3,7
4516637,22,-8271,2121,-1,16,-3,7
4516642,-7,-8274,2374,-2,19,-3,7
4516647,-54,-8274,2640,-3,22,-4,7
4516652,-102,-8275,2911,-4,23,-4,7
4516657,-171,-8275,3190,-5,23,-4,7
4516662,-263,-8275,3475,-6,22,-4,7
4516667,-368,-8273,3751,-7,21,-5,7
4516672,-473,-8270,4007,-8,19,-5,7
4516677,-560,-8267,4250,-10,17,-6,7
4516682,-616,-8265,4466,-11,13,-6,7
4516687,-634,-8260,4651,-12,7,-6,7
4516692,-620,-8251,4795,-13,2,-6,7
4516697,-571,-8240,4899,-15,-3,-7,7
4516702,-491,-8229,4964,-16,-6,-7,7
4516707,-383,-8215,4981,-17,-7,-7,7
4516712,-255,-8202,4961,-18,-7,-7,7
4516717,-118,-8189,4902,-19,-6,-7,7
4516722,21,-8175,4807,-21,-3,-7,7
4516727,159,-8156,4687,-22,-1,-7,7
4516732,282,-8135,4542,-23,2,-8,7
4516737,388,-8114,4376,-24,5,-8,7
4516742,469,-8097,4179,-24,8,-8,7
4516747,529,-8082,3962,-25,11,-8,7
4516752,568,-8065,3711,-25,13,-8,7
4516757,583,-8052,3418,-26,14,-8,7
4516762,584,-8039,3100,-26,16,-8,7
4516767,573,-8029,2773,-26,18,-8,7
4516772,558,-8019,2446,-26,20,-8,7
4516777,547,-8013,2132,-27,22,-8,7
4516782,544,-8010,1841,-27,24,-9,7
4516787,553,-8004,1568,-26,24,-9,7
4516792,581,-8001,1318,-26,23,-10,7
4516797,626,-8002,1106,-26,18,-10,7
4516802,658,-8001,923,-25,12,-10,7
4516807,675,-8002,756,-25,5,-10,7
4516812,678,-8012,604,-25,0,-9,7
4516817,682,-8022,443,-26,-4,-8,7
4516822,717,-8035,241,-26,-6,-7,7
4516827,843,-8045,9,-26,-7,-6,7
4516832,1077,-8038,-215,-26,-6,-5,7
4516837,1408,-8030,-422,-25,-2,-4,7
4516842,1762,-8025,-570,-23,-1,-3,7
4516847,2057,-8023,-678,-23,-2,-2,7
4516852,2300,-8021,-776,-22,-3,-1,7
4516857,2528,-8018,-909,-22,-1,1,7
4516862,2755,-8014,-1080,-22,3,2,7
4516867,2979,-8016,-1241,-22,7,3,7
4516872,3196,-8018,-1369,-21,13,3,7
4516877,3429,-8014,-1485,-21,18,2,7
4516882,3705,-8000,-1625,-21,21,2,7
4516887,4099,-8009,-2041,-19,19,3,7
4516892,4367,-8014,-2402,-16,11,6,7
4516897,4469,-8023,-2641,-15,0,7,7
4516902,4497,-8030,-2894,-15,-3,8,7
4516907,4509,-8037,-3148,-15,-2,8,7
4516912,4459,-8046,-3304,-14,2,9,7
4516917,4344,-8051,-3339,-14,5,10,7
4516922,4244,-8057,-3288,-14,9,12,7
4516927,4173,-8061,-3172,-13,13,13,7
4516932,4118,-8065,-3017,-12,15,14,7
4516937,4103,-8066,-2847,-11,15,15,7
4516942,4112,-8063,-2708,-10,14,16,7
4516947,4130,-8056,-2612,-9,12,17,7
4516952,4153,-8053,-2579,-8,10,18,7
4516957,4160,-8052,-2606,-7,9,19,7
4516962,4140,-8045,-2656,-7,8,20,7
4516967,4090,-8042,-2707,-6,8,21,7
4516972,4015,-8040,-2766,-6,10,22,7
4516977,3916,-8036,-2820,-5,11,23,7
4516982,3789,-8031,-2852,-5,13,23,7
4516987,3643,-8023,-2862,-4,16,24,7
4516992,3495,-8015,-2878,-3,18,25,7
4516997,3356,-8002,-2911,-2,21,26,7
4517002,3221,-7992,-2963,-1,23,27,7
4517007,3091,-7979,-3029,-1,24,27,7
4517012,2978,-7968,-3106,0,24,28,7
4517017,2860,-7958,-3201,1,23,28,7
4517022,2732,-7943,-3302,2,23,29,7
4517027,2604,-7932,-3387,3,23,29,7
4517032,2462,-7923,-3460,3,24,30,7
4517037,2309,-7910,-3519,4,25,30,7
4517042,2152,-7898,-3551,5,24,30,7
4517047,1990,-7887,-3568,6,23,31,7
4517052,1832,-7873,-3599,6,21,31,7
4517057,1680,-7859,-3621,7,19,31,7
4517062,1523,-7845,-3649,8,17,31,7
4517067,1361,-7829,-3694,9,17,31,7
4517072,1198,-7816,-3742,10,17,31,7
4517077,1026,-7804,-3813,11,18,31,7
4517082,838,-7793,-3893,12,18,31,7
4517087,631,-7783,-3965,13,19,31,7
4517092,422,-7774,-4043,14,19,30,7
4517097,208,-7765,-4104,15,19,29,7
4517102,-36,-7759,-4137,15,16,28,7
4517107,-432,-7753,-4146,16,12,28,7
4517112,-950,-7747,-4068,17,6,27,7
4517117,-1470,-7746,-3958,18,3,27,7
4517122,-1992,-7746,-3857,19,4,27,7
4517127,-2450,-7748,-3699,20,3,27,7
4517132,-2813,-7753,-3543,22,3,27,7
4517137,-3004,-7756,-3432,23,1,26,7
4517142,-3060,-7760,-3419,25,-3,26,7
4517147,-3024,-7761,-3508,27,-11,25,7
4517152,-2973,-7763,-3666,28,-19,23,7
4517157,-2990,-7768,-3870,29,-25,21,7
4517162,-3078,-7773,-4057,30,-28,19,7
4517167,-3262,-7774,-4183,30,-28,18,7
4517172,-3547,-7773,-4159,30,-24,17,7
4517177,-3845,-7764,-3997,31,-19,15,7
4517182,-4095,-7749,-3744,31,-12,14,7
4517187,-4333,-7736,-3382,32,-9,13,7
4517192,-4541,-7726,-2979,33,-10,12,7
4517197,-4686,-7714,-2614,35,-15,10,7
4517202,-4805,-7705,-2314,36,-22,9,7
4517207,-4915,-7701,-2090,37,-32,8,7
4517212,-5009,-7701,-1970,38,-40,6,7
4517217,-5090,-7702,-1921,38,-45,4,7
4517222,-5176,-7701,-1887,38,-48,3,7
4517227,-5255,-7700,-1849,38,-47,1,7
4517232,-5324,-7694,-1751,38,-43,-1,7
4517237,-5372,-7682,-1564,38,-38,-3,7
4517242,-5355,-7668,-1335,38,-34,-4,7
4517247,-5305,-7649,-1090,38,-35,-5,7
4517252,-5219,-7630,-840,39,-39,-7,7
4517257,-5125,-7612,-615,39,-43,-8,7
4517262,-5091,-7607,-328,39,-48,-10,7
4517267,-5091,-7602,-16,38,-49,-12,7
4517272,-5094,-7588,235,38,-46,-14,7
4517277,-5081,-7571,442,38,-43,-15,7
4517282,-5045,-7566,681,38,-40,-15,7
4517287,-4969,-7566,963,38,-39,-16,7
4517292,-4815,-7559,1204,37,-39,-18,7
4517297,-4663,-7548,1423,36,-40,-20,7
4517302,-4550,-7539,1692,35,-42,-21,7
4517307,-4486,-7530,2017,34,-43,-23,7
4517312,-4469,-7528,2340,33,-43,-25,7
4517317,-4481,-7522,2646,32,-42,-26,7
4517322,-4507,-7517,2939,32,-40,-27,7
4517327,-4478,-7511,3189,32,-38,-27,7
4517332,-4364,-7502,3365,31,-38,-28,7
4517337,-4179,-7495,3464,30,-40,-29,7
4517342,-3928,-7489,3504,29,-45,-30,7
4517347,-3649,-7483,3511,28,-52,-31,7
4517352,-3388,-7474,3526,27,-58,-33,7
4517357,-3154,-7469,3570,26,-64,-34,7
4517362,-2932,-7450,3495,25,-68,-35,7
4517367,-2738,-7443,3499,25,-74,-35,7
4517372,-2595,-7462,3851,23,-81,-36,7
4517377,-2472,-7464,3998,19,-79,-36,7
4517382,-2334,-7437,4151,17,-79,-36,7
4517387,-2234,-7437,4474,17,-79,-36,7
4517392,-2074,-7439,4732,15,-79,-36,7
4517397,-1828,-7424,4903,14,-80,-35,7
4517402,-1456,-7410,4976,13,-81,-35,7
4517407,-1003,-7411,5111,12,-80,-36,7
4517412,-575,-7408,5245,11,-79,-36,7
4517417,-83,-7406,5318,10,-79,-37,7
4517422,377,-7415,5327,9,-80,-38,7
4517427,759,-7430,5311,8,-82,-38,7
4517432,1054,-7449,5276,6,-82,-39,7
4517437,1228,-7463,5238,5,-80,-38,7
4517442,1349,-7482,5205,3,-76,-38,7
4517447,1446,-7499,5204,2,-69,-37,7
4517452,1532,-7511,5221,1,-64,-36,7
4517457,1647,-7520,5232,-1,-61,-36,7
4517462,1793,-7527,5224,-2,-61,-35,7
4517467,1954,-7535,5196,-3,-62,-34,7
4517472,2099,-7538,5103,-4,-65,-34,7
4517477,2208,-7549,4951,-4,-68,-34,7
4517482,2354,-7572,4873,-5,-72,-33,7
4517487,2472,-7591,4794,-7,-69,-32,7
4517492,2554,-7600,4717,-9,-63,-31,7
4517497,2624,-7605,4710,-10,-57,-31,7
4517502,2730,-7615,4769,-11,-51,-30,7
4517507,2866,-7620,4873,-12,-43,-30,7
4517512,2967,-7625,4976,-13,-38,-29,7
4517517,3080,-7626,5082,-14,-37,-28,7
4517522,3186,-7625,5167,-15,-36,-28,7
4517527,3267,-7625,5222,-16,-35,-27,7
4517532,3338,-7628,5244,-17,-34,-26,7
4517537,3393,-7635,5241,-19,-31,-25,7
4517542,3437,-7638,5217,-20,-27,-25,7
4517547,3488,-7640,5173,-21,-22,-24,7
4517552,3556,-7641,5136,-22,-15,-23,7
4517557,3635,-7640,5104,-23,-9,-22,7
4517562,3701,-7637,5092,-25,-4,-21,7
4517567,3743,-7633,5096,-26,-1,-21,7
4517572,3815,-7628,5108,-27,2,-21,7
4517577,4071,-7620,5115,-28,7,-19,7
4517582,4322,-7610,5086,-28,16,-16,7
4517587,4584,-7604,5040,-29,18,-15,7
4517592,4893,-7597,4963,-30,16,-14,7
4517597,5190,-7587,4838,-31,19,-13,7
4517602,5418,-7579,4725,-32,25,-13,7
4517607,5558,-7571,4637,-33,30,-12,7
4517612,5644,-7566,4537,-34,36,-11,7
4517617,5674,-7559,4432,-35,45,-10,7
4517622,5658,-7551,4347,-36,52,-9,7
4517627,5647,-7543,4250,-37,58,-8,7
4517632,5651,-7533,4132,-37,63,-6,7
4517637,5682,-7521,4004,-38,66,-5,7
4517642,5760,-7512,3856,-38,67,-4,7
4517647,5861,-7499,3695,-39,66,-3,7
4517652,5967,-7486,3525,-39,65,-2,7
4517657,6082,-7476,3358,-40,64,-1,7
4517662,6181,-7464,3200,-40,63,0,7
4517667,6252,-7452,3053,-41,63,1,7
4517672,6302,-7439,2923,-41,63,2,7
4517677,6325,-7427,2803,-42,64,3,7
4517682,6334,-7417,2697,-42,66,4,7
4517687,6346,-7407,2590,-42,68,5,7
4517692,6349,-7397,2493,-43,69,6,7
4517697,6344,-7383,2403,-43,68,7,7
4517702,6325,-7371,2303,-43,68,8,7
4517707,6280,-7353,2196,-44,67,9,7
4517712,6219,-7336,2092,-44,66,10,7
4517717,6145,-7320,1961,-44,66,11,7
4517722,6144,-7303,1730,-44,68,12,7
4517727,6185,-7289,1439,-43,71,14,7
4517732,6234,-7272,1140,-42,73,16,7
4517737,6300,-7266,888,-40,73,17,7
4517742,6372,-7253,624,-40,73,18,7
4517747,6444,-7244,355,-39,72,18,7
4517752,6466,-7242,126,-39,69,18,7
4517757,6410,-7241,-167,-39,65,18,7
4517762,6302,-7243,-524,-40,60,19,7
4517767,6135,-7250,-904,-40,57,20,7
4517772,5927,-7258,-1286,-40,58,21,7
4517777,5693,-7262,-1628,-39,61,22,7
4517782,5464,-7270,-1931,-38,66,23,7
4517787,5262,-7291,-2196,-38,71,23,7
4517792,5081,-7308,-2410,-37,74,24,7
4517797,4908,-7329,-2563,-37,72,24,7
4517802,4711,-7336,-2819,-36,67,25,7
4517807,4485,-7354,-3162,-34,60,25,7
4517812,4228,-7384,-3431,-32,52,25,7
4517817,3934,-7411,-3677,-31,50,25,7
4517822,3653,-7441,-3961,-30,51,26,7
4517827,3406,-7470,-4235,-28,53,26,7
4517832,3197,-7503,-4455,-27,54,26,7
4517837,3004,-7536,-4746,-26,56,27,7
4517842,2821,-7565,-5037,-25,58,27,7
4517847,2684,-7593,-5231,-23,59,27,7
4517852,2587,-7619,-5413,-22,59,27,7
4517857,2354,-7635,-5724,-20,57,27,7
4517862,2055,-7659,-5993,-17,49,25,7
4517867,1790,-7690,-6267,-14,40,24,7
4517872,1440,-7727,-6692,-13,32,23,7
4517877,1044,-7769,-7029,-10,25,23,7
4517882,606,-7812,-7326,-9,21,23,7
4517887,184,-7851,-7597,-7,21,22,7
4517892,-183,-7884,-7731,-5,23,21,7
4517897,-524,-7919,-7792,-3,23,20,7
4517902,-806,-7948,-7792,-1,18,19,7
4517907,-1049,-7974,-7723,1,11,18,7
4517912,-1306,-7996,-7608,4,4,18,7
4517917,-1560,-8017,-7461,6,-1,17,7
4517922,-1776,-8037,-7291,8,-4,17,7
4517927,-1936,-8053,-7124,10,-6,16,7
4517932,-2022,-8068,-6956,12,-7,16,7
4517937,-2059,-8077,-6795,14,-6,15,7
4517942,-2008,-8079,-6648,16,-4,15,7
4517947,-1867,-8080,-6523,17,-2,14,7
4517952,-1686,-8078,-6401,19,-3,13,7
4517957,-1506,-8074,-6271,21,-6,12,7
4517962,-1370,-8070,-6158,22,-8,12,7
4517967,-1265,-8066,-6030,24,-10,11,7
4517972,-1189,-8054,-5885,25,-12,10,7
4517977,-1154,-8038,-5727,26,-13,10,7
4517982,-1122,-8018,-5543,28,-12,10,7
4517987,-1077,-7998,-5343,29,-8,10,7
4517992,-1014,-7977,-5128,30,-2,10,7
4517997,-907,-7965,-4891,31,3,9,7
4518002,-771,-7952,-4637,32,7,9,7
4518007,-622,-7935,-4363,33,8,9,7
4518012,-471,-7917,-4084,34,6,9,7
4518017,-337,-7899,-3792,35,4,8,7
4518022,-215,-7878,-3518,36,2,8,7
4518027,-85,-7855,-3241,36,-2,8,7
4518032,40,-7830,-2977,37,-5,8,7
4518037,157,-7822,-2711,37,-11,9,7
4518042,249,-7798,-2445,38,-18,9,7
4518047,270,-7772,-2182,38,-22,8,7
4518052,249,-7751,-1875,38,-22,8,7
4518057,210,-7737,-1524,38,-19,7,7
4518062,162,-7726,-1144,37,-14,7,7
4518067,179,-7710,-796,36,-11,6,7
4518072,272,-7687,-527,36,-10,6,7
4518077,417,-7659,-347,37,-9,7,7
4518082,453,-7646,-146,38,-11,8,7
4518087,238,-7663,267,38,-18,7,7
4518092,-60,-7703,976,36,-21,5,7
4518097,-405,-7718,1690,31,-11,3,7
4518102,-696,-7723,2178,29,0,3,7
4518107,-951,-7709,2681,28,6,3,7
4518112,-1372,-7735,3509,29,5,5,7
4518117,-1590,-7754,4201,28,1,6,7
4518122,-1568,-7768,4625,28,-5,6,7
4518127,-1434,-7800,4950,27,-14,7,7
4518132,-1191,-7834,5070,26,-26,6,7
4518137,-894,-7862,5048,24,-38,6,7
4518142,-580,-7890,5093,22,-42,4,7
4518147,-342,-7915,5164,20,-35,2,7
4518152,-180,-7930,5313,18,-28,0,7
4518157,-118,-7952,5597,16,-21,-1,7
4518162,-221,-7975,5949,15,-16,-1,7
4518167,-380,-7993,6297,14,-17,-1,7
4518172,-548,-8014,6584,13,-19,-1,7
4518177,-700,-8037,6770,12,-20,0,7
4518182,-678,-8059,6796,11,-22,1,7
4518187,-510,-8078,6680,9,-23,1,7
4518192,-274,-8100,6483,8,-23,1,7
4518197,8,-8116,6187,6,-23,1,7
4518202,269,-8129,5869,5,-21,0,7
4518207,413,-8145,5611,3,-17,-1,7
4518212,453,-8155,5384,2,-13,-2,7
4518217,400,-8163,5233,0,-9,-2,7
4518222,248,-8170,5162,0,-5,-2,7
4518227,108,-8174,5080,-1,-4,-1,7
4518232,15,-8180,4958,-1,-4,-1,7
4518237,-23,-8187,4797,-1,-8,0,7
4518242,49,-8188,4553,-2,-13,0,7
4518247,188,-8190,4241,-2,-17,0,7
4518252,354,-8192,3892,-3,-20,0,7
4518257,505,-8194,3536,-3,-21,0,7
4518262,606,-8197,3208,-4,-20,-1,7
4518267,638,-8196,2934,-4,-17,-1,7
4518272,602,-8197,2705,-4,-13,-1,7
4518277,537,-8195,2518,-5,-8,-1,7
4518282,432,-8194,2387,-5,-5,-1,7
4518287,316,-8193,2286,-5,-3,-1,7
4518292,241,-8195,2170,-4,-4,0,7
4518297,205,-8196,2028,-4,-5,0,7
4518302,216,-8196,1855,-4,-8,0,7
4518307,269,-8196,1654,-4,-11,0,7
4518312,314,-8199,1438,-3,-13,0,7
4518317,342,-8201,1227,-3,-12,-1,7
4518322,358,-8202,1032,-3,-10,-1,7
4518327,348,-8206,877,-3,-8,-1,7
4518332,303,-8210,773,-3,-7,-1,7
4518337,249,-8213,699,-3,-4,-1,7
4518342,198,-8212,665,-3,-2,-1,7
4518347,145,-8211,669,-3,0,-1,7
4518352,121,-8211,676,-2,0,-1,7
4518357,119,-8211,682,-2,-1,-1,7
4518362,130,-8210,674,-2,-2,-1,7
4518367,157,-8211,639,-1,-3,-1,7
4518372,194,-8212,595,-1,-4,-1,7
4518377,225,-8214,558,-1,-5,-1,7
4518382,244,-8212,533,-1,-5,-1,7
4518387,245,-8211,531,-1,-4,-2,7
4518392,242,-8209,557,-1,-2,-2,7
4518397,242,-8207,617,-1,-1,-2,0
4518402,244,-8208,706,-1,-2,-2,0
4518407,254,-8206,793,-1,-3,-1,0
4518412,273,-8204,876,-1,-4,-1,0
4518417,312,-8204,956,-1,-4,-1,0
4518422,371,-8204,1016,0,-5,-1,0
4518427,440,-8206,1065,0,-6,-1,0
4518432,513,-8210,1101,-1,-6,-1,0
4518437,573,-8210,1139,-1,-6,-1,0
4518442,618,-8211,1181,-1,-5,-1,0
4518447,640,-8211,1224,-1,-3,-1,0
4518452,645,-8210,1277,-1,-1,-1,0
4518457,642,-8211,1332,-1,1,-1,0
4518462,629,-8212,1392,-1,2,-1,0
4518467,623,-8213,1440,-1,2,-1,0
4518472,627,-8214,1480,-1,1,-1,0
4518477,630,-8213,1492,-1,0,-1,0
4518482,642,-8213,1478,-1,-1,0,0
4518487,659,-8212,1456,-1,-1,0,0
4518492,675,-8211,1409,-2,0,0,0
4518497,686,-8212,1369,-2,-1,0,0
4518502,683,-8213,1329,-2,0,0,0
4518507,668,-8213,1293,-2,0,0,0
4518512,646,-8215,1265,-2,1,0,0
4518517,623,-8214,1239,-2,3,0,0
4518522,604,-8213,1218,-2,3,0,0
4518527,592,-8214,1213,-2,3,0,0
4518532,586,-8213,1186,-2,3,0,0
4518537,580,-8214,1165,-1,2,0,0
4518542,578,-8214,1138,-1,1,0,0
4518547,578,-8213,1106,-1,1,0,0
4518552,572,-8217,1087,-1,1,0,0
4518557,572,-8215,1078,-1,1,0,0
4518562,575,-8215,1070,-2,2,0,0
4518567,574,-8217,1079,-2,3,0,0
4518572,583,-8219,1095,-2,3,0,0
4518577,594,-8218,1107,-1,3,0,0
4518582,599,-8217,1120,-1,3,0,0
4518587,604,-8216,1134,-1,2,0,0
4518592,607,-8216,1142,-1,2,1,0
4518597,609,-8215,1154,-1,1,1,0
4518602,604,-8214,1159,-1,1,1,0
4518607,592,-8211,1164,-1,0,1,0
4518612,572,-8211,1174,-1,-1,1,0
4518617,545,-8211,1180,-1,-1,1,0
4518622,513,-8210,1192,-1,-2,1,0
4518627,476,-8212,1199,-1,-2,1,0
4518632,440,-8212,1201,-1,-2,0,0
4518637,403,-8212,1198,-1,-2,1,0
4518642,367,-8212,1188,-1,-2,0,0
4518647,336,-8215,1176,-1,-3,0,0
4518652,310,-8221,1171,-1,-4,0,0
4518657,291,-8223,1169,-1,-5,0,0
4518662,277,-8222,1166,-2,-6,0,0
4518667,268,-8225,1182,-2,-7,0,0
4518672,272,-8225,1205,-2,-9,0,0
4518677,274,-8225,1227,-2,-10,0,0
4518682,277,-8225,1249,-2,-12,0,0
4518687,278,-8223,1272,-2,-14,0,0
4518692,278,-8222,1299,-2,-16,0,0
4518697,282,-8219,1319,-2,-17,0,0
4518702,287,-8221,1337,-2,-18,0,0
4518707,295,-8220,1351,-2,-18,0,0
4518712,305,-8220,1363,-2,-19,0,0
4518717,320,-8218,1369,-2,-20,0,0
4518722,336,-8219,1372,-2,-20,0,0
4518727,354,-8219,1373,-2,-22,0,0
4518732,367,-8220,1378,-2,-23,0,0
4518737,380,-8222,1380,-2,-24,0,0
4518742,390,-8224,1376,-2,-24,0,0
4518747,399,-8222,1369,-2,-23,0,0
4518752,410,-8219,1355,-2,-22,0,0
4518757,421,-8217,1334,-2,-20,0,0
4518762,435,-8217,1303,-2,-17,0,0
4518767,448,-8218,1267,-3,-15,0,0
4518772,461,-8219,1229,-3,-13,0,0
4518777,473,-8218,1195,-3,-10,0,0
4518782,487,-8218,1168,-3,-8,0,0
4518787,496,-8219,1147,-3,-7,0,0
4518792,500,-8219,1139,-3,-6,0,0
4518797,500,-8220,1135,-3,-5,0,0
4518802,489,-8219,1130,-3,-4,0,0
4518807,481,-8222,1126,-3,-3,0,0
4518812,471,-8223,1117,-3,-2,0,0
4518817,464,-8223,1112,-3,-2,0,0
4518822,463,-8223,1103,-3,-2,0,0
4518827,465,-8219,1091,-3,-3,0,0
4518832,465,-8219,1085,-3,-3,0,0
4518837,459,-8220,1079,-3,-2,0,0
4518842,448,-8220,1086,-3,-2,0,0
4518847,428,-8220,1092,-3,-1,0,0
4518852,402,-8219,1095,-3,0,0,0
4518857,387,-8220,1100,-3,0,0,0
4518862,363,-8219,1112,-3,2,0,0
4518867,346,-8219,1121,-3,2,0,0
4518872,330,-8220,1132,-3,0,0,0
4518877,293,-8222,1138,-3,-1,0,0
4518882,250,-8225,1133,-3,0,0,0
4518887,220,-8225,1131,-3,2,0,0
4518892,211,-8228,1131,-3,4,0,0
4518897,214,-8229,1133,-3,6,0,0
4518902,231,-8230,1138,-3,8,0,0
4518907,256,-8230,1142,-3,9,0,0
4518912,283,-8225,1155,-3,9,-1,0
4518917,302,-8224,1166,-3,9,-1,0
4518922,310,-8226,1185,-3,8,-1,0
4518927,312,-8226,1202,-3,8,-1,0
4518932,305,-8229,1218,-3,7,-1,0
4518937,296,-8230,1228,-3,6,-1,0
4518942,289,-8229,1232,-4,5,-1,0
4518947,291,-8230,1229,-4,4,-1,0
4518952,294,-8233,1217,-4,3,-1,0
4518957,305,-8234,1206,-4,2,-1,0
4518962,319,-8234,1191,-4,1,-1,0
4518967,333,-8234,1175,-4,0,-1,0
4518972,340,-8234,1153,-4,-2,-1,0
4518977,339,-8234,1137,-4,-3,-1,0
4518982,331,-8234,1120,-4,-3,-1,0
4518987,320,-8236,1111,-4,-4,-1,0
4518992,312,-8236,1104,-4,-3,-1,0
4518997,310,-8236,1104,-4,-3,-1,0
4519002,322,-8238,1108,-4,-3,-1,0
4519007,341,-8241,1111,-4,-3,-1,0
4519012,370,-8239,1115,-4,-2,-1,0
4519017,402,-8233,1115,-4,-3,-1,0
4519022,428,-8231,1114,-4,-3,-1,0
4519027,446,-8230,1114,-4,-4,-1,0
4519032,449,-8231,1108,-4,-5,-1,0
4519037,444,-8230,1100,-4,-5,-1,0
4519042,434,-8230,1088,-4,-5,-1,0
4519047,421,-8229,1077,-4,-5,-1,0
4519052,408,-8232,1064,-4,-5,-1,0
4519057,402,-8234,1047,-4,-4,-1,0
4519062,400,-8236,1025,-4,-3,-1,0
4519067,401,-8236,999,-4,-3,-1,0
4519072,403,-8239,969,-4,-2,-1,0
4519077,408,-8238,938,-4,-2,-1,0
4519082,410,-8238,917,-4,-2,-1,0
4519087,407,-8239,903,-4,-3,-1,0
4519092,403,-8240,892,-4,-3,-1,0
4519097,398,-8237,884,-4,-3,-1,0
4519102,399,-8235,883,-4,-3,-2,0
4519107,385,-8236,866,-4,-3,-1,0
4519112,389,-8233,861,-4,-4,-1,0
4519117,388,-8233,841,-4,-4,-1,0
4519122,395,-8236,826,-4,-5,-1,0
4519127,409,-8237,808,-4,-5,-1,0
4519132,426,-8237,781,-4,-5,-1,0
4519137,450,-8237,757,-4,-5,-1,0
4519142,472,-8237,735,-3,-4,-1,0
4519147,491,-8239,710,-3,-4,-1,0
4519152,504,-8239,686,-3,-4,-1,0
4519157,508,-8241,671,-3,-4,-1,0
4519162,508,-8241,660,-3,-3,-1,0
4519167,504,-8242,646,-3,-2,-1,0
4519172,499,-8241,629,-3,-1,-1,0
4519177,501,-8244,619,-3,0,-1,0
4519182,509,-8244,606,-3,1,-1,0
4519187,519,-8242,597,-3,1,-1,0
4519192,526,-8240,584,-3,0,-1,0
4519197,525,-8243,561,-2,0,-1,0
4519202,510,-8244,543,-2,0,-1,0
4519207,494,-8248,523,-2,0,-1,0
4519212,478,-8249,497,-2,0,-1,0
4519217,458,-8249,477,-2,0,-1,0
4519222,444,-8249,463,-2,0,-1,0
4519227,433,-8251,443,-2,0,-1,0
4519232,428,-8251,432,-2,0,-1,0
4519237,429,-8251,419,-1,0,-1,0
4519242,434,-8250,414,-1,0,-1,0
4519247,440,-8250,414,-1,-1,-1,0
4519252,445,-8248,411,-1,-2,-1,0
4519257,449,-8246,407,-1,-2,-1,0
4519262,457,-8246,413,-1,-2,-1,0
4519267,463,-8247,421,-1,-2,-1,0
4519272,475,-8247,426,-1,-2,-1,0
4519277,492,-8246,436,0,-2,-1,0
4519282,508,-8246,451,0,-2,-1,0
4519287,522,-8245,462,0,-2,-1,0
4519292,529,-8246,476,0,-2,-1,0
4519297,527,-8246,492,0,-2,-1,0
4519302,514,-8249,515,0,-2,-1,0
4519307,503,-8252,536,0,-1,-1,0
4519312,493,-8254,552,0,-1,-1,0
4519317,480,-8252,570,0,-1,-1,0
4519322,465,-8252,587,0,-1,-1,0
4519327,461,-8253,603,0,-1,-1,0
4519332,463,-8254,615,0,-1,-1,0
4519337,463,-8253,623,0,-1,-1,0
4519342,461,-8252,634,0,-1,-1,0
4519347,455,-8253,644,1,-2,-1,0
4519352,443,-8255,661,0,-2,-1,0
4519357,434,-8256,682,0,-2,-1,0
4519362,431,-8258,706,1,-2,-2,0
4519367,430,-8256,727,1,-2,-1,0
4519372,438,-8255,749,1,-2,-1,0
4519377,452,-8255,774,1,-3,-1,0
4519382,470,-8255,795,0,-3,-1,0
4519387,492,-8256,812,0,-3,-1,0
4519392,512,-8256,833,0,-3,-1,0
4519397,530,-8255,858,0,-3,-1,0
4519402,548,-8255,890,0,-3,-1,0
4519407,567,-8252,920,0,-2,-1,0
4519412,582,-8247,952,0,-2,-1,0
4519417,595,-8243,984,0,-2,-1,0
4519422,606,-8241,1010,0,-2,-1,0
4519427,613,-8238,1034,0,-2,-1,0
4519432,617,-8235,1051,0,-2,-1,0
4519437,616,-8238,1058,0,-2,-1,0
4519442,615,-8237,1065,0,-2,-1,0
4519447,616,-8237,1069,0,-2,-1,0
4519452,617,-8237,1071,0,-2,-1,0
4519457,622,-8238,1075,0,-2,-1,0
4519462,632,-8237,1079,0,-1,-1,0
4519467,645,-8241,1086,-1,0,-1,0
4519472,662,-8244,1099,-1,-1,-1,0
4519477,674,-8246,1111,-1,-1,-1,0
4519482,683,-8246,1124,-1,-2,-1,0
4519487,688,-8247,1138,-1,-2,-1,0
4519492,686,-8248,1149,-1,-3,-1,0
4519497,683,-8249,1155,-1,-4,-1,0
4519502,676,-8250,1153,-1,-4,-1,0
4519507,668,-8251,1145,-1,-3,-1,0
4519512,666,-8253,1139,-1,-3,-1,0
4519517,659,-8250,1126,-1,-3,-1,0
4519522,653,-8251,1120,-1,-3,0,0
4519527,648,-8249,1118,-1,-3,0,0
4519532,642,-8248,1115,-2,-2,0,0
4519537,633,-8249,1116,-2,-2,-1,0
4519542,626,-8248,1116,-2,-2,0,0
4519547,620,-8247,1110,-2,-2,0,0
4519552,611,-8248,1105,-2,-2,0,0
4519557,600,-8247,1096,-2,-1,0,0
4519562,587,-8245,1081,-2,-2,0,0
4519567,573,-8244,1056,-2,-2,0,0
4519572,556,-8245,1024,-2,-1,0,0
4519577,541,-8244,994,-2,-1,0,0
4519582,534,-8245,968,-2,-1,0,0
4519587,527,-8246,949,-2,-1,0,0
4519592,517,-8247,929,-2,-1,-1,0
4519597,511,-8246,918,-2,-1,-1,0
4519602,507,-8245,911,-2,-1,-1,0
4519607,502,-8246,903,-2,-2,-1,0
4519612,499,-8244,898,-2,-3,-1,0
4519617,496,-8245,893,-2,-4,-1,0
4519622,492,-8246,885,-2,-4,-1,0
4519627,490,-8246,878,-2,-4,-1,0
4519632,487,-8248,864,-2,-4,-1,0
4519637,483,-8251,852,-2,-4,-1,0
4519642,481,-8255,841,-2,-4,-1,0
4519647,476,-8255,827,-2,-4,-1,0
4519652,465,-8256,812,-2,-3,-1,0
4519657,456,-8258,800,-2,-3,-1,0
4519662,450,-8257,789,-2,-2,-1,0
4519667,443,-8255,779,-2,-1,-1,0
4519672,436,-8253,771,-2,-1,-1,0
4519677,432,-8254,761,-2,0,-1,0
4519682,433,-8253,751,-2,0,-1,0
4519687,440,-8251,748,-2,1,-1,0
4519692,450,-8249,740,-2,2,-1,0
4519697,464,-8248,734,-2,3,-1,0
4519702,479,-8247,732,-2,3,-1,0
4519707,491,-8245,730,-2,3,-1,0
4519712,494,-8247,724,-2,3,-1,0
4519717,498,-8247,721,-2,3,-1,0
4519722,494,-8246,719,-1,3,-1,0
4519727,485,-8249,714,-1,2,-1,0
4519732,473,-8251,715,-1,2,-1,0
4519737,459,-8251,717,-1,1,-1,0
4519742,450,-8253,713,-1,1,-1,0
4519747,440,-8254,709,-1,0,-1,0
4519752,437,-8254,708,-1,0,-1,0
4519757,437,-8253,704,-1,-1,-1,0
4519762,442,-8253,699,-1,-2,-1,0
4519767,448,-8253,695,-1,-3,-1,0
4519772,455,-8254,694,-1,-3,-1,0
4519777,468,-8252,684,-1,-3,-1,0
4519782,479,-8251,681,-1,-2,-1,0
4519787,491,-8251,676,-1,-2,-1,0
4519792,505,-8250,673,-1,-2,-1,0
4519797,518,-8251,670,-1,-1,-1,0
4519802,528,-8253,665,-1,-1,-1,0
4519806,534,-8252,669,-1,-1,-1,0
4519811,532,-8253,673,-1,-1,-1,0
4519816,524,-8254,676,-1,-1,-1,0
4519821,516,-8255,686,-1,-1,-1,0
4519827,513,-8256,696,-1,0,-1,0
4519832,514,-8256,706,-1,0,-1,0
4519837,521,-8256,717,-1,0,-1,0
4519842,534,-8257,726,-1,0,-1,0
4519847,549,-8254,739,-1,-1,-1,0
4519852,561,-8251,754,-1,-1,-1,0
4519857,577,-8247,765,-1,-1,-1,0
4519862,594,-8247,771,-1,-1,-1,0
4519867,607,-8248,775,-1,-2,-1,0
4519871,612,-8249,781,-1,-2,-1,0
4519877,607,-8247,783,-1,-2,-1,0
4519882,600,-8250,782,-1,-2,-1,0
4519887,588,-8254,778,-1,-2,-1,0
4519892,575,-8256,776,-1,-1,-1,0
4519896,562,-8255,767,-1,-1,-1,0
4519902,555,-8254,765,-1,-1,-1,0
4519907,556,-8250,766,-1,-1,-1,0
4519912,560,-8248,770,-1,-2,-1,0
4519917,568,-8248,771,-1,-2,-1,0
4519922,577,-8248,771,-1,-2,-1,0
4519926,591,-8251,776,-1,-2,-1,0
4519931,604,-8251,781,-1,-3,-1,0
4519936,617,-8249,788,-1,-3,-1,0
4519942,630,-8248,800,-1,-3,-1,0
4519947,640,-8246,809,-1,-3,-1,0
4519952,643,-8248,816,-1,-3,-1,0
4519957,646,-8249,821,-1,-2,-1,0
4519962,649,-8251,823,-1,-2,-1,0
4519967,655,-8253,818,-1,-2,-1,0
4519972,660,-8254,818,-1,-2,-1,0
4519976,664,-8256,820,-1,-1,-1,0
4519981,666,-8256,821,-1,-1,-1,0
4519987,664,-8256,823,-1,-1,-1,0
4519992,663,-8257,828,-1,-1,-1,0
4519997,661,-8254,839,-1,0,-1,0
4520002,657,-8253,840,-1,-1,-1,0
4520007,651,-8250,844,-1,-1,-1,0
4520012,641,-8247,848,-1,-1,-1,0
4520017,631,-8246,848,-1,-1,-1,0
4520022,621,-8247,844,-1,-1,-1,0
4520027,612,-8247,837,-1,-1,-1,0
4520031,605,-8249,827,-1,-1,-1,0
4520037,600,-8255,819,-1,-1,-1,0
4520041,598,-8256,806,-1,-1,-1,0
4520047,601,-8256,796,-1,-2,-1,0
4520052,606,-8254,791,-1,-2,-1,0
4520057,612,-8254,794,-1,-2,-1,0
4520062,620,-8249,805,-1,-2,-1,0
4520067,627,-8251,816,-1,-2,-1,0
4520072,636,-8251,824,-1,-3,-1,0
4520076,651,-8251,830,-1,-3,-1,0
4520081,659,-8251,838,-1,-3,-1,0
4520086,667,-8249,840,-1,-3,-1,0
4520092,675,-8246,839,-1,-2,-1,0
4520096,676,-8248,830,-1,-2,-1,0
4520102,673,-8249,823,-1,-2,-1,0
4520107,670,-8251,821,-1,-1,-1,0
4520112,664,-8250,817,-1,-1,-1,0
4520116,657,-8249,811,-1,0,-1,0
4520122,652,-8250,816,-1,0,-1,0
4520126,653,-8251,814,-1,0,0,0
4520131,658,-8251,816,-1,0,0,0
4520136,666,-8252,818,-1,0,0,0
4520142,672,-8251,819,-1,-1,-1,0
4520147,681,-8250,821,-1,-1,0,0
4520151,686,-8249,821,-1,-1,0,0
4520156,690,-8251,822,-1,-1,0,0
4520162,694,-8253,822,-1,-1,0,0
4520166,697,-8253,819,-1,-1,0,0
4520172,701,-8255,822,-1,-1,0,0
4520177,701,-8256,820,-1,-1,0,0
4520181,703,-8258,826,-1,-1,0,0
4520187,705,-8259,832,-1,-1,0,0
4520191,704,-8259,834,-1,-1,0,0
4520196,699,-8261,834,-1,-1,0,0
4520202,692,-8259,831,-1,-1,0,0
4520206,688,-8257,834,-1,-1,0,0
4520211,683,-8257,836,-1,0,0,0
4520216,677,-8255,840,-1,0,0,0
4520221,668,-8253,833,-1,0,0,0
4520226,662,-8251,827,-1,0,0,0
4520232,657,-8251,821,-1,0,0,0
4520236,650,-8251,817,-1,1,0,0
4520241,646,-8252,816,-1,1,0,0
4520246,641,-8253,815,-1,1,0,0
4520252,633,-8255,812,-1,0,0,0
4520256,624,-8257,805,-1,0,0,0
4520261,619,-8259,802,-1,0,0,0
4520266,614,-8257,795,-1,0,0,0
4520272,612,-8256,792,-1,0,0,0
4520276,615,-8255,783,-1,0,0,0
4520281,621,-8254,777,-1,0,0,0
4520286,629,-8253,773,-1,0,0,0
4520291,637,-8251,772,-1,0,0,0
4520296,645,-8253,770,-1,0,0,0
4520301,649,-8254,772,-1,0,0,0
4520306,646,-8254,770,-1,0,0,0
4520311,641,-8253,764,-1,0,0,0
4520316,628,-8252,753,-1,0,0,0
4520321,612,-8254,748,-1,1,0,0
4520326,601,-8255,742,-1,1,0,0
4520331,594,-8258,732,-1,0,0,0
4520336,587,-8257,722,-1,0,0,0
4520341,580,-8255,712,-1,0,0,0
4520346,575,-8256,702,-1,0,0,0
4520351,572,-8254,695,-1,0,0,0
4520356,573,-8254,692,-1,0,0,0
4520361,577,-8255,694,-1,0,0,0
4520366,579,-8258,695,-1,0,0,0
4520371,578,-8256,698,-1,0,0,0
4520376,575,-8255,694,-1,0,0,0
4520381,571,-8252,693,-1,0,0,0
4520386,566,-8253,691,-1,0,0,0
4520391,560,-8255,686,-1,0,0,0
4520396,553,-8256,686,-1,0,0,0
4520401,543,-8258,687,-1,0,0,0
4520406,534,-8261,682,-1,0,0,0
4520411,526,-8258,678,0,0,0,0
4520416,522,-8256,676,0,0,0,0
4520421,518,-8257,677,0,0,0,0
4520426,519,-8255,687,0,0,0,0
4520431,522,-8255,698,0,0,0,0
4520436,528,-8256,709,0,0,0,0
4520441,537,-8259,724,0,-1,0,0
4520446,545,-8258,736,0,-1,0,0
4520451,552,-8257,751,0,-1,0,0
4520456,557,-8257,761,0,-1,0,0
4520461,560,-8258,769,0,-1,0,0
4520466,558,-8257,779,0,-1,0,0
4520471,552,-8258,780,0,-1,0,0
4520476,539,-8260,778,0,-1,0,0
4520481,530,-8258,776,0,-1,0,0
4520486,519,-8258,765,0,-1,0,0
4520491,505,-8258,754,0,-1,0,0
4520496,493,-8255,747,0,-1,0,0
4520501,491,-8256,741,0,-1,0,0
4520506,493,-8257,737,0,-1,0,0
4520511,496,-8256,732,0,-1,0,0
4520516,507,-8257,730,0,-1,0,0
4520521,524,-8255,734,0,0,0,0
4520526,543,-8254,735,0,0,0,0
4520531,558,-8254,739,0,0,0,0
4520536,570,-8256,748,0,0,0,0
4520541,575,-8255,754,0,0,0,0
4520546,574,-8257,761,0,0,0,0
4520551,568,-8259,766,0,0,0,0
4520556,560,-8257,774,0,0,0,0
4520561,551,-8256,780,0,0,0,0
4520566,544,-8256,786,0,0,0,0
4520571,540,-8256,790,0,0,0,0
4520576,534,-8257,790,0,0,0,0
4520581,529,-8260,786,0,0,0,0
4520586,529,-8261,782,0,0,0,0
4520591,526,-8258,781,0,0,0,0
4520596,526,-8256,787,0,0,0,0
4520601,527,-8256,797,0,-1,0,0
4520606,531,-8257,809,0,-1,0,0
4520611,537,-8254,824,0,-1,0,0
4520616,546,-8254,829,0,-1,0,0
4520621,555,-8253,836,0,-1,0,0
4520626,564,-8253,835,0,-1,0,0
4520631,570,-8251,836,0,-1,0,0
4520636,575,-8252,830,0,-1,0,0
4520641,579,-8251,820,-1,-1,0,0
4520646,579,-8253,814,-1,0,0,0
4520651,575,-8259,811,-1,0,0,0
4520656,569,-8262,807,-1,0,0,0
4520661,562,-8262,804,0,0,0,0
4520666,557,-8264,804,-1,0,0,0
4520671,552,-8263,798,-1,0,0,0
4520676,547,-8262,791,-1,0,0,0
4520681,545,-8260,787,-1,0,0,0
4520686,547,-8263,784,-1,0,0,0
4520691,550,-8263,785,-1,0,0,0
4520696,552,-8262,789,-1,0,0,0
4520701,554,-8258,793,-1,0,0,0
4520706,555,-8255,803,-1,0,0,0
4520711,555,-8255,809,-1,0,0,0
4520716,554,-8258,817,-1,0,0,0
4520721,551,-8258,817,-1,0,0,0
4520726,547,-8258,817,-1,0,0,0
4520731,543,-8259,817,-1,0,0,0
4520736,538,-8260,809,-1,0,0,0
4520741,535,-8262,804,-1,0,0,0
4520746,531,-8263,799,-1,0,0,0
4520751,528,-8265,792,-1,0,0,0
4520756,524,-8266,783,-1,0,0,0
4520761,522,-8267,772,-1,0,0,0
4520766,518,-8264,763,-1,0,0,0
4520771,518,-8262,757,-1,0,0,0
4520776,514,-8263,753,-1,0,0,0
4520781,512,-8262,747,-1,0,0,0
4520786,512,-8263,744,-1,0,0,0
4520791,510,-8262,750,-1,0,0,0
4520796,512,-8260,750,-1,-1,0,0
4520801,516,-8260,750,-1,-1,0,0
4520806,520,-8261,753,-1,-1,0,0
4520811,524,-8260,757,-1,-1,0,0
4520816,522,-8257,755,-1,-1,0,0
4520821,519,-8257,758,-1,-1,0,0
4520826,513,-8258,758,-1,-1,0,0
4520831,510,-8256,757,-1,0,0,0
4520836,507,-8256,764,-1,0,0,0
4520841,502,-8258,773,-1,0,0,0
4520846,495,-8259,777,-1,0,0,0
4520851,493,-8257,776,-1,0,0,0
4520856,488,-8257,781,-1,-1,0,0
4520861,488,-8256,777,-1,-1,0,0
4520866,488,-8254,771,-1,-1,0,0
4520871,488,-8254,771,-1,-1,0,0
4520876,491,-8252,770,-1,-1,0,0
4520881,493,-8253,768,-1,-1,0,0
4520886,494,-8252,770,-1,-1,0,0
4520891,491,-8256,769,-1,-1,0,0
4520896,488,-8260,768,-1,-1,0,0
4520901,487,-8260,763,-1,-1,0,0
4520906,491,-8259,759,-1,-1,0,0
4520911,495,-8261,762,-1,-1,0,0
4520916,503,-8260,769,-1,0,0,0
4520921,508,-8257,776,-1,0,0,0
4520926,513,-8256,783,-1,0,0,0
4520931,517,-8255,785,-1,-1,0,0
4520936,517,-8254,785,-1,-1,0,0
4520941,515,-8256,778,-1,-1,0,0
4520946,511,-8257,775,-1,-1,0,0
4520951,508,-8256,774,-1,-1,0,0
4520956,509,-8257,776,-1,-1,0,0
4520961,509,-8259,776,-1,-1,0,0
4520966,508,-8259,777,-1,-1,0,0
4520971,511,-8258,772,-1,-1,-1,0
4520976,515,-8258,769,-1,-1,0,0
4520981,517,-8257,769,-1,-1,0,0
4520986,516,-8256,773,-1,-1,-1,0
4520991,516,-8256,779,-1,-1,-1,0
4520996,516,-8255,783,-1,-1,0,0
4521001,515,-8255,780,-1,-1,0,0
4521006,512,-8253,779,-1,-1,-1,0
4521011,509,-8253,778,-1,-1,0,0
4521016,510,-8253,777,-1,-1,0,0
4521021,514,-8255,778,-1,-1,0,0
4521026,521,-8256,775,-1,-1,-1,0
4521031,528,-8256,775,-1,-1,-1,0
4521036,534,-8253,775,-1,0,-1,0
4521041,540,-8253,776,-1,-1,0,0
4521046,545,-8255,775,-1,-1,0,0
4521051,547,-8256,774,-1,-1,0,0
4521056,550,-8255,772,-1,-1,-1,0
4521061,554,-8254,772,0,-1,0,0
4521066,556,-8255,767,0,-1,0,0
4521071,556,-8255,761,-1,-1,0,0
4521076,557,-8255,754,0,0,-1,0
4521081,554,-8257,749,0,0,0,0
4521086,546,-8255,745,0,0,-1,0
4521091,540,-8257,746,0,0,0,0
4521096,534,-8261,747,0,0,0,0
4521101,524,-8263,746,0,0,0,0
4521106,516,-8260,745,0,-1,0,0
4521111,510,-8260,749,0,-1,0,0
4521116,509,-8260,748,0,-1,0,0
4521121,512,-8260,751,0,-1,0,0
4521126,517,-8261,748,0,-1,0,0
4521131,521,-8259,744,0,-1,0,0
4521136,526,-8257,745,0,-1,0,0
4521141,532,-8254,748,0,-1,0,0
4521146,534,-8254,751,0,-1,0,0
4521151,530,-8254,753,0,-1,-1,0
4521156,527,-8255,755,0,-1,-1,0
4521161,520,-8254,763,0,0,0,0
4521166,515,-8253,771,0,0,-1,0
4521171,510,-8255,776,0,0,-1,0
4521176,510,-8255,777,0,0,-1,0
4521181,511,-8256,772,0,0,0,0
4521186,513,-8257,768,0,0,0,0
4521191,515,-8258,767,0,-1,0,0
4521196,521,-8258,773,0,-1,0,0
4521201,528,-8260,776,-1,-1,0,0
4521206,533,-8260,783,0,-1,-1,0
4521211,539,-8260,790,0,-1,0,0
4521216,547,-8258,804,-1,-1,0,0
4521221,556,-8260,811,-1,-1,0,0
4521226,565,-8258,823,-1,-1,0,0
4521231,569,-8258,827,-1,-1,0,0
4521236,570,-8258,834,-1,-1,0,0
4521241,566,-8259,831,-1,0,0,0
4521246,559,-8258,822,-1,0,0,0
4521251,547,-8260,812,0,0,0,0
4521256,536,-8262,804,-1,0,0,0
4521261,526,-8262,797,-1,0,0,0
4521266,514,-8261,788,-1,0,0,0
4521271,504,-8261,779,-1,0,0,0
4521276,499,-8258,774,-1,0,0,0
4521281,502,-8258,767,-1,0,0,0
4521286,510,-8258,762,-1,0,0,0
4521291,519,-8257,766,-1,-1,0,0
4521296,526,-8257,773,-1,-1,0,0
4521301,536,-8257,777,-1,-1,0,0
4521306,547,-8253,783,-1,-1,0,0
4521311,559,-8252,790,-1,-1,0,0
4521316,567,-8252,793,-1,-1,0,0
4521321,566,-8254,791,-1,-1,0,0
4521326,560,-8252,788,-1,-1,0,0
4521331,551,-8252,784,-1,0,0,0
4521336,542,-8249,779,-1,0,0,0
4521341,532,-8250,774,-1,0,0,0
4521346,521,-8253,765,-1,0,0,0
4521351,511,-8252,757,-1,0,0,0
4521356,505,-8248,748,-1,0,0,0
4521361,501,-8245,737,0,0,0,0
4521366,497,-8245,734,0,0,0,0
4521371,494,-8246,733,0,-1,0,0
4521376,492,-8247,732,0,-1,0,0
4521381,486,-8249,728,0,-1,0,0
4521386,485,-8249,734,0,-1,0,0
4521391,484,-8251,736,0,-1,0,0
4521396,485,-8251,743,0,-1,0,0
4521401,488,-8250,750,0,-1,-1,0
4521406,493,-8253,752,0,-1,-1,0
4521411,495,-8252,752,0,-1,-1,0
4521416,497,-8255,750,0,-1,0,0
4521421,499,-8256,748,0,-1,-1,0
4521426,496,-8254,747,0,-1,-1,0
4521431,489,-8252,746,0,-1,-1,0
4521436,483,-8254,742,0,-1,-1,0
4521441,471,-8255,739,0,-1,-1,0
4521446,454,-8253,740,0,-1,-1,0
4521451,442,-8251,739,0,-1,-1,0
4521456,435,-8250,738,0,-1,-1,0
4521461,438,-8250,740,0,-1,-1,0
4521466,443,-8252,737,0,-2,-1,0
4521471,451,-8252,739,0,-2,-1,0
4521476,464,-8251,734,0,-2,-1,0
4521481,478,-8250,736,0,-2,-1,0
4521486,489,-8252,741,0,-2,-1,0
4521491,499,-8254,746,0,-2,-1,0
4521496,504,-8257,750,0,-3,-1,0
4521501,509,-8257,751,0,-3,-1,0
4521506,512,-8257,755,0,-2,-1,0
4521511,518,-8255,764,0,-2,-1,0
4521516,522,-8256,770,0,-2,-1,0
4521521,528,-8257,773,0,-1,-1,0
4521526,528,-8257,779,0,-1,-1,0
4521531,527,-8255,784,0,-1,-1,0
4521536,526,-8251,791,0,-1,-1,0
4521541,521,-8250,795,0,-1,-1,0
4521546,515,-8248,802,0,-1,-1,0
4521551,511,-8249,803,0,-1,-1,0
4521556,510,-8251,808,0,-1,-1,0
4521561,516,-8253,808,0,-1,-1,0
4521566,521,-8255,802,0,-1,-1,0
4521571,529,-8256,804,0,-1,-1,0
4521576,541,-8257,804,0,-1,-1,0
4521581,552,-8258,808,0,-1,-1,0
4521586,562,-8256,807,0,-1,-1,0
4521591,573,-8253,809,0,-1,-1,0
4521596,580,-8254,810,0,-1,-1,0
4521601,587,-8251,814,0,-1,-1,0
4521606,595,-8250,821,0,-1,-1,0
4521611,598,-8253,827,0,-1,-1,0
4521616,600,-8255,834,0,-1,-1,0
4521621,601,-8256,841,0,-1,-1,0
4521626,598,-8253,849,0,-1,-1,0
4521631,596,-8254,851,0,-1,-1,0
4521636,595,-8254,850,0,-1,-1,0
4521641,593,-8253,851,0,-1,0,0
4521646,589,-8252,846,0,-1,0,0
4521651,587,-8254,836,0,-1,0,0
4521656,585,-8255,828,0,-1,0,0
4521661,582,-8251,817,-1,0,0,0
4521666,579,-8250,814,-1,0,0,0
4521671,578,-8254,818,-1,0,0,0
4521676,576,-8254,816,-1,0,0,0
4521681,575,-8254,818,-1,0,0,0
4521686,573,-8256,817,-1,0,0,0
4521691,569,-8256,817,-1,0,0,0
4521696,564,-8256,815,-1,0,0,0
4521701,558,-8256,814,-1,0,0,0
4521706,557,-8256,807,-1,0,0,0
4521711,552,-8255,797,-1,-1,0,0
4521716,549,-8254,785,-1,-1,0,0
4521721,547,-8255,776,-1,0,0,0
4521726,542,-8257,772,0,0,0,0
4521731,536,-8258,770,0,0,0,0
4521736,532,-8259,766,0,0,0,0
4521741,528,-8260,761,-1,0,0,0
4521746,530,-8257,757,0,0,0,0
4521751,536,-8258,755,0,-1,0,0
4521756,542,-8260,750,0,-1,0,0
4521761,543,-8263,747,0,-1,0,0
4521766,546,-8265,742,0,-1,0,0
4521771,548,-8265,742,0,-1,0,0
4521776,550,-8266,739,0,-1,0,0
4521781,555,-8266,738,0,-1,0,0
4521786,554,-8265,736,0,-1,0,0
4521791,544,-8262,735,0,0,0,0
4521796,540,-8265,740,0,0,0,0
4521801,544,-8266,745,0,0,0,0
4521806,537,-8266,748,0,0,0,0
4521811,532,-8265,756,0,-1,0,0
4521816,528,-8266,761,0,0,0,0
4521821,526,-8266,763,0,-1,0,0
4521826,524,-8266,770,0,-1,0,0
4521831,520,-8264,771,0,-1,0,0
4521836,518,-8264,777,0,-1,0,0
4521841,516,-8264,784,0,0,0,0
4521846,513,-8262,785,0,0,0,0
4521851,515,-8262,786,0,0,0,0
4521856,516,-8260,790,0,0,0,0
4521861,520,-8258,796,0,0,0,0
4521866,524,-8254,798,0,0,0,0
4521871,529,-8254,800,0,0,0,0
4521876,531,-8255,796,0,0,0,0
4521881,537,-8254,794,0,0,0,0
4521886,536,-8254,794,0,0,0,0
4521891,535,-8255,794,0,0,0,0
4521896,532,-8258,793,0,-1,0,7
4521901,525,-8259,791,0,-1,0,7
4521906,519,-8261,786,0,-1,0,7
4521911,510,-8264,775,0,-1,0,7
4521916,506,-8262,771,0,-1,0,7
4521921,498,-8262,761,0,-1,0,7
4521926,492,-8260,750,0,-1,0,7
4521931,489,-8259,741,0,-1,0,7
4521936,492,-8259,731,0,-1,0,7
4521941,501,-8260,721,0,-1,0,7
4521946,511,-8258,707,0,-2,0,7
4521951,524,-8256,688,0,-2,0,7
4521956,540,-8257,666,0,-3,0,7
4521961,552,-8255,641,0,-3,0,7
4521966,561,-8251,613,0,-3,0,7
4521971,571,-8249,585,1,-3,0,7
4521976,577,-8250,552,1,-3,0,7
4521981,579,-8251,514,1,-3,0,7
4521986,577,-8252,479,1,-2,0,7
4521991,573,-8251,438,1,-2,0,7
4521996,568,-8250,400,1,-2,0,7
4522001,559,-8252,362,1,-2,0,7
4522006,546,-8251,327,2,-2,0,7
4522011,524,-8251,290,2,-2,0,7
4522016,502,-8251,264,2,-2,0,7
4522021,477,-8250,236,2,-2,0,7
4522026,459,-8247,203,2,-3,-1,7
4522031,446,-8247,168,3,-3,-1,7
4522036,432,-8247,145,3,-5,-1,7
4522041,421,-8248,114,4,-6,-1,7
4522046,416,-8249,82,4,-7,-1,7
4522051,408,-8247,56,4,-8,-1,7
4522056,392,-8246,37,4,-9,-2,7
4522061,372,-8247,23,5,-9,-2,7
4522066,347,-8248,22,5,-10,-2,7
4522071,316,-8250,37,5,-10,-2,7
4522076,280,-8252,62,5,-11,-2,7
4522081,238,-8251,96,5,-12,-2,7
4522086,190,-8250,140,5,-14,-2,7
4522091,145,-8253,200,5,-15,-2,7
4522096,109,-8255,274,5,-15,-2,7
4522101,86,-8256,376,5,-15,-2,7
4522106,79,-8255,505,5,-13,-2,7
4522111,94,-8253,662,5,-10,-2,7
4522116,111,-8247,840,4,-7,-2,7
4522121,131,-8247,1083,4,-4,-2,7
4522126,140,-8253,1369,3,2,-2,7
4522131,134,-8256,1697,2,8,-3,7
4522136,114,-8259,2077,1,15,-3,7
4522141,48,-8263,2542,-1,23,-3,7
4522146,-31,-8265,3043,-3,31,-3,7
4522151,-131,-8265,3593,-4,38,-3,7
4522156,-247,-8265,4196,-6,41,-3,7
4522161,-362,-8260,4802,-8,42,-3,7
4522166,-460,-8252,5384,-9,40,-4,7
4522171,-516,-8244,5929,-11,35,-4,7
4522176,-531,-8233,6400,-12,26,-5,7
4522181,-515,-8220,6756,-13,15,-6,7
4522186,-475,-8207,6987,-15,5,-6,7
4522191,-435,-8193,7079,-16,-3,-7,7
4522196,-411,-8180,7052,-18,-8,-7,7
4522201,-394,-8166,6944,-20,-9,-8,7
4522206,-376,-8149,6791,-22,-6,-8,7
4522211,-335,-8129,6639,-25,0,-8,7
4522216,-268,-8108,6512,-26,6,-8,7
4522221,-181,-8078,6406,-28,11,-8,7
4522226,-80,-8049,6304,-29,15,-8,7
4522231,28,-8020,6188,-31,17,-9,7
4522236,132,-7988,6038,-31,17,-9,7
4522241,223,-7957,5829,-32,15,-9,7
4522246,299,-7925,5567,-33,15,-9,7
4522251,370,-7894,5258,-34,16,-9,7
4522256,451,-7864,4902,-35,19,-9,7
4522261,537,-7836,4523,-36,22,-9,7
4522266,624,-7813,4120,-36,24,-9,7
4522271,692,-7790,3696,-37,26,-9,7
4522276,733,-7770,3291,-37,27,-10,7
4522281,748,-7754,2905,-37,27,-10,7
4522286,760,-7733,2523,-37,26,-11,7
4522291,783,-7709,2152,-36,25,-12,7
4522296,838,-7683,1794,-34,22,-13,7
4522301,844,-7679,1353,-33,17,-13,7
4522306,757,-7714,772,-32,4,-13,7
4522311,566,-7787,145,-31,-6,-12,7
4522316,369,-7835,-603,-32,-9,-10,7
4522321,250,-7846,-1290,-33,-21,-8,7
4522326,265,-7843,-1846,-33,-15,-7,7
4522331,475,-7839,-2266,-32,2,-7,7
4522336,825,-7834,-2564,-31,13,-7,7
4522341,1221,-7835,-2803,-29,12,-7,7
4522346,1590,-7842,-2975,-27,2,-7,7
4522351,1880,-7852,-3136,-26,-7,-7,7
4522356,2128,-7868,-3276,-24,-11,-6,7
4522361,2371,-7885,-3375,-23,-12,-5,7
4522366,2594,-7905,-3454,-23,-9,-4,7
4522371,2828,-7920,-3500,-22,-5,-3,7
4522376,3067,-7935,-3509,-21,-1,-1,7
4522381,3294,-7946,-3483,-20,3,1,7
4522386,3503,-7959,-3435,-19,2,3,7
4522391,3689,-7976,-3349,-18,0,4,7
4522396,3860,-7989,-3192,-18,1,5,7
4522401,4045,-7999,-3023,-18,4,5,7
4522406,4446,-7995,-3052,-17,7,5,7
4522411,4959,-7990,-3136,-14,6,8,7
4522416,5302,-7993,-3135,-12,-3,10,7
4522421,5543,-7993,-3135,-12,-11,11,7
4522426,5751,-7998,-3201,-12,-13,12,7
4522431,5894,-8002,-3257,-12,-11,13,7
4522436,5921,-8004,-3252,-11,-8,14,7
4522441,5882,-8005,-3200,-11,-4,16,7
4522446,5826,-8002,-3125,-10,1,17,7
4522451,5720,-7999,-3031,-10,5,19,7
4522456,5618,-7993,-2929,-9,7,21,7
4522461,5542,-7983,-2850,-8,9,22,7
4522466,5471,-7973,-2790,-7,10,24,7
4522471,5438,-7963,-2758,-6,11,26,7
4522476,5428,-7949,-2778,-6,13,27,7
4522481,5410,-7932,-2829,-5,15,28,7
4522486,5380,-7915,-2889,-4,17,29,7
4522491,5299,-7895,-2976,-3,18,30,7
4522496,5159,-7876,-3083,-3,19,31,7
4522501,4958,-7857,-3203,-2,20,32,7
4522506,4700,-7837,-3332,-1,21,32,7
4522511,4410,-7812,-3448,0,21,33,7
4522516,4073,-7797,-3617,1,20,34,7
4522521,3727,-7781,-3796,2,19,35,7
4522526,3373,-7768,-3964,3,19,36,7
4522531,3038,-7754,-4137,4,20,36,7
4522536,2736,-7737,-4302,5,19,36,7
