millis,ax,ay,az,gx,gy,gz,label
98277,-5307,-5981,-981,-2,-5,3,0
98282,-5305,-5979,-995,-3,-4,3,0
98287,-5301,-5974,-1003,-3,-4,3,0
98292,-5294,-5968,-1008,-3,-4,3,0
98298,-5285,-5962,-1010,-3,-3,3,0
98302,-5279,-5956,-1014,-3,-3,3,0
98308,-5270,-5953,-1020,-3,-3,3,0
98314,-5265,-5948,-1021,-3,-2,3,0
98319,-5261,-5941,-1019,-3,-2,3,0
98323,-5260,-5932,-1014,-4,-2,3,0
98329,-5261,-5922,-1004,-4,-2,3,0
98334,-5262,-5911,-989,-4,-1,3,0
98340,-5264,-5899,-976,-4,-1,3,0
98345,-5266,-5886,-969,-4,-1,2,0
98351,-5272,-5871,-963,-4,0,2,0
98355,-5273,-5856,-953,-4,0,2,0
98360,-5281,-5843,-939,-5,-1,2,0
98365,-5295,-5831,-923,-5,-1,2,0
98371,-5309,-5820,-909,-5,0,2,0
98376,-5321,-5810,-894,-5,0,1,0
98381,-5336,-5801,-885,-5,0,1,0
98385,-5348,-5790,-875,-5,0,1,0
98391,-5356,-5780,-861,-5,0,1,0
98396,-5364,-5769,-854,-5,0,1,0
98401,-5371,-5756,-853,-5,0,0,0
98406,-5381,-5743,-847,-5,0,0,0
98411,-5392,-5730,-838,-5,-1,0,0
98416,-5400,-5717,-825,-5,-1,0,0
98421,-5411,-5704,-815,-5,-2,0,0
98426,-5423,-5694,-804,-5,-2,0,0
98431,-5432,-5689,-800,-5,-3,-1,0
98436,-5444,-5688,-795,-5,-3,-1,0
98441,-5459,-5686,-792,-5,-3,-1,0
98446,-5471,-5682,-792,-5,-3,-1,0
98452,-5475,-5679,-789,-5,-3,-1,0
98457,-5478,-5673,-779,-5,-3,-1,0
98462,-5478,-5667,-767,-5,-3,-1,0
98467,-5478,-5663,-760,-5,-3,-1,0
98471,-5475,-5656,-759,-5,-3,-1,0
98477,-5476,-5649,-758,-5,-3,-1,0
98482,-5478,-5644,-759,-5,-3,-1,0
98487,-5480,-5639,-763,-5,-3,-1,0
98493,-5482,-5638,-765,-5,-3,-1,0
98498,-5480,-5639,-764,-5,-2,-1,0
98503,-5482,-5642,-767,-5,-2,-1,0
98509,-5483,-5643,-766,-5,-2,-1,0
98514,-5484,-5645,-769,-4,-2,-1,0
98519,-5491,-5652,-770,-4,-2,-1,0
98525,-5502,-5661,-768,-4,-2,-1,0
98531,-5515,-5673,-763,-4,-2,-1,0
98535,-5528,-5686,-755,-4,-3,-1,0
98539,-5538,-5699,-750,-4,-3,-1,0
98544,-5543,-5708,-749,-4,-3,-1,0
98549,-5544,-5721,-746,-4,-3,-1,0
98554,-5544,-5737,-744,-4,-4,-1,0
98559,-5545,-5746,-740,-4,-4,-1,0
98564,-5546,-5756,-738,-4,-4,-1,0
98570,-5551,-5766,-736,-4,-5,-1,0
98575,-5552,-5775,-732,-4,-5,-1,0
98581,-5554,-5784,-730,-4,-5,-1,0
98586,-5554,-5790,-730,-4,-4,-1,0
98592,-5553,-5793,-729,-4,-4,-1,0
98598,-5551,-5796,-730,-4,-4,-1,0
98603,-5547,-5800,-731,-4,-4,-1,0
98608,-5545,-5800,-734,-4,-3,-1,0
98613,-5544,-5803,-735,-4,-3,-1,0
98617,-5547,-5811,-738,-4,-3,-1,0
98621,-5546,-5819,-742,-4,-3,-1,0
98625,-5547,-5822,-746,-4,-3,-1,0
98630,-5553,-5822,-752,-4,-3,-1,0
98634,-5557,-5821,-756,-4,-2,-1,0
98638,-5561,-5820,-756,-4,-2,-1,0
98643,-5563,-5819,-756,-4,-2,-1,0
98647,-5568,-5816,-756,-4,-3,-1,0
98651,-5574,-5813,-754,-4,-3,-1,0
98656,-5578,-5808,-756,-3,-3,-1,0
98660,-5587,-5805,-759,-3,-3,0,0
98665,-5593,-5804,-764,-3,-3,0,0
98670,-5594,-5807,-762,-3,-3,0,0
98675,-5593,-5806,-757,-3,-3,-1,0
98681,-5592,-5801,-759,-3,-3,0,0
98687,-5593,-5795,-758,-3,-2,0,0
98692,-5593,-5785,-752,-3,-2,0,0
98698,-5596,-5776,-744,-3,-2,0,0
98703,-5598,-5766,-740,-3,-2,0,0
98708,-5600,-5759,-732,-3,-2,0,0
98713,-5602,-5752,-733,-3,-2,0,0
98718,-5605,-5746,-735,-3,-2,0,0
98723,-5607,-5741,-741,-3,-1,0,0
98728,-5609,-5735,-749,-3,-1,0,0
98734,-5609,-5725,-749,-3,-1,0,0
98738,-5606,-5717,-743,-3,0,0,0
98743,-5601,-5707,-742,-3,0,0,0
98749,-5595,-5699,-743,-3,0,0,0
98754,-5594,-5696,-747,-3,0,0,0
98758,-5592,-5694,-756,-2,0,0,0
98763,-5586,-5691,-765,-2,0,0,0
98768,-5581,-5690,-768,-2,0,0,0
98773,-5573,-5692,-769,-2,0,0,0
98778,-5574,-5690,-760,-2,0,0,0
98782,-5578,-5684,-753,-2,0,0,0
98787,-5583,-5681,-749,-2,0,0,0
98792,-5585,-5679,-745,-2,0,0,0
98797,-5583,-5679,-751,-2,0,0,0
98802,-5582,-5685,-751,-2,0,0,0
98807,-5579,-5693,-753,-2,0,0,0
98812,-5579,-5699,-750,-2,0,0,0
98818,-5584,-5703,-747,-2,0,0,0
98822,-5588,-5707,-747,-2,0,0,0
98827,-5586,-5710,-753,-2,0,0,0
98832,-5584,-5711,-763,-2,0,0,0
98838,-5579,-5712,-769,-2,0,0,0
98842,-5574,-5711,-779,-2,1,0,0
98847,-5569,-5708,-789,-2,1,0,0
98853,-5563,-5709,-803,-2,1,0,0
98858,-5557,-5709,-812,-2,1,0,0
98863,-5555,-5712,-821,-2,1,0,0
98867,-5552,-5714,-829,-2,0,0,0
98872,-5552,-5716,-838,-2,0,0,0
98877,-5556,-5726,-848,-1,0,0,0
98882,-5559,-5740,-858,-2,-1,0,0
98888,-5563,-5755,-869,-1,-1,0,0
98893,-5566,-5764,-881,-2,-1,0,0
98899,-5568,-5771,-888,-2,-2,0,0
98904,-5571,-5773,-890,-2,-2,0,0
98909,-5572,-5775,-890,-2,-3,0,0
98914,-5572,-5779,-892,-2,-3,0,0
98920,-5570,-5782,-893,-2,-4,0,0
98925,-5566,-5785,-897,-2,-4,0,0
98930,-5561,-5785,-905,-2,-5,0,0
98935,-5558,-5789,-912,-2,-5,0,0
98941,-5558,-5795,-915,-2,-5,0,0
98946,-5559,-5803,-922,-2,-6,0,0
98951,-5559,-5810,-929,-2,-6,0,0
98957,-5563,-5815,-941,-2,-5,0,0
98962,-5562,-5817,-949,-2,-5,0,0
98967,-5560,-5818,-954,-2,-4,0,0
98973,-5552,-5817,-948,-2,-3,0,0
98978,-5537,-5813,-937,-3,-3,0,0
98983,-5527,-5807,-928,-3,-3,0,0
98989,-5526,-5803,-922,-3,-3,1,0
98994,-5529,-5801,-926,-3,-2,1,0
98999,-5541,-5796,-936,-3,-2,1,0
99004,-5552,-5787,-941,-3,-2,1,0
99009,-5559,-5778,-942,-3,-2,1,0
99015,-5569,-5771,-943,-3,-2,1,0
99019,-5574,-5765,-946,-3,-1,1,0
99024,-5584,-5759,-949,-3,-2,1,0
99029,-5597,-5753,-954,-3,-2,1,0
99035,-5609,-5747,-956,-3,-2,1,0
99041,-5619,-5737,-955,-3,-2,1,0
99046,-5626,-5720,-947,-3,-2,1,0
99052,-5627,-5704,-938,-3,-2,1,0
99057,-5627,-5690,-930,-3,-2,1,0
99062,-5633,-5679,-927,-3,-2,1,0
99067,-5641,-5670,-929,-3,-3,1,0
99072,-5644,-5662,-931,-3,-3,1,0
99078,-5641,-5657,-926,-3,-3,1,0
99082,-5633,-5652,-919,-3,-3,1,0
99087,-5622,-5643,-905,-3,-3,1,0
99093,-5611,-5636,-901,-3,-3,1,0
99098,-5606,-5632,-903,-3,-3,1,0
99103,-5604,-5627,-902,-4,-4,1,0
99108,-5602,-5629,-903,-4,-4,1,0
99114,-5600,-5631,-903,-4,-5,1,0
99119,-5590,-5634,-902,-4,-5,0,0
99124,-5584,-5638,-896,-4,-6,0,0
99130,-5579,-5635,-893,-4,-6,0,0
99135,-5576,-5634,-890,-4,-7,0,0
99140,-5574,-5633,-879,-4,-7,0,0
99145,-5572,-5636,-868,-4,-7,0,0
99151,-5569,-5641,-856,-4,-8,0,0
99156,-5566,-5643,-851,-4,-8,0,0
99162,-5564,-5646,-850,-4,-8,0,0
99166,-5561,-5650,-849,-4,-8,0,0
99170,-5561,-5653,-845,-5,-8,0,0
99174,-5563,-5659,-841,-5,-8,0,0
99179,-5564,-5664,-836,-5,-8,0,0
99183,-5570,-5665,-830,-5,-8,-1,0
99187,-5576,-5666,-829,-5,-8,-1,0
99192,-5578,-5666,-827,-5,-9,-1,0
99196,-5582,-5670,-827,-5,-8,-1,0
99201,-5586,-5675,-828,-5,-8,-1,0
99205,-5592,-5680,-826,-6,-8,-1,0
99210,-5601,-5684,-832,-6,-7,-1,0
99214,-5611,-5689,-842,-6,-7,-1,0
99218,-5614,-5696,-851,-6,-7,-1,0
99223,-5616,-5696,-858,-6,-7,-1,0
99227,-5622,-5693,-857,-6,-7,-1,0
99231,-5631,-5693,-855,-6,-6,-1,0
99236,-5638,-5691,-851,-6,-6,-1,0
99240,-5646,-5690,-852,-6,-6,-1,0
99245,-5656,-5696,-856,-6,-6,-1,0
99249,-5661,-5702,-859,-6,-6,-1,0
99253,-5663,-5707,-857,-6,-5,-1,0
99258,-5664,-5711,-861,-6,-5,0,0
99262,-5670,-5716,-861,-6,-5,0,0
99266,-5677,-5717,-859,-6,-5,0,0
99270,-5684,-5715,-855,-6,-4,0,0
99274,-5693,-5719,-847,-6,-4,0,0
99279,-5695,-5728,-836,-6,-4,0,0
99283,-5699,-5740,-829,-6,-4,0,0
99287,-5703,-5747,-821,-6,-4,0,0
99291,-5711,-5752,-817,-6,-4,0,0
99295,-5724,-5756,-814,-6,-4,0,0
99300,-5736,-5760,-807,-6,-4,0,0
99305,-5747,-5768,-797,-6,-4,1,0
99310,-5748,-5771,-782,-6,-4,1,0
99315,-5747,-5776,-767,-6,-3,1,0
99320,-5744,-5778,-750,-6,-3,1,0
99325,-5742,-5775,-738,-6,-3,1,0
99330,-5738,-5773,-728,-6,-3,1,0
99335,-5736,-5772,-720,-6,-4,1,0
99340,-5730,-5772,-712,-6,-4,1,0
99345,-5724,-5776,-711,-6,-4,2,0
99350,-5716,-5777,-709,-6,-4,2,0
99355,-5710,-5773,-703,-5,-3,2,0
99360,-5702,-5766,-697,-5,-3,2,0
99365,-5692,-5757,-697,-5,-3,2,0
99370,-5685,-5750,-697,-5,-3,2,0
99375,-5676,-5746,-699,-5,-2,3,0
99380,-5666,-5741,-698,-5,-2,3,0
99385,-5659,-5732,-698,-5,-1,3,0
99390,-5656,-5721,-700,-5,-1,3,0
99395,-5649,-5710,-701,-5,-1,3,0
99400,-5643,-5703,-705,-5,-1,3,0
99405,-5639,-5695,-700,-4,-1,3,0
99410,-5636,-5689,-696,-4,-1,3,0
99415,-5631,-5683,-693,-4,-1,3,0
99420,-5630,-5678,-689,-4,-1,3,0
99425,-5627,-5672,-690,-4,-1,3,0
99430,-5624,-5667,-688,-4,-1,3,0
99435,-5619,-5657,-690,-4,-1,3,0
99440,-5613,-5647,-691,-4,-2,3,0
99445,-5605,-5638,-697,-4,-2,3,0
99450,-5596,-5634,-699,-4,-2,3,0
99455,-5585,-5627,-706,-3,-2,3,0
99460,-5573,-5622,-711,-3,-2,2,0
99465,-5560,-5618,-717,-3,-2,2,0
99470,-5553,-5618,-722,-3,-2,2,0
99475,-5545,-5617,-729,-3,-2,2,0
99480,-5540,-5615,-728,-3,-3,2,0
99485,-5533,-5614,-728,-3,-3,2,0
99490,-5527,-5612,-730,-3,-3,2,0
99495,-5517,-5616,-738,-3,-3,2,0
99500,-5510,-5613,-746,-3,-3,2,0
99505,-5505,-5615,-752,-3,-3,2,0
99510,-5499,-5621,-755,-3,-3,1,0
99515,-5496,-5628,-757,-3,-3,1,0
99520,-5496,-5635,-759,-3,-3,1,0
99525,-5492,-5643,-758,-3,-3,1,0
99530,-5490,-5653,-762,-3,-2,1,0
99535,-5487,-5663,-763,-3,-2,1,0
99540,-5486,-5668,-764,-3,-1,1,0
99545,-5483,-5672,-764,-3,-1,1,0
99550,-5480,-5673,-763,-3,0,1,0
99555,-5480,-5671,-763,-2,0,0,0
99560,-5485,-5673,-766,-2,0,0,0
99565,-5488,-5676,-765,-2,1,0,0
99570,-5494,-5677,-765,-2,2,0,0
99575,-5497,-5682,-767,-2,2,0,0
99580,-5494,-5688,-775,-2,3,0,0
99585,-5495,-5689,-780,-2,3,0,0
99590,-5495,-5690,-781,-2,3,0,0
99595,-5500,-5687,-774,-2,3,0,0
99600,-5505,-5684,-761,-2,3,0,0
99605,-5511,-5680,-748,-2,3,0,0
99610,-5528,-5674,-741,-2,3,0,0
99615,-5554,-5671,-736,-2,3,-1,0
99620,-5577,-5672,-737,-2,3,-1,0
99625,-5601,-5675,-737,-2,3,-1,0
99630,-5619,-5677,-746,-2,3,-1,0
99635,-5638,-5676,-749,-2,3,-1,0
99640,-5657,-5673,-755,-1,3,-1,0
99645,-5682,-5670,-757,-1,2,-1,0
99650,-5700,-5675,-756,-1,2,-1,0
99655,-5709,-5677,-757,-1,1,-1,0
99661,-5700,-5689,-761,-1,1,-1,0
99666,-5687,-5702,-765,-1,0,-1,0
99671,-5680,-5709,-768,-1,-1,-1,0
99676,-5688,-5710,-773,-1,-2,0,0
99681,-5708,-5709,-771,-1,-3,0,0
99686,-5731,-5703,-765,-1,-3,0,0
99691,-5745,-5697,-751,-1,-3,1,0
99696,-5754,-5688,-743,-1,-2,1,0
99701,-5766,-5668,-747,-1,-3,1,0
99707,-5789,-5641,-760,-1,-4,2,0
99711,-5826,-5610,-771,-1,-6,2,0
99716,-5875,-5584,-780,-2,-7,2,0
99721,-5931,-5567,-787,-2,-7,2,0
99726,-5988,-5557,-795,-2,-7,3,0
99731,-6041,-5554,-808,-2,-6,3,0
99736,-6088,-5551,-832,-2,-5,3,0
99741,-6124,-5551,-855,-2,-3,3,0
99746,-6158,-5553,-873,-2,-2,4,0
99751,-6181,-5555,-885,-2,0,4,0
99757,-6194,-5551,-893,-2,1,4,0
99762,-6189,-5550,-893,-2,1,4,0
99767,-6171,-5549,-896,-2,2,4,0
99772,-6143,-5547,-900,-2,2,4,0
99776,-6113,-5550,-910,-2,1,5,0
99781,-6092,-5553,-920,-2,0,5,0
99787,-6081,-5553,-931,-2,0,5,0
99792,-6070,-5549,-943,-2,-1,5,0
99797,-6057,-5543,-948,-2,-1,5,0
99802,-6038,-5537,-948,-2,-2,5,0
99807,-6013,-5529,-946,-2,-2,5,0
99812,-5987,-5523,-939,-2,-2,5,0
99817,-5954,-5517,-928,-2,-2,5,0
99822,-5928,-5513,-917,-2,-2,5,0
99828,-5907,-5514,-905,-2,-3,6,0
99833,-5887,-5510,-899,-2,-3,6,0
99839,-5866,-5507,-895,-2,-3,6,0
99843,-5846,-5507,-893,-2,-3,6,0
99849,-5831,-5504,-890,-2,-3,6,0
99854,-5820,-5498,-883,-2,-3,5,0
99858,-5810,-5492,-869,-3,-2,5,0
99863,-5799,-5487,-857,-3,-2,5,0
99868,-5785,-5483,-853,-3,-1,5,0
99873,-5772,-5480,-854,-3,-1,5,0
99879,-5758,-5479,-853,-3,-1,5,0
99883,-5745,-5481,-850,-3,-1,5,0
99888,-5731,-5483,-842,-3,-1,5,0
99894,-5715,-5481,-837,-3,-1,5,0
99899,-5701,-5478,-838,-3,-1,4,0
99904,-5686,-5471,-842,-3,-1,4,0
99908,-5671,-5455,-846,-3,-1,4,0
99912,-5657,-5440,-846,-3,-2,4,0
99916,-5642,-5433,-845,-3,-2,4,0
99920,-5626,-5426,-849,-3,-1,4,0
99926,-5612,-5420,-860,-3,-1,3,0
99931,-5600,-5407,-873,-3,-1,3,0
99936,-5589,-5398,-878,-3,-2,3,0
99941,-5582,-5391,-880,-3,-2,3,0
99947,-5580,-5386,-877,-3,-3,2,0
99952,-5573,-5384,-877,-3,-3,2,0
99957,-5565,-5387,-872,-3,-3,2,0
99962,-5557,-5391,-875,-3,-3,2,0
99967,-5551,-5387,-879,-3,-3,1,0
99972,-5549,-5384,-884,-3,-3,1,0
99978,-5546,-5386,-881,-3,-4,1,0
99983,-5547,-5388,-878,-3,-4,1,0
99988,-5545,-5393,-871,-3,-4,0,0
99994,-5541,-5402,-865,-3,-4,0,0
99999,-5540,-5406,-868,-3,-3,0,0
100003,-5539,-5412,-877,-3,-3,0,0
100009,-5539,-5417,-884,-3,-2,-1,0
100015,-5536,-5419,-881,-3,-2,-1,0
100020,-5534,-5421,-872,-3,-1,-1,0
100026,-5534,-5421,-864,-3,0,-1,0
100031,-5530,-5424,-859,-3,0,-1,0
100036,-5525,-5420,-861,-3,1,-2,0
100041,-5525,-5412,-859,-3,1,-2,0
100045,-5533,-5394,-854,-3,0,-2,0
100051,-5541,-5378,-840,-2,-1,-2,0
100056,-5547,-5370,-823,-3,-1,-3,0
100062,-5548,-5370,-805,-3,0,-3,0
100067,-5549,-5369,-796,-2,1,-3,0
100072,-5557,-5367,-799,-2,1,-3,0
100078,-5570,-5368,-806,-2,1,-4,0
100083,-5585,-5371,-813,-3,1,-4,0
100088,-5596,-5380,-802,-3,2,-4,0
100094,-5603,-5395,-791,-3,2,-4,0
100099,-5611,-5414,-779,-2,2,-4,0
100104,-5617,-5430,-782,-2,3,-5,0
100109,-5622,-5442,-792,-2,3,-5,0
100114,-5620,-5448,-800,-2,3,-5,0
100119,-5616,-5451,-805,-2,3,-5,0
100124,-5609,-5455,-806,-2,2,-5,0
100130,-5605,-5464,-806,-2,2,-5,0
100135,-5601,-5476,-806,-2,2,-5,0
100141,-5598,-5483,-813,-2,2,-5,0
100145,-5595,-5486,-825,-2,1,-5,0
100150,-5600,-5487,-844,-2,1,-6,0
100155,-5611,-5485,-859,-2,0,-6,0
100161,-5633,-5483,-868,-2,0,-6,0
100166,-5661,-5487,-866,-1,-1,-6,0
100171,-5688,-5486,-859,-1,0,-6,0
100177,-5709,-5483,-853,-1,0,-5,0
100182,-5725,-5482,-857,-1,0,-5,0
100188,-5739,-5483,-864,-1,1,-5,0
100193,-5751,-5488,-868,-1,1,-5,0
100199,-5764,-5496,-866,-1,0,-5,0
100204,-5778,-5500,-857,-1,0,-5,0
100209,-5789,-5505,-847,-1,0,-5,0
100215,-5797,-5508,-842,-1,-1,-5,0
100220,-5808,-5512,-843,-1,-1,-5,0
100225,-5820,-5518,-854,-1,-2,-5,0
100229,-5837,-5523,-863,-1,-2,-5,0
100233,-5858,-5530,-870,-1,-3,-5,0
100239,-5879,-5538,-874,-1,-4,-5,0
100244,-5898,-5545,-875,-1,-4,-5,0
100249,-5911,-5550,-874,-1,-4,-4,0
100254,-5924,-5550,-875,-1,-4,-4,0
100259,-5940,-5546,-876,-1,-4,-4,0
100264,-5952,-5548,-878,-1,-5,-4,0
100269,-5956,-5551,-879,-1,-5,-4,0
100274,-5954,-5554,-876,-1,-4,-4,0
100279,-5947,-5556,-876,-1,-4,-4,0
100284,-5939,-5560,-882,-1,-3,-3,0
100289,-5929,-5566,-889,-1,-3,-3,0
100294,-5919,-5567,-899,-1,-2,-3,0
100300,-5912,-5565,-907,-1,-2,-3,0
100304,-5906,-5560,-913,-1,-1,-2,0
100309,-5910,-5556,-919,-1,-1,-2,0
100315,-5915,-5550,-927,-1,-1,-2,0
100320,-5926,-5545,-932,-1,-1,-2,0
100324,-5935,-5544,-941,-1,-1,-2,0
100330,-5943,-5543,-953,-1,-1,-2,0
100335,-5947,-5541,-958,-1,0,-1,0
100341,-5949,-5539,-961,-1,0,-1,0
100346,-5949,-5541,-954,-1,0,-1,0
100351,-5949,-5542,-949,-1,0,-1,0
100356,-5953,-5543,-943,-1,-1,-1,0
100361,-5955,-5544,-940,-1,-1,-1,0
100367,-5958,-5545,-938,-2,-1,-1,0
100372,-5962,-5549,-939,-2,-1,0,0
100377,-5966,-5549,-944,-2,-1,0,0
100382,-5962,-5547,-949,-2,-1,0,0
100388,-5959,-5544,-944,-2,-1,0,0
100394,-5954,-5541,-939,-2,0,0,0
100398,-5942,-5540,-932,-2,0,0,0
100403,-5928,-5539,-926,-2,1,0,0
100408,-5915,-5535,-919,-2,1,0,0
100413,-5900,-5535,-912,-2,1,0,0
100418,-5886,-5535,-911,-2,2,0,0
100422,-5870,-5535,-907,-2,2,1,0
100426,-5853,-5533,-906,-2,2,1,0
100430,-5842,-5531,-905,-2,2,1,0
100434,-5836,-5530,-904,-2,2,1,0
100438,-5829,-5531,-903,-2,2,1,0
100442,-5819,-5534,-902,-2,2,1,0
100446,-5807,-5533,-900,-2,3,1,0
100451,-5800,-5533,-900,-2,3,1,0
100455,-5787,-5538,-901,-2,4,1,0
100459,-5776,-5541,-901,-2,4,1,0
100463,-5763,-5544,-902,-2,4,1,0
100467,-5749,-5546,-901,-2,5,1,0
100471,-5733,-5551,-903,-2,5,1,0
100475,-5714,-5558,-904,-2,5,1,0
100479,-5691,-5563,-901,-2,5,0,0
100483,-5664,-5564,-891,-2,5,0,0
100488,-5639,-5563,-880,-2,4,0,0
100492,-5619,-5564,-862,-2,3,0,0
100496,-5607,-5568,-854,-2,1,0,0
100500,-5605,-5574,-850,-2,0,0,0
100504,-5606,-5581,-852,-2,-1,0,0
100509,-5602,-5586,-849,-2,-2,0,0
100514,-5603,-5594,-847,-2,-3,0,0
100519,-5611,-5601,-849,-2,-3,0,0
100524,-5627,-5608,-858,-1,-4,0,0
100529,-5651,-5615,-866,-1,-4,0,0
100534,-5674,-5618,-873,-1,-4,-1,0
100539,-5688,-5619,-878,-1,-4,-1,0
100544,-5691,-5619,-881,-1,-3,-1,0
100549,-5688,-5617,-884,-1,-3,-1,0
100554,-5680,-5617,-884,-1,-3,-1,0
100559,-5670,-5617,-889,-1,-2,-1,0
100564,-5656,-5616,-890,-1,-2,-1,0
100569,-5642,-5614,-887,-1,-3,-1,0
100573,-5628,-5610,-888,-1,-3,-1,0
100578,-5618,-5609,-886,-1,-3,-1,0
100583,-5616,-5609,-886,-1,-3,-1,0
100588,-5619,-5610,-887,-1,-3,-1,0
100593,-5622,-5609,-885,-1,-2,-1,0
100599,-5630,-5605,-887,-1,-2,-1,0
100604,-5636,-5599,-889,-1,-2,-1,0
100608,-5641,-5595,-887,-1,-2,-1,0
100613,-5645,-5592,-882,-1,-2,-1,0
100618,-5652,-5592,-876,-1,-2,-1,0
100623,-5658,-5594,-869,-1,-2,-1,0
100629,-5659,-5595,-865,-1,-2,-1,0
100633,-5658,-5591,-868,-1,-2,-1,0
100638,-5654,-5585,-869,-1,-2,-2,0
100643,-5652,-5584,-874,-1,-3,-2,0
100648,-5652,-5588,-874,-1,-3,-2,0
100653,-5651,-5587,-880,-1,-3,-2,0
100658,-5650,-5587,-888,-1,-3,-2,0
100663,-5648,-5581,-890,-1,-3,-2,0
100668,-5651,-5581,-889,-1,-3,-2,0
100673,-5657,-5581,-892,-1,-3,-2,0
100678,-5665,-5583,-897,-1,-3,-2,0
100683,-5662,-5585,-898,-1,-2,-2,0
100688,-5658,-5583,-898,-1,-2,-2,0
100693,-5654,-5583,-895,-1,-3,-2,0
100698,-5657,-5584,-895,-1,-3,-2,0
100703,-5665,-5588,-897,-1,-3,-2,0
100708,-5674,-5590,-894,-1,-3,-2,0
100713,-5678,-5590,-889,-1,-3,-2,0
100718,-5674,-5589,-882,-1,-3,-2,0
100723,-5668,-5590,-874,-1,-3,-2,0
100728,-5662,-5596,-877,-1,-2,-2,0
100733,-5661,-5599,-881,-1,-2,-2,0
100738,-5663,-5600,-879,-1,-2,-2,0
100743,-5669,-5600,-877,-1,-1,-2,0
100748,-5674,-5601,-868,-1,-1,-2,0
100753,-5674,-5598,-866,-1,0,-2,0
100758,-5670,-5595,-867,-1,0,-2,0
100763,-5671,-5596,-871,-1,0,-2,0
100768,-5675,-5599,-870,-1,0,-2,0
100773,-5683,-5603,-867,-1,0,-2,0
100778,-5696,-5607,-861,-1,0,-2,0
100783,-5705,-5610,-855,-1,1,-2,0
100788,-5711,-5610,-848,-1,1,-2,0
100793,-5711,-5610,-848,-1,1,-2,0
100798,-5712,-5613,-845,-1,1,-2,0
100803,-5715,-5613,-841,-1,2,-2,0
100808,-5721,-5618,-839,-1,2,-2,0
100813,-5720,-5625,-840,-1,3,-2,0
100818,-5710,-5628,-832,-1,3,-2,0
100823,-5695,-5629,-833,-1,3,-2,0
100828,-5675,-5626,-831,-1,3,-2,0
100833,-5661,-5627,-835,-1,3,-2,0
100838,-5657,-5626,-840,-1,2,-2,0
100843,-5655,-5625,-846,-1,2,-2,0
100849,-5653,-5619,-853,-1,2,-2,0
100855,-5655,-5612,-865,-1,1,-2,0
100860,-5658,-5604,-874,-1,1,-2,0
100865,-5661,-5599,-883,-1,0,-2,0
100870,-5668,-5592,-890,-1,0,-2,0
100876,-5677,-5585,-896,-1,0,-2,0
100881,-5695,-5580,-902,-1,-1,-2,0
100886,-5716,-5577,-911,-1,0,-2,0
100891,-5734,-5575,-916,-1,0,-2,0
100897,-5746,-5579,-924,-1,0,-2,0
100902,-5750,-5586,-931,-1,1,-1,0
100907,-5745,-5590,-937,-1,1,-1,0
100911,-5738,-5592,-945,-1,1,-1,0
100917,-5734,-5594,-945,-1,1,-1,0
100922,-5734,-5595,-937,-1,0,-1,0
100927,-5737,-5597,-926,-1,0,-1,0
100932,-5738,-5597,-919,0,0,-1,0
100938,-5734,-5596,-912,0,0,-1,0
100942,-5726,-5595,-912,0,-1,-1,0
100948,-5722,-5600,-918,0,-1,-1,0
100953,-5721,-5610,-921,-1,-2,-1,0
100958,-5722,-5619,-920,-1,-2,-1,0
100964,-5726,-5626,-911,-1,-2,-1,0
100969,-5731,-5635,-910,-1,-1,-1,0
100975,-5731,-5639,-912,-1,-1,0,0
100980,-5735,-5644,-913,-1,-1,0,0
100985,-5741,-5648,-912,-1,-1,0,0
100990,-5743,-5656,-914,-1,-1,0,0
100996,-5740,-5662,-914,-1,-1,0,0
101001,-5732,-5667,-915,-1,-1,0,0
101005,-5720,-5672,-919,-1,-1,0,0
101011,-5712,-5675,-921,-1,-1,0,0
101015,-5710,-5680,-924,-1,-2,0,0
101021,-5712,-5685,-929,-1,-2,0,0
101025,-5710,-5689,-932,-1,-2,0,0
101031,-5708,-5685,-934,-1,-2,0,0
101037,-5704,-5680,-940,-1,-2,0,0
101042,-5704,-5677,-939,-1,-2,0,0
101047,-5708,-5671,-940,-1,-2,0,0
101052,-5712,-5662,-942,-1,-2,0,0
101057,-5713,-5657,-943,-1,-2,0,0
101062,-5714,-5650,-940,-2,-2,0,0
101067,-5712,-5649,-940,-2,-2,0,0
101073,-5706,-5648,-942,-2,-2,0,0
101078,-5701,-5644,-942,-2,-2,0,0
101083,-5698,-5639,-942,-2,-2,0,0
101088,-5693,-5635,-945,-2,-2,0,0
101093,-5686,-5633,-945,-2,-2,0,0
101098,-5682,-5628,-947,-2,-2,0,0
101103,-5677,-5627,-949,-2,-3,0,0
101109,-5674,-5625,-949,-2,-3,0,0
101114,-5671,-5620,-946,-2,-3,0,0
101119,-5670,-5618,-941,-2,-2,0,0
101124,-5669,-5615,-933,-2,-3,0,0
101130,-5667,-5612,-928,-2,-2,0,0
101135,-5666,-5610,-921,-2,-2,0,0
101140,-5662,-5609,-918,-2,-2,0,0
101144,-5657,-5609,-917,-2,-2,0,0
101149,-5648,-5607,-923,-2,-2,0,0
101155,-5647,-5606,-924,-2,-2,0,0
101159,-5650,-5607,-921,-2,-3,0,0
101164,-5655,-5608,-915,-2,-2,0,0
101170,-5655,-5612,-911,-2,-2,0,0
101175,-5650,-5617,-910,-2,-2,0,0
101180,-5641,-5618,-910,-2,-2,0,0
101184,-5635,-5619,-909,-2,-2,0,0
101189,-5635,-5619,-905,-3,-2,0,0
101194,-5636,-5620,-897,-3,-2,0,0
101200,-5636,-5621,-891,-2,-2,0,0
101205,-5635,-5622,-886,-2,-2,0,0
101210,-5627,-5625,-888,-3,-2,0,0
101215,-5614,-5629,-886,-3,-2,-1,0
101221,-5601,-5632,-888,-3,-2,-1,0
101227,-5594,-5635,-883,-3,-2,-1,0
101232,-5594,-5642,-883,-3,-2,-1,0
101237,-5601,-5648,-886,-3,-2,-1,0
101241,-5609,-5655,-889,-3,-2,-1,0
101246,-5611,-5661,-893,-3,-2,-1,0
101251,-5607,-5667,-892,-3,-2,-1,0
101256,-5600,-5670,-889,-3,-2,-1,0
101262,-5589,-5674,-882,-3,-2,-1,0
101268,-5583,-5676,-874,-3,-2,-1,0
101273,-5581,-5678,-872,-3,-2,-1,0
101279,-5585,-5681,-869,-3,-2,-1,0
101284,-5588,-5685,-864,-3,-2,-1,0
101290,-5594,-5692,-863,-3,-2,-1,0
101296,-5597,-5701,-861,-3,-2,-1,0
101300,-5599,-5705,-859,-3,-2,-1,0
101305,-5603,-5707,-858,-3,-2,-1,0
101311,-5603,-5708,-851,-3,-2,-1,0
101317,-5600,-5707,-840,-3,-2,-1,0
101322,-5596,-5706,-824,-3,-2,-1,0
101328,-5590,-5700,-817,-3,-2,-1,0
101333,-5588,-5695,-810,-3,-1,-1,0
101339,-5589,-5691,-811,-3,-1,-1,0
101344,-5592,-5691,-818,-3,-1,-1,0
101349,-5592,-5687,-822,-3,-1,-1,0
101355,-5595,-5681,-827,-3,-1,-1,0
101360,-5596,-5678,-832,-3,0,-1,0
101365,-5599,-5672,-835,-3,0,-1,0
101371,-5602,-5665,-836,-3,0,-1,0
101376,-5605,-5665,-835,-3,0,-1,0
101382,-5608,-5663,-834,-2,-1,-1,0
101387,-5614,-5657,-834,-2,-1,-1,0
101392,-5622,-5653,-836,-2,-1,-1,0
101398,-5630,-5651,-830,-2,-1,-2,0
101404,-5639,-5646,-832,-2,-1,-2,0
101409,-5646,-5640,-832,-2,-2,-2,0
101415,-5648,-5633,-832,-2,-2,-2,0
101421,-5650,-5630,-829,-2,-2,-2,0
101426,-5653,-5629,-822,-2,-2,-2,0
101431,-5653,-5630,-819,-2,-2,-2,0
101437,-5656,-5626,-811,-2,-2,-2,0
101443,-5660,-5621,-803,-2,-2,-2,0
101449,-5663,-5620,-801,-2,-2,-2,0
101454,-5666,-5619,-800,-2,-2,-2,0
101460,-5668,-5620,-800,-2,-2,-2,0
101465,-5669,-5622,-803,-2,-2,-2,0
101470,-5667,-5624,-807,-2,-2,-2,0
101475,-5666,-5624,-809,-2,-1,-2,0
101480,-5666,-5624,-813,-2,-1,-2,0
101485,-5665,-5625,-817,-2,-1,-2,0
101491,-5667,-5627,-820,-2,-1,-2,0
101496,-5669,-5631,-818,-2,-1,-2,0
101501,-5670,-5636,-823,-2,-1,-2,0
101506,-5676,-5641,-825,-2,-1,-2,0
101512,-5681,-5641,-829,-2,-2,-2,0
101518,-5681,-5644,-831,-2,-2,-1,0
101523,-5681,-5645,-835,-2,-2,-1,0
101529,-5680,-5648,-838,-2,-2,-1,0
101534,-5681,-5649,-840,-2,-1,-1,0
101540,-5683,-5646,-838,-2,-1,-1,0
101545,-5690,-5639,-839,-2,-1,-1,0
101551,-5697,-5634,-837,-2,-1,-1,0
101557,-5702,-5632,-834,-2,-1,-1,0
101562,-5702,-5630,-828,-2,-1,-1,0
101567,-5698,-5630,-830,-2,-1,-1,0
101572,-5691,-5630,-832,-2,-2,-1,0
101578,-5685,-5629,-835,-2,-2,-1,0
101584,-5683,-5623,-834,-2,-2,-1,0
101589,-5685,-5622,-827,-2,-3,-1,0
101595,-5690,-5626,-819,-2,-3,-1,0
101601,-5698,-5628,-823,-2,-3,-1,0
101605,-5705,-5633,-832,-2,-2,-1,0
101611,-5703,-5639,-843,-2,-2,-1,0
101617,-5701,-5643,-852,-2,-2,-1,0
101622,-5697,-5650,-855,-2,-2,-1,0
101628,-5696,-5652,-854,-2,-2,-1,0
101634,-5693,-5653,-848,-2,-2,-1,0
101640,-5693,-5651,-843,-2,-2,-1,0
101644,-5690,-5649,-843,-2,-2,-1,0
101650,-5686,-5649,-843,-2,-2,-1,0
101656,-5683,-5649,-846,-2,-2,-1,0
101662,-5683,-5648,-849,-2,-2,-1,0
101667,-5682,-5649,-848,-2,-2,-1,0
101671,-5680,-5647,-845,-2,-2,-1,0
101676,-5676,-5643,-842,-2,-2,-1,0
101680,-5671,-5639,-841,-2,-2,-1,0
101684,-5668,-5637,-844,-2,-2,-1,0
101689,-5669,-5641,-844,-2,-2,0,0
101693,-5671,-5645,-843,-2,-2,0,0
101697,-5672,-5649,-841,-2,-2,0,0
101701,-5671,-5650,-842,-2,-2,0,0
101706,-5670,-5650,-840,-2,-2,0,0
101710,-5670,-5651,-838,-2,-2,0,0
101714,-5670,-5650,-841,-2,-2,0,0
101719,-5670,-5650,-842,-2,-2,0,0
101723,-5672,-5652,-837,-2,-2,0,0
101727,-5667,-5653,-834,-2,-2,0,0
101731,-5665,-5653,-829,-2,-2,0,0
101736,-5664,-5650,-826,-2,-2,0,0
101740,-5662,-5650,-829,-2,-2,0,0
101744,-5660,-5654,-833,-2,-2,0,0
101749,-5657,-5655,-835,-2,-2,0,0
101753,-5656,-5655,-837,-2,-2,0,0
101757,-5653,-5655,-836,-2,-2,0,0
101761,-5648,-5651,-835,-2,-2,0,0
101765,-5644,-5650,-832,-2,-2,0,0
101770,-5639,-5650,-834,-2,-2,0,0
101774,-5632,-5651,-837,-2,-2,-1,0
101778,-5625,-5644,-839,-2,-2,-1,0
101782,-5623,-5636,-840,-2,-2,-1,0
101787,-5619,-5632,-840,-2,-2,-1,0
101791,-5618,-5632,-836,-2,-2,-1,0
101795,-5618,-5633,-835,-2,-2,-1,0
101800,-5619,-5632,-833,-2,-2,-1,0
101804,-5620,-5630,-836,-2,-2,-1,0
101808,-5622,-5628,-832,-2,-2,-1,0
101813,-5621,-5631,-826,-2,-1,-1,0
101817,-5617,-5632,-822,-2,-1,-1,0
101821,-5617,-5633,-823,-2,-1,-1,0
101826,-5618,-5632,-827,-2,-1,-1,0
101830,-5620,-5632,-828,-2,-1,-1,0
101834,-5620,-5632,-822,-2,-1,-1,0
101838,-5618,-5629,-821,-2,-1,-1,0
101843,-5615,-5629,-820,-2,-1,-1,0
101847,-5615,-5630,-817,-1,-1,-1,0
101851,-5615,-5632,-817,-1,-1,-1,0
101856,-5616,-5634,-816,-1,-1,-1,0
101860,-5618,-5636,-813,-1,-2,-1,0
101864,-5618,-5637,-810,-2,-2,-1,0
101869,-5618,-5640,-809,-2,-1,-1,0
101873,-5617,-5644,-810,-1,-1,-1,0
101877,-5615,-5643,-814,-1,-1,-1,0
101882,-5615,-5644,-817,-2,-1,-1,0
101886,-5617,-5648,-816,-2,-1,-1,0
101890,-5617,-5652,-815,-2,-1,-1,0
101895,-5617,-5654,-817,-2,-1,-1,0
101899,-5621,-5659,-825,-1,-1,-1,0
101903,-5629,-5665,-836,-1,-1,-1,0
101908,-5637,-5674,-846,-1,-1,-1,0
101912,-5648,-5677,-849,-1,-1,-1,0
101916,-5655,-5678,-850,-2,-1,-1,0
101921,-5659,-5679,-843,-1,-1,-1,0
101925,-5660,-5682,-839,-1,-1,-1,0
101929,-5661,-5683,-833,-1,-2,-1,0
101934,-5658,-5686,-833,-2,-2,-1,0
101938,-5653,-5687,-833,-2,-2,-1,0
101942,-5646,-5689,-830,-2,-2,-1,0
101947,-5641,-5689,-827,-2,-2,-1,0
101951,-5640,-5690,-829,-2,-2,-1,0
101956,-5642,-5688,-831,-2,-2,-1,0
101960,-5642,-5688,-831,-2,-2,-1,0
101965,-5645,-5685,-830,-2,-2,-1,0
101969,-5650,-5683,-831,-2,-2,-1,0
101973,-5654,-5682,-839,-2,-1,0,0
101978,-5659,-5682,-844,-2,-1,0,0
101982,-5659,-5680,-849,-2,-1,0,0
101986,-5658,-5679,-858,-2,-1,0,0
101991,-5659,-5676,-862,-2,0,0,0
101996,-5662,-5675,-868,-2,0,0,0
102001,-5665,-5671,-871,-2,0,0,0
102006,-5668,-5670,-875,-2,0,0,0
102011,-5675,-5671,-875,-2,0,0,0
102016,-5683,-5673,-878,-2,0,0,0
102021,-5692,-5673,-877,-2,0,0,0
102026,-5699,-5675,-873,-2,0,0,0
102031,-5703,-5676,-873,-2,0,0,0
102036,-5708,-5673,-874,-2,0,0,0
102041,-5712,-5674,-878,-2,0,0,0
102046,-5712,-5676,-879,-2,0,0,0
102051,-5707,-5676,-875,-2,0,0,0
102056,-5705,-5674,-870,-2,0,0,0
102061,-5701,-5670,-866,-2,0,0,0
102066,-5695,-5664,-864,-2,1,0,0
102071,-5692,-5660,-860,-2,1,0,0
102076,-5690,-5655,-865,-2,1,0,0
102081,-5681,-5648,-869,-2,1,0,0
102086,-5675,-5641,-868,-2,1,0,0
102092,-5669,-5635,-869,-2,1,0,0
102097,-5668,-5631,-869,-2,0,0,0
102102,-5668,-5629,-873,-2,0,0,0
102107,-5672,-5631,-879,-2,0,0,0
102112,-5679,-5631,-886,-2,0,0,0
102116,-5682,-5633,-889,-2,0,0,0
102121,-5682,-5637,-890,-2,0,0,0
102126,-5682,-5636,-886,-2,0,0,0
102131,-5677,-5636,-878,-3,0,0,0
102137,-5674,-5634,-872,-3,0,0,0
102142,-5664,-5633,-861,-3,0,0,0
102147,-5656,-5630,-852,-3,0,0,0
102153,-5649,-5627,-845,-3,-1,0,0
102158,-5643,-5623,-847,-3,-1,0,0
102163,-5633,-5621,-850,-3,-1,0,0
102169,-5625,-5620,-856,-3,-1,0,0
102174,-5614,-5619,-861,-3,-1,0,0
102179,-5608,-5620,-858,-3,-1,0,0
102184,-5606,-5628,-859,-3,-1,0,0
102190,-5607,-5633,-858,-3,-1,0,0
102195,-5613,-5644,-862,-3,-1,0,0
102200,-5610,-5657,-867,-3,-2,0,0
102205,-5607,-5665,-875,-3,-2,0,0
102210,-5610,-5673,-883,-3,-2,0,0
102216,-5615,-5678,-889,-3,-3,0,0
102221,-5619,-5687,-884,-3,-3,0,0
102226,-5623,-5693,-880,-3,-3,0,0
102230,-5625,-5699,-878,-3,-3,-1,0
102235,-5622,-5702,-877,-3,-3,-1,0
102241,-5615,-5704,-874,-3,-3,-1,0
102246,-5609,-5705,-878,-3,-3,-1,0
102250,-5601,-5707,-873,-2,-3,-1,0
102254,-5594,-5712,-867,-2,-3,-1,0
102260,-5590,-5715,-858,-2,-3,-1,0
102264,-5584,-5716,-850,-2,-4,-1,0
102270,-5579,-5720,-843,-2,-4,-1,0
102275,-5575,-5722,-839,-2,-5,-1,0
102281,-5572,-5725,-836,-2,-6,-1,0
102286,-5574,-5726,-826,-2,-7,-1,0
102292,-5577,-5730,-809,-2,-7,-1,0
102297,-5577,-5735,-795,-2,-7,-1,0
102303,-5578,-5741,-782,-2,-7,-1,0
102308,-5575,-5744,-768,-2,-7,-1,0
102313,-5572,-5745,-756,-2,-7,-1,0
102319,-5569,-5754,-749,-2,-7,-1,0
102324,-5575,-5760,-737,-2,-7,-1,0
102329,-5583,-5768,-735,-2,-6,-1,0
102335,-5594,-5778,-735,-2,-6,-1,0
102340,-5600,-5782,-738,-2,-6,-1,0
102345,-5598,-5782,-738,-2,-5,-1,0
102350,-5587,-5776,-735,-2,-5,-1,0
102356,-5576,-5769,-731,-2,-4,-1,0
102361,-5567,-5757,-729,-2,-4,-1,0
102365,-5561,-5747,-726,-2,-3,-1,0
102372,-5552,-5735,-727,-2,-3,-1,0
102378,-5544,-5722,-728,-2,-3,-1,0
102383,-5534,-5707,-736,-2,-3,-1,0
102389,-5531,-5694,-740,-2,-2,-1,0
102394,-5533,-5680,-745,-2,-2,-1,0
102400,-5541,-5671,-749,-2,-2,-1,0
102404,-5553,-5661,-754,-2,-2,-1,0
102410,-5565,-5651,-753,-2,-2,-1,0
102416,-5576,-5640,-749,-2,-2,-1,0
102421,-5584,-5629,-743,-2,-2,-1,0
102426,-5597,-5620,-736,-2,-2,-1,0
102432,-5608,-5611,-734,-2,-2,-1,0
102438,-5615,-5599,-734,-2,-2,-1,0
102443,-5621,-5593,-731,-2,-2,-1,0
102449,-5625,-5587,-727,-2,-2,-1,0
102454,-5632,-5584,-722,-1,-2,-2,0
102460,-5636,-5584,-716,-1,-2,-2,0
102465,-5643,-5583,-713,-1,-2,-2,0
102471,-5651,-5586,-712,-1,-2,-2,0
102476,-5655,-5588,-712,-1,-2,-2,0
102482,-5659,-5591,-709,-1,-2,-2,0
102487,-5662,-5596,-698,-1,-1,-2,0
102493,-5667,-5601,-695,-1,-1,-2,0
102498,-5670,-5604,-693,-1,-1,-2,0
102504,-5674,-5607,-691,-1,-1,-1,0
102509,-5676,-5609,-690,-1,0,-1,0
102514,-5675,-5615,-691,-1,0,-1,0
102520,-5678,-5618,-690,-1,1,-1,0
102525,-5682,-5619,-693,-1,1,-1,0
102530,-5686,-5623,-699,-1,2,-1,0
102535,-5691,-5624,-704,0,2,-1,0
102541,-5694,-5623,-713,0,2,-1,0
102545,-5694,-5627,-717,0,3,-1,0
102550,-5695,-5635,-718,0,3,0,0
102554,-5698,-5644,-725,0,3,0,0
102558,-5699,-5657,-731,0,3,0,0
102563,-5703,-5670,-742,0,3,0,0
102569,-5712,-5682,-752,0,3,0,0
102573,-5721,-5692,-756,0,3,0,0
102578,-5730,-5703,-765,0,3,0,0
102582,-5736,-5709,-767,0,3,0,0
102587,-5745,-5714,-772,0,3,0,0
102592,-5749,-5718,-777,0,3,0,0
102596,-5754,-5727,-778,0,2,0,0
102602,-5760,-5737,-785,0,3,1,0
102606,-5759,-5741,-795,0,3,1,0
102610,-5758,-5743,-811,0,3,1,0
102614,-5753,-5740,-827,0,3,1,0
102619,-5746,-5736,-839,0,3,1,0
102624,-5738,-5725,-846,0,3,1,0
102630,-5730,-5712,-850,0,3,1,0
102634,-5724,-5702,-859,0,3,1,0
102639,-5717,-5696,-868,0,3,2,0
102643,-5710,-5694,-885,0,3,2,0
102647,-5702,-5694,-899,0,3,2,0
102653,-5700,-5693,-909,0,3,2,0
102658,-5699,-5691,-921,0,3,2,0
102663,-5702,-5686,-927,0,3,2,0
102667,-5707,-5683,-927,0,2,2,0
102673,-5710,-5680,-930,0,2,2,0
102678,-5707,-5681,-938,-1,2,2,0
102683,-5708,-5686,-943,-1,2,2,0
102688,-5704,-5691,-949,-1,2,2,0
102693,-5701,-5690,-954,-1,1,2,0
102698,-5694,-5685,-957,-1,1,2,0
102703,-5688,-5679,-960,-1,1,2,0
102708,-5679,-5675,-960,-1,0,2,0
102713,-5670,-5672,-965,-1,0,2,0
102718,-5660,-5670,-972,-1,0,2,0
102723,-5650,-5666,-974,-1,0,2,0
102729,-5638,-5660,-975,-2,0,2,0
102734,-5630,-5654,-974,-2,0,2,0
102739,-5622,-5646,-971,-2,0,2,0
102744,-5616,-5642,-969,-2,0,2,0
102750,-5614,-5639,-968,-2,1,2,0
102755,-5613,-5641,-969,-2,1,2,0
102760,-5608,-5645,-973,-2,1,2,0
102765,-5602,-5650,-971,-2,1,2,0
102770,-5599,-5655,-965,-2,0,2,0
102775,-5597,-5659,-958,-2,0,2,0
102780,-5600,-5663,-952,-2,0,2,0
102784,-5604,-5670,-945,-3,-1,2,0
102790,-5607,-5678,-940,-3,-1,2,0
102796,-5605,-5684,-937,-3,-1,1,0
102801,-5603,-5689,-937,-3,-1,1,0
102805,-5598,-5690,-938,-3,-1,1,0
102811,-5594,-5688,-937,-3,-2,1,0
102817,-5592,-5682,-934,-3,-2,1,0
102822,-5588,-5677,-929,-3,-2,1,0
102827,-5580,-5669,-924,-3,-2,1,0
102833,-5573,-5663,-921,-3,-2,1,0
102838,-5565,-5655,-922,-3,-1,1,0
102843,-5557,-5651,-924,-3,-2,1,0
102849,-5554,-5648,-921,-3,-2,1,0
102854,-5553,-5645,-913,-3,-1,1,0
102860,-5554,-5640,-904,-3,-1,1,0
102865,-5553,-5629,-896,-3,-1,1,0
102871,-5552,-5624,-888,-3,-1,0,0
102876,-5553,-5624,-879,-3,-2,0,0
102881,-5552,-5625,-871,-3,-1,0,0
102886,-5549,-5626,-862,-3,-1,0,0
102892,-5545,-5624,-857,-3,-2,0,0
102897,-5546,-5621,-854,-3,-2,0,0
102904,-5551,-5621,-850,-3,-2,0,0
102909,-5555,-5618,-842,-3,-2,0,0
102915,-5557,-5617,-837,-3,-2,0,0
102920,-5555,-5614,-831,-3,-3,0,0
102924,-5552,-5607,-823,-3,-3,0,0
102928,-5546,-5606,-817,-3,-2,0,0
102933,-5544,-5600,-814,-3,-2,-1,0
102937,-5546,-5599,-819,-3,-2,-1,0
102941,-5549,-5598,-824,-3,-3,-1,0
102945,-5548,-5599,-824,-3,-3,-1,0
102950,-5547,-5597,-824,-2,-3,-1,0
102954,-5543,-5596,-823,-2,-2,-1,0
102959,-5546,-5597,-820,-2,-2,-1,0
102963,-5546,-5595,-822,-2,-2,-1,0
102968,-5547,-5594,-826,-2,-2,-1,0
102972,-5545,-5593,-828,-2,-2,-1,0
102976,-5549,-5594,-825,-2,-2,-1,0
102980,-5552,-5599,-819,-2,-1,-1,0
102985,-5553,-5604,-812,-2,-1,-1,0
102989,-5558,-5602,-813,-2,-1,-1,0
102994,-5562,-5601,-814,-2,-1,-2,0
102998,-5565,-5597,-814,-2,-1,-2,0
103002,-5572,-5596,-807,-2,-1,-2,0
103007,-5580,-5597,-801,-2,-1,-2,0
103011,-5591,-5601,-797,-2,-2,-2,0
103016,-5603,-5611,-798,-2,-2,-2,0
103020,-5606,-5616,-798,-2,-2,-2,0
103024,-5610,-5623,-803,-2,-2,-2,0
103029,-5615,-5626,-806,-2,-3,-2,0
103033,-5620,-5628,-802,-2,-3,-2,0
103037,-5625,-5629,-800,-2,-3,-2,0
103042,-5629,-5628,-806,-1,-3,-2,0
103046,-5629,-5627,-812,-2,-2,-2,0
103050,-5624,-5624,-818,-2,-2,-2,0
103055,-5619,-5620,-821,-2,-2,-2,0
103059,-5612,-5616,-822,-1,-2,-2,0
103063,-5612,-5612,-820,-1,-1,-2,0
103068,-5614,-5612,-821,-1,-1,-2,0
103072,-5618,-5616,-827,-1,-1,-2,0
103076,-5623,-5618,-829,-1,-1,-2,0
103081,-5629,-5621,-833,-1,-1,-2,0
103085,-5639,-5621,-837,-1,-1,-2,0
103089,-5648,-5626,-847,-1,-1,-2,0
103094,-5660,-5630,-848,-1,-1,-2,0
103098,-5671,-5635,-842,-1,-1,-2,0
103102,-5682,-5637,-834,-1,-1,-2,0
103107,-5691,-5642,-832,-1,-1,-2,0
103111,-5698,-5648,-835,-1,-1,-2,0
103115,-5705,-5656,-842,-1,-1,-2,0
103120,-5709,-5658,-848,-1,-1,-2,0
103125,-5712,-5656,-853,-1,-1,-2,0
103130,-5719,-5658,-861,-1,-1,-2,0
103135,-5724,-5656,-865,-1,-1,-2,0
103140,-5726,-5654,-870,-1,-1,-2,0
103145,-5725,-5652,-873,-1,-1,-2,0
103150,-5721,-5650,-879,-1,-1,-2,0
103155,-5714,-5650,-886,-1,-1,-2,0
103160,-5707,-5653,-888,-1,0,-1,0
103165,-5705,-5653,-890,-1,0,-1,0
103170,-5706,-5656,-891,-1,0,-1,0
103175,-5710,-5658,-893,-2,0,-1,0
103180,-5713,-5663,-897,-1,0,-1,0
103185,-5714,-5666,-899,-2,0,-1,0
103190,-5716,-5673,-898,-2,0,-1,0
103195,-5719,-5677,-905,-2,0,-1,0
103200,-5722,-5679,-908,-2,0,-1,0
103205,-5723,-5679,-912,-2,0,-1,0
103210,-5723,-5680,-916,-2,-1,-1,0
103215,-5723,-5683,-913,-2,-1,-1,0
103220,-5723,-5680,-914,-2,-1,-1,0
103225,-5718,-5681,-914,-2,-1,-1,0
103230,-5714,-5684,-915,-2,-1,-1,0
103235,-5708,-5681,-917,-2,0,0,0
103240,-5702,-5675,-920,-2,0,0,0
103245,-5699,-5671,-926,-2,0,0,0
103250,-5694,-5664,-934,-2,1,0,0
103255,-5687,-5655,-935,-2,1,0,0
103260,-5682,-5645,-936,-2,1,0,0
103265,-5678,-5636,-938,-2,1,0,0
103270,-5671,-5623,-939,-2,1,0,0
103275,-5665,-5616,-945,-2,1,0,0
103280,-5661,-5611,-949,-2,1,0,0
103285,-5656,-5605,-950,-2,0,0,0
103290,-5653,-5602,-947,-2,0,0,0
103295,-5651,-5600,-948,-3,0,0,0
103300,-5652,-5599,-949,-3,-1,0,0
103305,-5655,-5601,-951,-3,-1,0,0
103310,-5659,-5603,-952,-3,-1,0,0
103315,-5659,-5605,-956,-3,-1,0,0
103320,-5656,-5606,-955,-3,-2,0,0
103325,-5652,-5611,-958,-3,-2,0,0
103330,-5651,-5613,-959,-3,-2,0,0
103335,-5652,-5616,-957,-3,-3,0,0
103341,-5652,-5624,-954,-3,-3,-1,0
103346,-5648,-5630,-952,-3,-3,-1,0
103351,-5643,-5635,-953,-3,-4,-1,0
103357,-5640,-5644,-952,-3,-4,-1,0
103363,-5637,-5654,-948,-4,-4,-1,0
103367,-5634,-5665,-949,-4,-4,-1,0
103373,-5631,-5671,-949,-4,-4,-1,0
103378,-5627,-5676,-949,-4,-4,-1,0
103383,-5626,-5686,-946,-4,-3,-1,0
103389,-5623,-5698,-947,-4,-3,-1,0
103394,-5623,-5708,-949,-4,-3,-1,0
103400,-5623,-5712,-950,-4,-3,-1,0
103405,-5621,-5716,-950,-4,-3,-1,0
103411,-5623,-5721,-945,-4,-3,-1,0
103416,-5628,-5727,-943,-4,-3,-1,0
103422,-5637,-5731,-942,-4,-3,-1,0
103427,-5640,-5734,-945,-4,-3,-1,0
103432,-5642,-5736,-948,-4,-3,-1,0
103436,-5645,-5740,-947,-4,-3,-1,0
103442,-5649,-5741,-942,-4,-3,-1,0
103447,-5655,-5739,-934,-4,-3,0,0
103452,-5660,-5735,-925,-4,-3,0,0
103457,-5661,-5730,-921,-4,-2,0,0
103462,-5660,-5728,-916,-4,-2,0,0
103466,-5654,-5725,-910,-4,-2,0,0
103471,-5651,-5721,-908,-4,-2,0,0
103477,-5653,-5717,-904,-4,-2,0,0
103482,-5656,-5713,-897,-4,-2,0,0
103487,-5662,-5707,-886,-4,-2,0,0
103493,-5672,-5699,-878,-4,-2,0,0
103498,-5679,-5690,-868,-4,-2,0,0
103503,-5685,-5679,-866,-4,-2,0,0
103508,-5690,-5669,-859,-4,-2,0,0
103513,-5687,-5662,-851,-4,-2,0,0
103518,-5683,-5656,-844,-4,-2,0,0
103524,-5680,-5648,-832,-4,-2,0,0
103529,-5678,-5641,-825,-4,-2,0,0
103535,-5677,-5637,-825,-3,-2,0,0
103540,-5675,-5635,-829,-3,-2,0,0
103545,-5671,-5635,-836,-3,-2,0,0
103550,-5665,-5635,-842,-3,-2,0,0
103556,-5659,-5637,-847,-3,-1,1,0
103561,-5659,-5641,-851,-3,-1,1,0
103565,-5663,-5642,-855,-3,-2,0,0
103571,-5673,-5639,-852,-3,-2,1,0
103576,-5681,-5640,-851,-3,-2,1,0
103581,-5683,-5643,-845,-3,-2,1,0
103586,-5680,-5643,-839,-3,-2,1,0
103591,-5676,-5643,-835,-3,-2,0,0
103596,-5674,-5641,-832,-3,-2,1,0
103601,-5668,-5639,-827,-2,-2,0,0
103606,-5662,-5638,-819,-2,-2,0,0
103611,-5653,-5638,-812,-2,-2,0,0
103617,-5647,-5638,-810,-2,-2,0,0
103622,-5637,-5638,-815,-2,-2,0,0
103626,-5631,-5637,-825,-2,-2,0,0
103631,-5629,-5632,-835,-2,-2,0,0
103636,-5628,-5633,-840,-2,-2,1,0
103641,-5621,-5632,-839,-2,-1,1,0
103646,-5614,-5629,-833,-2,-1,1,0
103651,-5606,-5623,-834,-2,-1,0,0
103656,-5596,-5615,-840,-2,0,1,0
103662,-5588,-5609,-847,-2,0,0,0
103666,-5583,-5607,-850,-2,0,0,0
103671,-5581,-5605,-848,-2,0,0,0
103677,-5581,-5606,-841,-2,0,0,0
103681,-5581,-5605,-843,-2,0,0,0
103686,-5580,-5605,-845,-2,-1,0,0
103691,-5585,-5605,-858,-2,-1,0,0
103696,-5589,-5610,-864,-2,-1,0,0
103701,-5591,-5616,-871,-2,-1,0,0
103706,-5592,-5624,-877,-2,-1,0,0
103711,-5590,-5630,-883,-2,-1,0,0
103717,-5587,-5641,-882,-1,-1,0,0
103721,-5580,-5650,-885,-1,-1,0,0
103726,-5567,-5655,-892,-1,0,-1,0
103731,-5550,-5657,-896,-1,0,-1,0
103737,-5535,-5654,-895,-1,0,-1,0
103741,-5524,-5653,-889,-1,0,-1,0
103746,-5520,-5654,-888,-1,-1,-1,0
103751,-5520,-5656,-884,-1,0,-1,0
103756,-5517,-5658,-881,-1,0,-1,0
103762,-5514,-5654,-884,-1,0,-1,0
103766,-5509,-5648,-885,-1,0,-1,0
103771,-5516,-5644,-884,-1,0,-1,0
103776,-5526,-5644,-879,-1,0,-1,0
103781,-5539,-5647,-879,-1,0,-1,0
103786,-5548,-5653,-879,-1,0,-1,0
103791,-5546,-5659,-882,-1,0,-2,0
103797,-5538,-5661,-891,-1,0,-2,0
103802,-5531,-5663,-896,-1,0,-2,0
103806,-5531,-5664,-898,-1,-1,-2,0
103812,-5536,-5666,-898,-1,-1,-2,0
103817,-5544,-5666,-898,-1,-1,-2,0
103823,-5544,-5666,-896,-1,-1,-2,0
103828,-5541,-5669,-899,-1,-1,-2,0
103834,-5539,-5671,-901,-1,-1,-2,0
103839,-5543,-5674,-908,-1,-1,-2,0
103844,-5549,-5676,-918,-1,-1,-2,0
103849,-5558,-5678,-927,-1,-1,-2,0
103855,-5562,-5676,-923,-1,-1,-2,0
103860,-5560,-5671,-917,-1,-1,-2,0
103866,-5556,-5672,-917,-1,-1,-2,0
103870,-5561,-5672,-915,-1,-2,-2,0
103876,-5569,-5669,-921,-1,-2,-2,0
103882,-5578,-5670,-926,-1,-2,-2,0
103887,-5584,-5673,-927,-1,-2,-2,0
103892,-5591,-5673,-924,-1,-2,-2,0
103897,-5598,-5676,-920,-1,-2,-2,0
103902,-5606,-5681,-917,-2,-2,-2,0
103907,-5612,-5683,-912,-2,-2,-2,0
103912,-5616,-5686,-913,-2,-2,-2,0
103917,-5620,-5693,-920,-2,-2,-2,0
103922,-5623,-5701,-925,-2,-2,-2,0
103926,-5628,-5706,-932,-2,-2,-2,0
103930,-5629,-5712,-936,-2,-2,-2,0
103935,-5634,-5716,-942,-2,-2,-2,0
103941,-5638,-5716,-943,-2,-2,-2,0
103946,-5643,-5716,-940,-2,-2,-2,0
103951,-5647,-5715,-934,-2,-2,-2,0
103956,-5649,-5714,-930,-2,-2,-2,0
103962,-5652,-5712,-925,-2,-2,-2,0
103966,-5653,-5711,-924,-2,-2,-2,0
103972,-5653,-5712,-922,-2,-2,-2,0
103978,-5653,-5708,-924,-2,-2,-2,0
103983,-5652,-5707,-925,-2,-2,-2,0
103988,-5652,-5705,-929,-2,-2,-2,0
103993,-5652,-5704,-930,-2,-3,-2,0
103998,-5649,-5703,-924,-2,-3,-2,0
104004,-5652,-5703,-921,-2,-3,-2,0
104009,-5654,-5703,-917,-2,-3,-2,0
104014,-5656,-5701,-916,-2,-2,-2,0
104019,-5659,-5695,-914,-2,-2,-2,0
104024,-5660,-5692,-911,-2,-3,-2,0
104030,-5661,-5684,-912,-2,-2,-2,0
104035,-5659,-5677,-910,-2,-2,-2,0
104041,-5656,-5660,-907,-2,-2,-2,0
104046,-5652,-5646,-904,-2,-1,-2,0
104052,-5651,-5629,-902,-2,-1,-1,0
104058,-5653,-5613,-905,-2,-1,-1,0
104063,-5655,-5599,-910,-2,0,-1,0
104068,-5654,-5584,-921,-2,0,-1,0
104073,-5648,-5570,-929,-2,1,-1,0
104078,-5640,-5558,-940,-2,2,-1,0
104083,-5630,-5549,-945,-2,2,-1,0
104088,-5621,-5542,-947,-2,2,-1,0
104094,-5617,-5538,-947,-2,3,-1,0
104099,-5614,-5540,-946,-2,3,-1,0
104105,-5606,-5543,-948,-2,3,-1,0
104110,-5594,-5553,-951,-2,3,-1,0
104115,-5582,-5563,-954,-2,3,-1,0
104120,-5576,-5575,-953,-2,3,-1,0
104125,-5568,-5593,-950,-2,2,-1,0
104131,-5564,-5617,-945,-2,1,-1,0
104136,-5566,-5643,-940,-2,1,-2,0
104141,-5573,-5672,-940,-2,0,-2,0
104146,-5580,-5699,-935,-2,0,-2,0
104151,-5582,-5726,-930,-2,-1,-2,0
104156,-5575,-5748,-922,-2,-2,-2,0
104162,-5572,-5768,-914,-3,-2,-2,0
104166,-5571,-5781,-905,-3,-3,-2,0
104172,-5571,-5797,-900,-3,-4,-3,0
104178,-5564,-5811,-897,-3,-4,-3,0
104182,-5549,-5828,-899,-3,-5,-3,0
104186,-5525,-5843,-903,-3,-5,-3,0
104191,-5495,-5858,-910,-3,-5,-3,0
104195,-5469,-5869,-912,-3,-5,-3,0
104199,-5457,-5876,-918,-4,-6,-3,0
104204,-5454,-5879,-924,-4,-6,-3,0
104208,-5445,-5882,-929,-4,-6,-3,0
104212,-5429,-5887,-933,-4,-5,-3,0
104217,-5407,-5885,-943,-4,-4,-3,0
104221,-5388,-5877,-955,-4,-4,-3,0
104226,-5386,-5866,-966,-4,-4,-3,0
104230,-5389,-5856,-973,-4,-3,-4,0
104234,-5387,-5846,-973,-4,-3,-4,0
104239,-5372,-5836,-971,-4,-2,-4,0
104243,-5341,-5822,-971,-4,-1,-4,0
104248,-5315,-5811,-978,-4,-1,-4,0
104252,-5301,-5798,-989,-4,0,-4,0
104256,-5304,-5782,-998,-4,-1,-4,0
104261,-5316,-5769,-997,-4,0,-4,0
104265,-5323,-5758,-992,-4,0,-4,0
104269,-5323,-5748,-986,-3,1,-4,0
104274,-5327,-5734,-985,-3,1,-4,0
104278,-5334,-5720,-987,-3,2,-5,0
104282,-5344,-5711,-994,-3,1,-5,0
104286,-5355,-5704,-993,-3,1,-5,0
104291,-5364,-5701,-991,-3,1,-5,0
104295,-5364,-5693,-986,-3,0,-5,0
104299,-5364,-5684,-986,-3,0,-5,0
104303,-5368,-5679,-987,-3,-1,-5,0
104307,-5379,-5680,-989,-3,-1,-6,0
104312,-5387,-5682,-988,-3,-2,-6,0
104316,-5397,-5689,-982,-3,-2,-6,0
104320,-5410,-5697,-970,-3,-2,-6,0
104325,-5426,-5707,-966,-3,-3,-6,0
104329,-5449,-5715,-965,-3,-3,-6,0
104333,-5466,-5727,-961,-3,-3,-6,0
104338,-5476,-5738,-961,-3,-4,-6,0
104342,-5484,-5754,-956,-3,-4,-6,0
104346,-5483,-5780,-955,-3,-4,-6,0
104351,-5482,-5802,-950,-4,-5,-6,0
104355,-5501,-5812,-952,-4,-6,-6,0
104359,-5529,-5820,-954,-4,-6,-5,0
104364,-5558,-5834,-949,-4,-6,-5,0
104368,-5579,-5855,-939,-4,-5,-5,0
104373,-5597,-5866,-932,-4,-5,-5,0
104378,-5620,-5872,-937,-4,-5,-5,0
104383,-5642,-5879,-942,-4,-5,-5,0
104388,-5658,-5890,-947,-4,-4,-4,0
104393,-5668,-5905,-949,-4,-3,-4,0
104398,-5665,-5913,-950,-4,-2,-4,0
104403,-5664,-5917,-958,-4,-2,-4,0
104408,-5666,-5915,-967,-4,-2,-3,0
104413,-5680,-5912,-977,-4,-2,-3,0
104418,-5687,-5910,-977,-4,-2,-3,0
104423,-5686,-5910,-972,-4,-3,-2,0
104428,-5682,-5907,-967,-4,-3,-2,0
104433,-5683,-5903,-965,-4,-3,-2,0
104438,-5695,-5899,-968,-4,-3,-2,0
104443,-5714,-5895,-973,-4,-3,-1,0
104448,-5735,-5891,-977,-4,-4,-1,0
104453,-5750,-5891,-972,-4,-4,-1,0
104458,-5754,-5890,-966,-4,-3,-1,0
104463,-5756,-5887,-958,-4,-3,0,0
104468,-5752,-5882,-963,-4,-3,0,0
104473,-5750,-5873,-965,-4,-3,0,0
104478,-5750,-5868,-963,-4,-3,0,0
104483,-5747,-5862,-959,-4,-3,1,0
104488,-5738,-5856,-955,-4,-3,1,0
104493,-5732,-5846,-955,-4,-3,1,0
104498,-5724,-5840,-954,-4,-3,1,0
104503,-5716,-5835,-949,-4,-2,1,0
104508,-5710,-5830,-942,-4,-2,1,0
104513,-5703,-5824,-935,-4,-2,2,0
104518,-5696,-5822,-927,-4,-2,2,0
104523,-5687,-5821,-915,-4,-1,2,0
104528,-5673,-5817,-907,-4,-1,2,0
104533,-5662,-5813,-902,-4,-1,2,0
104538,-5649,-5807,-895,-4,-1,2,0
104543,-5636,-5804,-887,-4,-1,2,0
104548,-5629,-5809,-878,-4,-1,2,0
104553,-5618,-5815,-873,-4,-1,2,0
104558,-5606,-5819,-875,-4,-1,2,0
104563,-5590,-5819,-871,-4,-1,2,0
104568,-5570,-5819,-868,-4,-1,2,0
104573,-5549,-5817,-865,-4,-1,2,0
104578,-5531,-5814,-858,-3,-1,2,0
104582,-5516,-5817,-851,-3,-1,2,0
104588,-5500,-5826,-850,-3,-1,2,0
104593,-5486,-5831,-850,-3,-1,2,0
104597,-5471,-5828,-856,-3,-1,2,0
104602,-5451,-5821,-853,-3,0,2,0
104608,-5430,-5813,-841,-3,0,2,0
104612,-5418,-5802,-832,-3,0,2,0
104617,-5413,-5792,-822,-3,0,2,0
104622,-5405,-5785,-823,-3,0,2,0
104627,-5394,-5779,-823,-3,0,2,0
104632,-5379,-5776,-828,-3,0,2,0
104637,-5364,-5774,-832,-3,0,2,0
104642,-5350,-5771,-838,-2,0,1,0
104647,-5340,-5765,-841,-2,0,1,0
104652,-5334,-5761,-842,-2,0,1,0
104657,-5321,-5755,-840,-2,1,1,0
104662,-5308,-5751,-841,-2,1,1,0
104667,-5292,-5751,-844,-2,1,1,0
104672,-5278,-5756,-847,-2,1,1,0
104677,-5261,-5761,-852,-2,2,0,0
104682,-5242,-5767,-857,-2,2,0,0
104687,-5228,-5774,-863,-2,2,0,0
104692,-5215,-5783,-876,-1,3,0,0
104697,-5209,-5795,-885,-1,3,0,0
104702,-5201,-5805,-896,-1,3,-1,0
104707,-5193,-5816,-903,-1,3,-1,0
104712,-5185,-5824,-908,-1,4,-1,0
104717,-5177,-5832,-913,-1,4,-2,0
104722,-5174,-5840,-917,-1,4,-2,0
104727,-5170,-5847,-923,-1,3,-2,0
104732,-5171,-5852,-931,-1,3,-3,0
104737,-5164,-5854,-941,-1,2,-3,0
104742,-5148,-5860,-954,-1,2,-3,0
104747,-5130,-5865,-956,-1,2,-3,0
104752,-5115,-5868,-959,-1,1,-4,0
104757,-5110,-5872,-960,0,1,-4,0
104762,-5107,-5877,-959,0,1,-4,0
104767,-5113,-5883,-969,0,0,-4,0
104772,-5116,-5888,-973,0,0,-5,0
104777,-5112,-5896,-974,0,0,-5,0
104782,-5107,-5907,-975,0,1,-5,0
104787,-5105,-5915,-985,0,1,-5,0
104793,-5109,-5923,-1000,0,1,-5,0
104798,-5118,-5927,-1012,0,1,-5,0
104803,-5129,-5931,-1009,0,1,-5,0
104808,-5141,-5930,-1002,0,1,-5,0
104814,-5153,-5929,-997,0,1,-5,0
104819,-5168,-5932,-996,0,1,-5,0
104824,-5188,-5933,-996,-1,1,-5,0
104829,-5210,-5936,-1007,-1,1,-5,0
104835,-5227,-5929,-1015,-1,1,-5,0
104840,-5252,-5922,-1017,-1,0,-5,0
104845,-5277,-5915,-1011,-1,0,-5,0
104850,-5302,-5915,-1013,-1,0,-5,0
104855,-5328,-5917,-1017,-1,-1,-5,0
104861,-5354,-5920,-1035,-1,-1,-5,0
104866,-5374,-5918,-1050,-1,-1,-5,0
104872,-5382,-5916,-1063,-1,-1,-5,0
104877,-5385,-5907,-1068,-1,-1,-5,0
104882,-5383,-5894,-1066,-1,-1,-5,0
104888,-5389,-5883,-1060,-1,-1,-5,0
104893,-5396,-5869,-1057,-1,-1,-5,0
104898,-5406,-5859,-1057,-1,-1,-5,0
104903,-5413,-5855,-1058,-1,-1,-5,0
104908,-5423,-5857,-1057,-1,-1,-5,0
104913,-5436,-5861,-1062,-1,-1,-5,0
104918,-5452,-5867,-1064,-1,-1,-4,0
104924,-5468,-5875,-1067,-1,-1,-4,0
104928,-5485,-5883,-1069,0,-1,-4,0
104934,-5498,-5888,-1072,-1,0,-4,0
104939,-5506,-5891,-1069,-1,0,-4,0
104945,-5508,-5894,-1067,-1,1,-4,0
104950,-5511,-5899,-1067,-1,1,-4,0
104955,-5512,-5907,-1072,-1,2,-4,0
104960,-5512,-5913,-1074,-1,2,-4,0
104966,-5503,-5917,-1072,-1,2,-4,0
104970,-5498,-5917,-1066,-1,2,-4,0
104975,-5489,-5916,-1063,-1,2,-4,0
104980,-5482,-5914,-1056,-1,2,-4,0
104985,-5480,-5914,-1057,-1,2,-4,0
104990,-5480,-5917,-1056,-1,1,-3,0
104995,-5483,-5922,-1058,-1,1,-3,0
105000,-5484,-5928,-1054,-1,1,-3,0
105005,-5484,-5932,-1056,-1,1,-3,0
105010,-5482,-5938,-1058,-1,1,-3,0
105016,-5479,-5944,-1064,-1,1,-3,0
105021,-5465,-5949,-1075,-1,2,-3,0
105026,-5443,-5949,-1080,-1,2,-3,0
105031,-5419,-5950,-1084,-1,2,-3,0
105036,-5402,-5953,-1092,-1,1,-3,0
105042,-5397,-5959,-1099,-1,1,-3,0
105047,-5387,-5958,-1108,-1,1,-3,0
105052,-5377,-5924,-1103,-1,1,-3,0
105057,-5363,-5912,-1099,-1,1,-3,0
105063,-5364,-5927,-1098,-1,-1,-3,0
105067,-5369,-5950,-1098,-1,0,-3,0
105073,-5357,-5954,-1102,-1,1,-3,0
105078,-5334,-5934,-1112,-1,1,-3,0
105084,-5316,-5902,-1115,-1,1,-3,0
105089,-5315,-5872,-1114,-1,1,-3,0
105094,-5321,-5852,-1107,-2,1,-3,0
105099,-5334,-5841,-1103,-2,1,-3,0
105104,-5340,-5834,-1101,-2,1,-3,0
105109,-5331,-5830,-1099,-2,1,-3,0
105113,-5308,-5826,-1099,-2,1,-3,0
105119,-5290,-5822,-1099,-2,1,-3,0
105124,-5287,-5823,-1101,-2,0,-3,0
105128,-5301,-5830,-1102,-2,-1,-3,0
105134,-5324,-5839,-1102,-2,-1,-3,0
105139,-5351,-5845,-1102,-2,-1,-3,0
105145,-5358,-5853,-1103,-2,-2,-3,0
105151,-5366,-5862,-1099,-2,-2,-3,0
105156,-5368,-5875,-1108,-3,-2,-3,0
105162,-5382,-5889,-1123,-3,-3,-3,0
105167,-5402,-5906,-1141,-3,-3,-3,0
105172,-5434,-5924,-1151,-3,-3,-3,0
105178,-5454,-5944,-1159,-3,-3,-3,0
105183,-5469,-5962,-1155,-3,-3,-3,0
105189,-5471,-5980,-1153,-3,-2,-3,0
105194,-5470,-5999,-1156,-3,-2,-3,0
105200,-5467,-6019,-1169,-3,-2,-3,0
105205,-5468,-6039,-1185,-3,-2,-2,0
105211,-5462,-6059,-1191,-3,-2,-2,0
105217,-5458,-6076,-1183,-3,-2,-2,0
105222,-5451,-6091,-1172,-3,-2,-2,0
105227,-5448,-6109,-1169,-3,-2,-2,0
105233,-5453,-6124,-1174,-3,-3,-1,0
105238,-5462,-6136,-1182,-3,-3,-1,0
105243,-5469,-6143,-1181,-3,-3,-1,0
105248,-5476,-6143,-1165,-3,-3,-1,0
105254,-5486,-6138,-1146,-3,-3,0,0
105259,-5497,-6131,-1120,-3,-3,0,0
105264,-5506,-6126,-1105,-3,-3,0,0
105269,-5509,-6120,-1100,-3,-2,0,0
105274,-5509,-6115,-1095,-3,-2,1,0
105279,-5507,-6106,-1085,-3,-2,1,0
105285,-5507,-6099,-1072,-3,-2,1,0
105290,-5512,-6095,-1058,-4,-2,2,0
105296,-5528,-6091,-1050,-3,-3,2,0
105301,-5547,-6087,-1042,-3,-2,2,0
105306,-5561,-6084,-1044,-3,-1,3,0
105311,-5566,-6078,-1044,-3,0,3,0
105316,-5567,-6073,-1041,-3,0,3,0
105321,-5561,-6063,-1036,-3,1,3,0
105326,-5557,-6050,-1031,-3,1,4,0
105331,-5556,-6037,-1018,-3,1,4,0
105336,-5556,-6022,-1013,-3,2,4,0
105341,-5556,-6009,-1013,-3,3,5,0
105346,-5552,-5996,-1018,-3,4,5,0
105351,-5543,-5981,-1026,-3,5,5,0
105357,-5539,-5970,-1031,-3,6,6,0
105361,-5537,-5964,-1033,-3,7,6,0
105367,-5542,-5956,-1033,-2,8,6,0
105372,-5552,-5947,-1038,-2,9,6,0
105377,-5558,-5932,-1041,-2,11,6,0
105381,-5548,-5909,-1040,-2,12,7,0
105385,-5538,-5892,-1038,-2,12,7,0
105389,-5528,-5874,-1035,-2,12,7,0
105393,-5526,-5858,-1030,-2,13,7,0
105398,-5528,-5848,-1031,-2,12,7,0
105402,-5529,-5845,-1027,-2,12,7,0
105406,-5528,-5842,-1028,-1,11,7,0
105410,-5525,-5844,-1031,-1,11,7,0
105415,-5519,-5850,-1034,-1,10,7,0
105420,-5515,-5855,-1036,-1,9,7,0
105424,-5512,-5866,-1039,-1,7,6,0
105428,-5510,-5882,-1040,-1,5,6,0
105432,-5514,-5906,-1044,-1,3,6,0
105436,-5513,-5937,-1045,-1,1,6,0
105440,-5504,-5966,-1045,-1,0,6,0
105444,-5484,-5987,-1043,-1,-1,5,0
105448,-5452,-6002,-1041,-1,-2,5,0
105452,-5418,-6012,-1041,-1,-3,5,0
105456,-5392,-6021,-1044,-1,-5,5,0
105461,-5369,-6028,-1053,-1,-6,5,0
105465,-5346,-6033,-1058,-1,-7,4,0
105469,-5321,-6039,-1057,-1,-8,4,0
105473,-5291,-6044,-1056,-1,-7,4,0
105478,-5259,-6045,-1061,-1,-7,4,0
105482,-5234,-6046,-1067,-1,-7,4,0
105486,-5213,-6043,-1074,-1,-7,4,0
105490,-5193,-6037,-1078,-1,-7,4,0
105495,-5171,-6034,-1075,-1,-7,4,0
105499,-5150,-6028,-1078,-1,-7,4,0
105503,-5127,-6022,-1080,-1,-6,4,0
105507,-5102,-6014,-1086,-1,-5,3,0
105512,-5086,-6002,-1090,-1,-5,3,0
105516,-5072,-5988,-1095,-1,-4,3,0
105521,-5054,-5971,-1100,-1,-3,3,0
105526,-5040,-5951,-1101,-1,-2,3,0
105531,-5024,-5936,-1100,-1,-2,3,0
105536,-5016,-5923,-1108,-1,-1,3,0
105541,-5013,-5912,-1122,-1,0,3,0
105546,-5012,-5902,-1137,0,0,3,0
105551,-5007,-5887,-1149,0,1,3,0
105556,-5010,-5869,-1152,0,1,3,0
105561,-5016,-5845,-1148,0,1,2,0
105566,-5026,-5821,-1143,0,1,2,0
105571,-5043,-5799,-1142,0,2,2,0
105576,-5060,-5778,-1141,0,2,2,0
105581,-5075,-5758,-1142,0,2,2,0
105586,-5089,-5741,-1145,0,2,1,0
105591,-5103,-5732,-1144,0,2,1,0
105596,-5114,-5725,-1142,0,2,1,0
105601,-5129,-5724,-1137,0,2,1,0
105606,-5141,-5725,-1135,0,2,0,0
105611,-5150,-5731,-1136,0,3,0,0
105616,-5157,-5743,-1140,1,2,0,0
105621,-5165,-5761,-1141,1,2,0,0
105626,-5172,-5781,-1149,1,2,0,0
105631,-5180,-5803,-1146,1,2,-1,0
105636,-5195,-5827,-1145,1,1,-1,0
105641,-5211,-5850,-1136,1,0,-1,0
105646,-5229,-5877,-1128,1,-1,-1,0
105651,-5243,-5905,-1123,1,-1,-1,0
105656,-5257,-5935,-1119,1,-2,-1,0
105661,-5273,-5962,-1109,1,-3,-2,0
105666,-5291,-5985,-1099,1,-4,-2,0
105671,-5306,-6008,-1087,1,-4,-2,0
105676,-5319,-6028,-1073,1,-5,-2,0
105681,-5324,-6041,-1058,1,-6,-2,0
105686,-5330,-6053,-1050,1,-7,-2,0
105691,-5343,-6064,-1049,1,-7,-2,0
105696,-5355,-6076,-1051,1,-8,-2,0
105701,-5360,-6083,-1044,1,-8,-2,0
105706,-5367,-6088,-1039,1,-8,-2,0
105711,-5371,-6089,-1034,1,-8,-2,0
105716,-5369,-6094,-1031,1,-8,-2,0
105721,-5369,-6098,-1028,2,-7,-2,0
105726,-5366,-6100,-1028,2,-7,-2,0
105731,-5360,-6094,-1034,2,-6,-2,0
105736,-5349,-6084,-1034,2,-5,-2,0
105741,-5337,-6068,-1034,2,-5,-2,0
105746,-5326,-6049,-1034,2,-5,-2,0
105751,-5312,-6029,-1035,2,-4,-2,0
105756,-5300,-6004,-1034,2,-4,-2,0
105761,-5292,-5979,-1033,2,-4,-2,0
105766,-5282,-5955,-1033,2,-4,-1,0
105771,-5271,-5925,-1030,2,-4,-1,0
105776,-5260,-5897,-1021,3,-4,-1,0
105781,-5261,-5871,-1016,3,-4,-1,0
105786,-5276,-5848,-1008,3,-4,-1,0
105791,-5296,-5833,-1005,3,-4,-1,0
105796,-5317,-5819,-998,3,-4,-1,0
105801,-5337,-5808,-996,3,-4,-1,0
105806,-5350,-5793,-989,3,-3,-1,0
105811,-5364,-5779,-982,3,-3,-1,0
105816,-5382,-5764,-977,3,-3,-1,0
105821,-5406,-5752,-973,3,-3,-1,0
105826,-5432,-5742,-971,3,-3,-1,0
105831,-5451,-5737,-968,3,-3,-1,0
105836,-5466,-5742,-969,3,-3,-1,0
105841,-5472,-5747,-976,3,-3,-1,0
105846,-5478,-5752,-986,3,-4,-1,0
105851,-5488,-5755,-993,3,-4,-1,0
105857,-5497,-5758,-998,3,-4,-1,0
105862,-5507,-5759,-993,3,-4,-1,0
105868,-5516,-5762,-991,3,-4,-1,0
105873,-5528,-5769,-995,3,-4,-1,0
105879,-5539,-5778,-1005,3,-3,-1,0
105884,-5546,-5786,-1020,3,-2,-1,0
105889,-5552,-5794,-1034,3,-2,-1,0
105893,-5557,-5805,-1046,3,-2,0,0
105898,-5554,-5819,-1050,3,-1,0,0
105903,-5548,-5830,-1053,3,0,0,0
105908,-5541,-5835,-1053,3,1,0,0
105913,-5539,-5838,-1055,3,1,0,0
105918,-5533,-5842,-1060,3,1,0,0
105921,-5538,-5853,-1068,3,0,1,0
105926,-5547,-5865,-1071,3,0,1,0
105931,-5562,-5873,-1070,3,0,1,0
105936,-5582,-5877,-1062,3,0,1,0
105941,-5599,-5875,-1056,3,0,1,0
105946,-5608,-5875,-1050,3,0,1,0
105951,-5616,-5872,-1040,3,0,2,0
105956,-5627,-5868,-1032,3,-1,2,0
105961,-5639,-5859,-1026,3,-2,2,0
105966,-5660,-5852,-1024,3,-3,2,0
105971,-5681,-5849,-1026,3,-3,2,0
105976,-5692,-5846,-1033,3,-3,2,0
105982,-5697,-5840,-1036,3,-2,2,0
105987,-5699,-5832,-1040,3,-1,3,0
105992,-5695,-5822,-1051,2,0,3,0
105997,-5694,-5811,-1072,2,1,3,0
106002,-5686,-5805,-1089,2,2,4,0
106007,-5673,-5798,-1103,2,3,4,0
106012,-5662,-5793,-1121,2,4,4,0
106017,-5650,-5788,-1135,2,6,4,0
106022,-5635,-5782,-1147,2,7,5,0
106027,-5625,-5776,-1160,2,8,5,0
106031,-5622,-5764,-1170,2,8,5,0
106036,-5620,-5754,-1183,1,8,6,0
106040,-5617,-5745,-1195,1,9,6,0
106046,-5615,-5743,-1202,1,9,6,0
106050,-5615,-5742,-1208,1,9,6,0
106056,-5615,-5742,-1208,1,9,6,0
106061,-5615,-5743,-1213,1,9,6,0
106065,-5621,-5747,-1216,0,8,6,0
106071,-5635,-5759,-1219,0,8,6,0
106076,-5655,-5774,-1222,0,8,6,0
106081,-5675,-5794,-1220,0,8,6,0
106086,-5697,-5820,-1220,-1,8,6,0
106091,-5718,-5850,-1219,-1,7,6,0
106096,-5735,-5886,-1212,-1,7,6,0
106101,-5748,-5918,-1200,-1,6,6,0
106105,-5764,-5949,-1192,-2,5,5,0
106110,-5789,-5981,-1179,-2,5,5,0
106116,-5806,-6007,-1163,-2,5,5,0
106121,-5825,-6027,-1142,-2,6,5,0
106126,-5846,-6037,-1128,-2,7,4,0
106130,-5865,-6046,-1120,-3,9,4,0
106135,-5879,-6051,-1119,-3,12,4,0
106140,-5887,-6050,-1127,-3,15,4,0
106145,-5888,-6044,-1133,-3,19,4,0
106150,-5879,-6029,-1140,-3,23,4,0
106155,-5858,-6008,-1138,-3,26,3,0
106160,-5829,-5988,-1144,-3,29,3,0
106166,-5799,-5968,-1150,-3,31,3,0
106171,-5766,-5945,-1157,-3,33,3,0
106175,-5730,-5924,-1160,-3,34,3,0
106180,-5689,-5896,-1153,-3,34,3,0
106186,-5642,-5868,-1149,-3,33,3,0
106190,-5597,-5840,-1143,-3,32,3,0
106196,-5548,-5812,-1141,-3,31,3,0
106200,-5504,-5781,-1143,-3,28,3,0
106205,-5463,-5748,-1142,-3,25,3,0
106210,-5426,-5723,-1145,-3,22,3,0
106216,-5402,-5706,-1143,-3,18,3,0
106221,-5392,-5693,-1147,-3,16,3,0
106226,-5396,-5678,-1151,-3,13,3,0
106231,-5408,-5661,-1159,-4,11,3,0
106236,-5429,-5643,-1168,-4,8,3,0
106241,-5451,-5626,-1176,-4,6,3,0
106246,-5477,-5614,-1179,-4,5,3,0
106250,-5504,-5606,-1177,-4,4,3,0
106255,-5537,-5598,-1178,-5,4,3,0
106260,-5564,-5590,-1185,-5,4,3,0
106265,-5588,-5588,-1200,-5,4,3,0
106270,-5596,-5587,-1214,-5,4,3,0
106276,-5597,-5588,-1221,-6,4,3,0
106281,-5591,-5591,-1225,-6,3,2,0
106286,-5586,-5595,-1225,-6,2,2,0
106291,-5585,-5600,-1233,-6,1,2,0
106297,-5587,-5604,-1242,-7,-1,2,0
106302,-5585,-5609,-1253,-7,-3,2,0
106307,-5579,-5617,-1256,-7,-4,2,0
106313,-5564,-5622,-1258,-8,-6,2,0
106318,-5559,-5619,-1260,-8,-8,2,0
106324,-5554,-5620,-1260,-8,-10,3,0
106328,-5555,-5623,-1258,-8,-12,3,0
106334,-5564,-5620,-1260,-9,-14,3,0
106339,-5580,-5611,-1260,-9,-15,3,0
106344,-5600,-5603,-1259,-9,-16,3,0
106349,-5618,-5588,-1266,-10,-16,3,0
106355,-5632,-5579,-1274,-10,-15,3,0
106359,-5643,-5568,-1282,-10,-15,3,0
106365,-5661,-5552,-1291,-10,-14,3,0
106370,-5683,-5535,-1302,-10,-13,3,0
106375,-5697,-5522,-1312,-11,-11,3,0
106380,-5706,-5510,-1321,-11,-10,3,0
106385,-5705,-5501,-1330,-11,-9,3,0
106390,-5702,-5493,-1344,-11,-8,3,0
106396,-5692,-5486,-1348,-11,-7,4,0
106401,-5673,-5482,-1358,-11,-6,4,0
106407,-5646,-5476,-1363,-11,-6,4,0
106411,-5618,-5468,-1367,-11,-6,4,0
106416,-5593,-5460,-1365,-11,-6,4,0
106420,-5567,-5457,-1362,-10,-7,4,0
106425,-5548,-5459,-1359,-10,-9,4,0
106430,-5530,-5462,-1367,-10,-11,4,0
106435,-5514,-5465,-1370,-10,-12,4,0
106440,-5494,-5465,-1366,-10,-13,4,0
106446,-5479,-5464,-1359,-9,-14,4,0
106451,-5473,-5466,-1354,-9,-16,4,0
106456,-5480,-5468,-1356,-9,-16,4,0
106462,-5495,-5475,-1361,-9,-17,4,0
106466,-5516,-5483,-1367,-8,-17,4,0
106471,-5541,-5489,-1368,-8,-17,4,0
106477,-5559,-5496,-1371,-8,-17,4,0
106482,-5570,-5499,-1372,-7,-16,3,0
106487,-5579,-5501,-1372,-7,-15,3,0
106493,-5586,-5504,-1374,-7,-13,3,0
106498,-5593,-5516,-1378,-7,-12,3,0
106504,-5601,-5530,-1386,-6,-11,3,0
106509,-5600,-5547,-1396,-6,-10,3,0
106514,-5588,-5561,-1401,-5,-9,3,0
106519,-5566,-5569,-1398,-5,-8,3,0
106525,-5544,-5571,-1384,-5,-8,3,0
106529,-5528,-5566,-1372,-4,-9,3,0
106534,-5521,-5563,-1356,-4,-9,3,0
106539,-5514,-5564,-1342,-4,-9,3,0
106544,-5502,-5568,-1331,-3,-9,3,0
106549,-5488,-5569,-1326,-3,-9,3,0
106554,-5469,-5564,-1325,-3,-9,3,0
106559,-5450,-5558,-1325,-3,-10,3,0
106563,-5440,-5547,-1320,-2,-10,3,0
106568,-5435,-5541,-1312,-2,-10,3,0
106572,-5437,-5537,-1305,-2,-9,3,0
106577,-5442,-5536,-1308,-2,-9,3,0
106582,-5451,-5539,-1330,-1,-8,3,0
106587,-5457,-5542,-1349,-1,-7,3,0
106593,-5450,-5545,-1361,-1,-6,4,0
106598,-5432,-5544,-1367,-1,-4,3,0
106604,-5420,-5535,-1360,0,-4,3,0
106608,-5423,-5523,-1344,0,-3,3,0
106613,-5440,-5510,-1350,0,-2,3,0
106617,-5463,-5502,-1363,0,-1,3,0
106621,-5478,-5494,-1380,1,-1,3,0
106625,-5481,-5489,-1388,1,0,3,0
106629,-5472,-5485,-1392,1,0,3,0
106633,-5459,-5478,-1393,1,1,3,0
106637,-5452,-5471,-1397,1,1,3,0
106641,-5455,-5462,-1403,1,1,3,0
106645,-5462,-5456,-1408,1,1,3,0
106650,-5463,-5450,-1406,2,1,3,0
106655,-5457,-5443,-1404,2,0,3,0
106660,-5446,-5434,-1400,2,0,3,0
106665,-5437,-5423,-1401,2,0,3,1
106670,-5436,-5415,-1402,2,-1,3,1
106675,-5435,-5413,-1414,2,-1,2,1
106680,-5443,-5417,-1433,2,-2,2,1
106685,-5457,-5421,-1448,2,-2,2,1
106690,-5469,-5422,-1456,2,-3,2,1
106695,-5483,-5418,-1456,2,-3,2,1
106700,-5495,-5420,-1452,2,-4,2,1
106705,-5512,-5418,-1455,2,-4,1,1
106710,-5537,-5418,-1464,2,-4,1,1
106715,-5558,-5419,-1480,2,-4,1,1
106720,-5579,-5416,-1492,2,-4,1,1
106725,-5596,-5407,-1504,2,-5,0,1
106730,-5611,-5395,-1506,2,-5,0,1
106735,-5626,-5383,-1496,1,-5,0,1
106740,-5647,-5368,-1487,1,-5,-1,1
106745,-5667,-5360,-1485,1,-5,-1,1
106750,-5676,-5351,-1498,1,-5,-1,1
106755,-5674,-5333,-1526,1,-6,-1,1
106760,-5668,-5307,-1553,1,-7,-2,1
106765,-5661,-5274,-1563,0,-7,-2,1
106770,-5663,-5236,-1561,0,-8,-2,1
106775,-5665,-5200,-1554,0,-9,-2,1
106780,-5660,-5165,-1553,-1,-10,-2,1
106785,-5651,-5125,-1549,-1,-10,-2,1
106790,-5634,-5084,-1552,-1,-11,-2,1
106795,-5609,-5045,-1558,-2,-12,-2,1
106800,-5587,-5007,-1558,-2,-13,-2,1
106804,-5572,-4978,-1551,-2,-15,-2,1
106809,-5567,-4957,-1542,-3,-16,-2,1
106814,-5574,-4949,-1523,-3,-17,-2,1
106819,-5584,-4953,-1507,-3,-17,-2,1
106824,-5597,-4951,-1483,-4,-16,-1,1
106829,-5616,-4942,-1462,-4,-16,-1,1
106834,-5648,-4927,-1436,-5,-15,-1,1
106839,-5686,-4914,-1414,-5,-15,-1,1
106844,-5733,-4907,-1387,-6,-14,-1,1
106849,-5778,-4906,-1362,-6,-13,-1,1
106854,-5818,-4904,-1327,-6,-12,-1,1
106859,-5842,-4899,-1293,-7,-10,-1,1
106864,-5855,-4893,-1267,-7,-10,-1,1
106869,-5868,-4886,-1253,-8,-10,-1,1
106874,-5880,-4877,-1247,-8,-11,-1,1
106879,-5884,-4865,-1246,-8,-12,-1,1
106884,-5886,-4844,-1232,-9,-14,-1,1
106889,-5890,-4824,-1208,-9,-16,-1,1
106894,-5895,-4800,-1189,-9,-18,-1,1
106899,-5906,-4774,-1180,-9,-19,-1,1
106904,-5915,-4748,-1181,-9,-19,-1,1
106909,-5916,-4722,-1187,-9,-19,-1,1
106914,-5909,-4704,-1192,-9,-19,-1,1
106919,-5894,-4693,-1178,-9,-19,-1,1
106924,-5871,-4681,-1161,-10,-18,-1,1
106929,-5835,-4663,-1131,-10,-18,-1,1
106934,-5783,-4642,-1101,-10,-18,-1,1
106939,-5717,-4617,-1069,-10,-18,-1,1
106944,-5643,-4590,-1023,-10,-20,-1,1
106949,-5562,-4565,-962,-10,-21,-1,1
106954,-5477,-4543,-891,-10,-22,-1,1
106959,-5380,-4524,-818,-10,-23,-1,1
106964,-5275,-4503,-754,-10,-24,-1,1
106969,-5164,-4486,-695,-10,-25,-1,1
106974,-5064,-4479,-646,-10,-26,-2,1
106979,-4980,-4487,-607,-10,-27,-2,1
106984,-4905,-4509,-573,-10,-26,-2,1
106989,-4842,-4542,-545,-10,-26,-2,1
106994,-4782,-4573,-521,-10,-24,-2,1
106999,-4726,-4598,-497,-10,-22,-3,1
107004,-4675,-4620,-472,-10,-20,-3,1
107009,-4636,-4640,-443,-10,-19,-4,1
107014,-4603,-4664,-416,-10,-19,-5,1
107019,-4576,-4699,-389,-10,-18,-6,1
107024,-4553,-4749,-359,-10,-17,-7,1
107029,-4537,-4813,-323,-10,-17,-8,1
107034,-4537,-4894,-291,-10,-16,-9,1
107039,-4545,-4988,-260,-10,-15,-10,1
107045,-4549,-5089,-234,-10,-13,-11,1
107050,-4550,-5195,-214,-10,-11,-13,1
107056,-4551,-5295,-204,-9,-9,-14,1
107062,-4560,-5397,-198,-9,-9,-15,1
107067,-4576,-5495,-183,-9,-8,-17,1
107072,-4595,-5580,-156,-9,-8,-18,1
107077,-4616,-5665,-124,-9,-7,-19,1
107083,-4635,-5750,-90,-8,-7,-21,1
107088,-4653,-5836,-59,-8,-6,-22,1
107094,-4666,-5923,-37,-8,-7,-23,1
107100,-4678,-6007,-24,-8,-8,-25,1
107106,-4676,-6080,-18,-7,-10,-26,1
107111,-4653,-6147,-22,-7,-12,-27,1
107116,-4621,-6201,-24,-7,-15,-28,1
107122,-4597,-6248,-22,-6,-18,-29,1
107127,-4598,-6287,-16,-6,-21,-31,1
107133,-4628,-6322,2,-6,-22,-32,1
107138,-4671,-6351,19,-6,-23,-33,1
107143,-4716,-6378,37,-6,-23,-34,1
107148,-4755,-6406,57,-5,-22,-35,1
107154,-4798,-6435,79,-5,-21,-36,1
107159,-4849,-6468,98,-5,-20,-37,1
107164,-4905,-6505,106,-5,-19,-37,1
107169,-4948,-6548,101,-5,-18,-38,1
107174,-4978,-6593,99,-4,-15,-39,1
107179,-4994,-6644,100,-4,-13,-39,1
107184,-5015,-6706,108,-3,-12,-40,1
107189,-5039,-6772,103,-3,-11,-41,1
107195,-5059,-6832,91,-2,-10,-41,1
107200,-5071,-6889,64,-2,-8,-41,1
107205,-5081,-6943,32,-1,-8,-42,1
107210,-5098,-6999,-10,-1,-9,-42,1
107215,-5123,-7052,-64,-1,-11,-42,1
107220,-5151,-7111,-103,0,-13,-42,1
107225,-5189,-7178,-116,0,-15,-42,1
107230,-5239,-7247,-99,0,-19,-42,1
107235,-5297,-7310,-62,1,-21,-42,1
107240,-5306,-7765,-25,1,-23,-42,1
107245,-2515,-8402,252,2,-21,-48,1
107250,-2236,-8040,307,0,33,-36,1
107255,-4256,-7336,-586,-3,-27,10,1
107261,-5988,-7014,-874,-2,-129,-3,1
107266,-7473,-7170,-780,-4,-122,0,1
107271,-8745,-6699,-580,-5,-100,14,1
107276,-9836,-6298,-265,-4,-116,7,1
107282,-9265,-6451,147,-5,-125,-8,1
107287,-7270,-6583,229,-5,-75,10,1
107292,-6336,-6559,167,-3,-51,21,1
107297,-6256,-6703,112,-3,-36,20,1
107303,-4539,-6829,-210,-4,18,10,1
107308,-4925,-7016,-238,-4,58,10,1
107313,-5495,-7194,-179,-3,42,6,1
107318,-6059,-7289,-128,-2,53,7,1
107323,-6398,-7316,-34,-2,72,8,1
107328,-6546,-7276,124,-2,78,9,1
107333,-6439,-7216,161,-2,69,10,1
107338,-6074,-7172,197,-2,63,9,1
107343,-5840,-7150,262,-2,57,8,1
107348,-5878,-7145,343,-2,46,8,1
107352,-5949,-7128,454,-1,37,8,1
107357,-5500,-7062,495,0,40,7,1
107362,-5349,-6966,471,1,36,7,1
107367,-5212,-6859,463,2,22,6,1
107372,-5444,-6775,455,2,10,6,1
107376,-5455,-6699,430,3,3,6,1
107381,-5563,-6627,402,4,1,7,1
107385,-5445,-6548,392,5,-4,7,1
107389,-5405,-6463,424,6,-5,8,1
107394,-5300,-6393,462,7,-7,8,1
107400,-5301,-6329,469,8,-8,8,1
107404,-5387,-6269,476,9,-8,9,1
107409,-5561,-6211,522,10,-8,10,1
107414,-5714,-6149,540,11,-7,10,1
107419,-5705,-6089,580,12,-3,11,1
107423,-5684,-6047,594,13,2,11,1
107427,-5671,-6020,637,14,5,12,1
107431,-5753,-6004,644,15,10,12,1
107434,-5822,-6004,660,16,15,13,1
107439,-5887,-6001,659,17,22,13,1
107443,-5899,-5981,644,18,27,14,1
107448,-5938,-5945,654,19,31,15,1
107452,-5900,-5896,649,21,33,15,1
107457,-5868,-5843,644,22,36,16,1
107462,-5806,-5799,697,23,36,16,1
107467,-5805,-5770,743,24,37,17,1
107471,-5815,-5744,809,25,36,17,1
107475,-5806,-5714,805,26,36,18,1
107480,-5758,-5680,823,27,35,19,1
107485,-5721,-5652,822,28,34,19,1
107489,-5702,-5640,866,29,32,20,1
107494,-5684,-5630,869,30,31,20,1
107499,-5660,-5622,867,31,30,21,1
107504,-5664,-5612,876,32,30,21,1
107508,-5669,-5604,876,33,29,22,1
107513,-5673,-5602,900,35,29,22,1
107518,-5647,-5593,874,35,30,22,1
107524,-5646,-5589,871,37,31,23,1
107528,-5691,-5584,872,38,32,23,1
107533,-5750,-5579,882,39,33,23,1
107539,-5778,-5569,865,40,35,23,1
107544,-5771,-5546,841,41,38,23,1
107548,-5769,-5524,822,42,40,23,1
107553,-5760,-5511,823,43,42,23,1
107559,-5747,-5509,802,44,43,23,1
107564,-5723,-5517,802,45,45,23,1
107569,-5716,-5535,782,46,46,23,1
107573,-5722,-5556,800,47,47,24,1
107578,-5695,-5577,772,48,47,24,1
107583,-5648,-5609,753,49,48,24,1
107589,-5604,-5648,723,49,49,24,1
107594,-5557,-5691,725,50,49,24,1
107598,-5550,-5714,721,51,46,23,1
107603,-5512,-5715,719,52,44,23,1
107608,-5502,-5701,735,52,42,23,1
107613,-5489,-5682,765,53,40,23,1
107618,-5472,-5662,793,54,39,23,1
107623,-5424,-5632,819,54,37,23,1
107628,-5373,-5602,806,55,35,23,1
107633,-5348,-5570,810,55,33,22,1
107639,-5354,-5544,795,55,31,22,1
107643,-5349,-5512,790,55,30,22,1
107648,-5347,-5471,788,56,31,22,1
107653,-5362,-5432,821,56,30,21,1
107658,-5380,-5402,858,56,31,21,1
107663,-5367,-5374,865,56,32,21,1
107668,-5337,-5355,865,56,34,21,1
107673,-5334,-5343,857,56,35,20,1
107678,-5350,-5333,846,56,37,20,1
107683,-5350,-5327,830,56,39,19,1
107688,-5343,-5325,824,56,42,19,1
107693,-5360,-5323,840,56,44,19,1
107698,-5348,-5330,853,56,47,18,1
107703,-5321,-5330,851,56,50,18,1
107708,-5279,-5319,845,56,51,17,1
107713,-5263,-5305,828,56,51,17,1
107718,-5241,-5297,825,56,49,16,1
107723,-5187,-5291,803,56,48,16,1
107728,-5142,-5284,816,56,46,15,1
107733,-5100,-5274,818,56,43,15,1
107739,-5033,-5258,826,56,41,14,1
107743,-4977,-5237,798,57,40,13,1
107748,-4946,-5221,788,57,37,13,1
107753,-4918,-5210,761,57,35,12,1
107758,-4882,-5202,753,57,33,11,1
107763,-4861,-5200,745,57,32,10,1
107768,-4838,-5199,757,57,31,9,1
107773,-4811,-5195,747,57,31,8,1
107778,-4790,-5192,733,57,32,7,1
107783,-4784,-5191,701,57,33,6,1
107788,-4774,-5187,671,57,33,5,1
107793,-4777,-5192,648,58,33,4,1
107798,-4770,-5198,640,58,34,3,1
107803,-4745,-5202,631,58,36,2,1
107808,-4709,-5215,629,58,38,1,1
107813,-4694,-5229,617,58,40,0,1
107818,-4671,-5238,598,58,40,-1,1
107823,-4653,-5241,576,58,41,-2,1
107829,-4623,-5237,564,58,41,-3,1
107834,-4569,-5217,545,57,41,-4,1
107839,-4503,-5186,519,57,41,-5,1
107843,-4454,-5153,490,57,40,-6,1
107848,-4411,-5123,463,57,39,-7,1
107853,-4391,-5103,445,57,38,-8,1
107858,-4358,-5081,459,57,38,-9,1
107863,-4315,-5057,479,57,38,-10,1
107868,-4264,-5034,492,56,37,-11,1
107873,-4221,-5018,490,56,36,-12,1
107878,-4186,-5015,461,55,34,-14,1
107883,-4167,-5025,421,55,33,-15,1
107888,-4151,-5042,380,55,31,-16,1
107893,-4133,-5056,338,54,29,-17,1
107898,-4112,-5065,292,54,26,-18,1
107903,-4094,-5067,254,53,23,-19,1
107908,-4090,-5068,218,53,19,-20,1
107913,-4113,-5077,170,52,15,-22,1
107918,-4151,-5085,109,51,12,-23,1
107923,-4205,-5096,46,51,10,-24,1
107928,-4277,-5109,-18,50,9,-25,1
107933,-4319,-5126,-81,49,8,-27,1
107938,-4339,-5139,-140,47,11,-28,1
107943,-4354,-5153,-216,46,14,-29,1
107948,-4382,-5175,-291,45,18,-31,1
107953,-4448,-5207,-327,45,21,-32,1
107958,-4550,-5255,-294,45,25,-33,1
107963,-4702,-5318,-191,44,27,-33,1
107968,-4840,-5373,-125,43,30,-34,1
107973,-4921,-5424,-121,42,33,-35,1
107978,-4970,-5470,-179,41,36,-35,1
107983,-4984,-5506,-306,40,37,-36,1
107988,-4974,-5535,-450,39,36,-36,1
107993,-4947,-5561,-567,37,35,-37,1
107998,-4921,-5587,-639,36,33,-37,1
108003,-4903,-5616,-680,35,30,-38,1
108008,-4923,-5648,-726,34,27,-38,1
108013,-4963,-5694,-785,33,26,-38,1
108018,-5016,-5724,-864,31,25,-38,1
108023,-5063,-5748,-897,29,25,-38,1
108028,-5093,-5777,-911,28,26,-38,1
108033,-5115,-5823,-908,26,27,-38,1
108038,-5149,-5883,-922,25,27,-38,1
108043,-5201,-5970,-950,23,26,-39,1
108048,-5253,-6072,-984,22,24,-39,1
108053,-5281,-6188,-1001,20,22,-39,1
108058,-5274,-6320,-1013,18,19,-39,1
108063,-5260,-6468,-1026,17,14,-39,1
108068,-5268,-6624,-1043,15,8,-39,1
108073,-5317,-6777,-1063,14,1,-39,1
108078,-5407,-6929,-1097,13,-5,-40,1
108083,-5525,-7078,-1141,11,-10,-40,1
108088,-5626,-7218,-1205,10,-13,-40,1
108093,-5701,-7345,-1270,9,-14,-39,1
108098,-5753,-7449,-1328,8,-12,-39,1
108103,-5790,-7528,-1375,7,-8,-39,1
108108,-5837,-7582,-1424,6,-2,-38,1
108113,-5901,-7620,-1474,5,5,-38,1
108118,-5971,-7642,-1533,4,12,-37,1
108123,-6030,-7647,-1587,3,19,-36,1
108128,-6057,-7636,-1622,2,24,-35,1
108133,-6038,-7621,-1637,1,29,-34,1
108138,-5983,-7598,-1640,0,32,-34,1
108143,-5899,-7574,-1636,-1,33,-33,1
108148,-5813,-7546,-1633,-2,33,-32,1
108153,-5728,-7519,-1628,-3,30,-31,1
108158,-5648,-7490,-1622,-3,26,-30,1
108163,-5560,-7652,-1622,-4,21,-29,1
108168,-4246,-7751,-2067,-5,14,-29,1
108173,-3810,-7525,-2300,-6,37,-30,1
108178,-5606,-7373,-2778,2,-1,-12,1
108183,-7145,-7493,-1895,1,-52,-5,1
108188,-8464,-7544,-1686,-5,-61,-1,1
108193,-9040,-7423,-776,-6,-49,4,1
108198,-8898,-7185,-404,-7,-35,8,1
108203,-8454,-6928,-145,-7,-36,8,1
108208,-7702,-6807,-316,-7,-40,6,1
108213,-7107,-6749,-859,-8,-32,7,1
108218,-6252,-6770,-941,-8,-24,6,1
108223,-5572,-6762,-1407,-10,-6,3,1
108228,-5297,-6744,-1577,-10,-3,2,1
108233,-5453,-6708,-1751,-12,-6,2,1
108238,-5692,-6676,-1672,-13,-11,2,1
108243,-5849,-6680,-1432,-13,-6,2,1
108248,-5821,-6717,-1178,-14,0,1,1
108253,-5680,-6770,-862,-13,1,0,1
108258,-5581,-6834,-744,-13,-7,-1,1
108263,-5400,-6909,-895,-14,-16,-2,1
108269,-5380,-7005,-1034,-14,-26,-3,1
108275,-5390,-7127,-1178,-15,-37,-4,1
108280,-5318,-7237,-1304,-16,-46,-4,1
108286,-5280,-7314,-1283,-16,-53,-5,1
108290,-5292,-7360,-1258,-16,-58,-5,1
108295,-5313,-7377,-1283,-16,-59,-6,1
108300,-5455,-7373,-1314,-17,-55,-5,1
108306,-5603,-7339,-1387,-17,-51,-5,1
108311,-5677,-7265,-1488,-18,-45,-5,1
108316,-5735,-7174,-1468,-19,-40,-4,1
108322,-5764,-7072,-1469,-20,-37,-4,1
108327,-5754,-6962,-1468,-21,-33,-3,1
108331,-5802,-6857,-1453,-22,-30,-2,1
108337,-5841,-6746,-1456,-23,-28,-1,1
108342,-5836,-6629,-1511,-24,-24,0,1
108347,-5850,-6524,-1493,-26,-23,1,1
108352,-5855,-6437,-1518,-27,-24,2,1
108357,-5795,-6367,-1546,-28,-23,3,1
108362,-5771,-6317,-1530,-30,-24,5,1
108368,-5713,-6279,-1547,-31,-27,6,1
108373,-5622,-6246,-1593,-32,-29,7,1
108378,-5563,-6223,-1596,-33,-32,9,1
108384,-5497,-6198,-1625,-35,-37,10,1
108389,-5399,-6170,-1652,-36,-41,12,1
108394,-5351,-6142,-1626,-37,-47,14,1
108399,-5304,-6119,-1616,-38,-53,15,1
108405,-5250,-6101,-1617,-39,-57,17,1
108409,-5261,-6088,-1580,-40,-61,18,1
108415,-5251,-6079,-1593,-41,-65,20,1
108420,-5219,-6069,-1615,-42,-66,21,1
108426,-5225,-6059,-1602,-43,-67,22,1
108430,-5190,-6055,-1620,-44,-69,24,1
108435,-5147,-6051,-1622,-45,-69,25,1
108439,-5138,-6051,-1593,-46,-70,26,1
108443,-5074,-6049,-1590,-47,-72,27,1
108448,-4999,-6048,-1566,-48,-72,28,1
108453,-4960,-6051,-1524,-48,-74,29,1
108459,-4873,-6052,-1516,-49,-76,30,1
108464,-4808,-6052,-1474,-50,-78,31,1
108469,-4776,-6047,-1404,-51,-80,32,1
108474,-4705,-6040,-1358,-51,-82,33,1
108480,-4675,-6032,-1275,-52,-83,33,1
108484,-4677,-6029,-1204,-53,-84,34,1
108489,-4652,-6023,-1161,-54,-84,34,1
108494,-4671,-6023,-1089,-55,-83,34,1
108499,-4696,-6030,-1031,-55,-82,34,1
108504,-4694,-6041,-982,-56,-80,34,1
108509,-4728,-6060,-895,-57,-76,34,1
108514,-4750,-6082,-824,-58,-73,34,1
108520,-4754,-6112,-757,-59,-69,34,1
108525,-4786,-6149,-671,-60,-64,33,1
108530,-4801,-6190,-611,-61,-59,33,1
108535,-4799,-6229,-549,-62,-54,32,1
108540,-4809,-6261,-475,-62,-50,31,1
108546,-4792,-6290,-424,-63,-46,30,1
108550,-4768,-6309,-365,-64,-42,29,1
108556,-4749,-6325,-309,-65,-39,28,1
108561,-4714,-6339,-279,-65,-35,27,1
108565,-4688,-6356,-236,-66,-32,26,1
108569,-4650,-6374,-199,-66,-29,24,1
108574,-4590,-6393,-168,-67,-27,23,1
108579,-4532,-6415,-122,-67,-25,22,1
108584,-4462,-6444,-89,-67,-24,20,1
108589,-4389,-6472,-52,-67,-24,19,1
108594,-4330,-6497,-7,-67,-24,17,1
108600,-4271,-6522,29,-67,-25,16,1
108605,-4221,-6538,63,-67,-25,15,1
108610,-4174,-6546,96,-67,-27,13,1
108615,-4123,-6547,124,-67,-28,12,1
108619,-4078,-6538,168,-67,-28,11,1
108625,-4037,-6521,215,-67,-29,9,1
108630,-4001,-6498,259,-67,-28,8,1
108635,-3981,-6473,316,-66,-28,7,1
108640,-3949,-6445,382,-66,-28,5,1
108646,-3917,-6418,461,-65,-27,4,1
108650,-3896,-6388,550,-64,-26,3,1
108655,-3874,-6352,646,-63,-25,2,1
108660,-3971,-6329,909,-63,-26,0,1
108666,-4137,-6317,1217,-63,-29,-3,1
108670,-4162,-6295,1497,-65,-31,-6,0
108676,-3935,-6240,1622,-66,-25,-6,0
108682,-3771,-6173,1508,-66,-18,-3,0
108687,-3508,-6104,891,-64,-16,-3,0
108692,-3322,-6050,153,-62,-14,-5,0
108697,-3377,-6014,-284,-61,-19,-6,0
108702,-3483,-6011,-306,-59,-29,-8,0
108707,-3575,-6028,-44,-58,-36,-9,0
108712,-3713,-6044,296,-57,-40,-9,0
108717,-3760,-6032,561,-55,-38,-9,0
108722,-3731,-5977,662,-54,-32,-9,0
108727,-3649,-5891,639,-53,-26,-10,0
108732,-3580,-5807,582,-52,-22,-11,0
108737,-3567,-5755,570,-51,-23,-11,0
108742,-3567,-5740,640,-50,-24,-12,0
108746,-3600,-5752,740,-49,-24,-12,0
108752,-3622,-5780,846,-47,-23,-12,0
108757,-3618,-5817,913,-46,-21,-12,0
108763,-3604,-5857,942,-44,-18,-13,0
108768,-3576,-5904,974,-43,-17,-13,0
108772,-3551,-5959,1028,-42,-17,-14,0
108777,-3567,-6024,1099,-41,-17,-14,0
108782,-3601,-6097,1194,-39,-17,-15,0
108787,-3661,-6174,1294,-38,-18,-15,0
108791,-3735,-6259,1376,-37,-19,-16,0
108796,-3794,-6343,1422,-35,-20,-16,0
108801,-3836,-6431,1442,-34,-21,-17,0
108807,-3875,-6521,1428,-33,-21,-18,0
108812,-3905,-6614,1423,-31,-22,-19,0
108817,-3970,-6715,1422,-30,-22,-20,0
108822,-4066,-6819,1419,-29,-23,-21,0
108827,-4165,-6921,1415,-27,-22,-22,0
108831,-4271,-7027,1392,-26,-19,-23,0
108837,-4354,-7123,1340,-24,-17,-24,0
108842,-4405,-7209,1287,-22,-14,-25,0
108847,-4443,-7286,1229,-21,-11,-26,0
108852,-4463,-7349,1189,-19,-10,-27,0
108858,-4470,-7403,1168,-18,-8,-28,0
108863,-4492,-7448,1163,-16,-6,-29,0
108868,-4503,-7485,1158,-15,-5,-30,0
108873,-4500,-7519,1156,-14,-4,-31,0
108879,-4511,-7542,1151,-12,-5,-32,0
108884,-4526,-7555,1166,-11,-7,-33,0
108889,-4560,-7561,1203,-10,-8,-33,0
108894,-4628,-7568,1237,-9,-12,-34,0
108899,-4686,-7583,1233,-8,-16,-35,0
108904,-4730,-7600,1194,-7,-18,-35,0
108908,-4809,-7611,1124,-6,-19,-35,0
108913,-4871,-8704,979,-5,-20,-35,0
108918,-3591,-9234,1042,-2,-21,-42,0
108923,-4313,-8915,1183,-6,16,-28,0
108928,-6037,-8115,351,-4,-38,-6,0
108933,-7514,-8065,929,0,-87,-11,0
108938,-8781,-7694,815,-3,-54,-6,0
108942,-9867,-7166,1331,-2,-56,3,0
108946,-10287,-6680,1529,-4,-51,-2,0
108950,-9497,-6374,1272,-1,-38,-5,0
108954,-8139,-6403,1572,4,-26,2,0
108958,-7211,-6399,1161,1,-24,8,0
108962,-6251,-6464,879,1,-17,7,0
108966,-5713,-6627,703,1,-5,6,0
108969,-4568,-6699,520,0,16,1,0
108973,-4422,-6776,806,2,24,1,0
108977,-4271,-6773,941,2,10,0,0
108982,-4464,-6749,1155,4,10,1,0
108987,-4601,-6707,1251,4,8,1,0
108992,-4578,-6677,1292,5,10,2,0
108997,-4344,-6686,1215,5,8,1,0
109002,-4121,-6748,1173,5,1,0,0
109007,-3969,-6857,1205,5,-7,-1,0
109012,-4034,-6984,1255,6,-13,-2,0
109017,-4170,-7107,1307,7,-16,-3,0
109022,-4414,-7218,1246,8,-15,-3,0
109027,-4547,-7311,1161,9,-13,-3,0
109031,-4588,-7375,1034,9,-7,-4,0
109037,-4590,-7432,1003,10,-3,-4,0
109041,-4707,-7497,1011,11,1,-4,0
109046,-4710,-7542,999,12,8,-5,0
109051,-4827,-7567,997,14,18,-5,0
109056,-4871,-7568,1002,14,27,-5,0
109061,-4968,-7556,1042,15,35,-4,0
109066,-4977,-7531,1082,16,41,-3,0
109071,-4999,-7503,1144,17,47,-2,0
109076,-4962,-7460,1192,18,51,-2,0
109081,-4958,-7420,1299,19,55,-1,0
109086,-4941,-7379,1395,19,56,1,0
109091,-4948,-7346,1525,20,58,2,0
109096,-4891,-7314,1621,21,59,3,0
109101,-4856,-7289,1728,22,59,5,0
109106,-4802,-7249,1783,22,59,6,0
109111,-4783,-7196,1852,23,58,8,0
109116,-4752,-7123,1887,24,57,10,0
109121,-4768,-7049,1944,24,56,12,0
109126,-4767,-6984,1954,25,54,14,0
109131,-4808,-6935,1987,26,52,16,0
109136,-4808,-6885,1978,26,50,17,0
109141,-4821,-6828,2010,27,51,19,0
109146,-4813,-6759,2024,28,51,21,0
109151,-4867,-6693,2067,28,51,23,0
109156,-4935,-6625,2079,29,51,25,0
109161,-5018,-6562,2125,30,52,27,0
109166,-5055,-6505,2118,30,54,28,0
109171,-5080,-6463,2125,31,56,30,0
109176,-5071,-6421,2081,32,58,32,0
109181,-5074,-6392,2060,33,60,33,0
109186,-5072,-6368,2025,33,60,34,0
109191,-5064,-6350,2021,34,61,36,0
109196,-5041,-6327,2006,35,60,37,0
109201,-5042,-6301,1993,36,58,38,0
109206,-5024,-6272,1967,37,54,40,0
109211,-5003,-6244,1959,38,50,41,0
109216,-4971,-6223,1956,39,45,41,0
109221,-4934,-6211,1960,40,41,42,0
109226,-4923,-6211,1944,41,36,43,0
109231,-4936,-6216,1902,42,32,43,0
109236,-4989,-6230,1854,43,28,43,0
109241,-5022,-6242,1799,45,25,44,0
109246,-5066,-6256,1750,46,23,44,0
109251,-5104,-6263,1705,47,22,43,0
109256,-5174,-6270,1674,48,21,43,0
109261,-5212,-6272,1638,50,21,43,0
109266,-5259,-6270,1609,51,22,42,0
109271,-5320,-6264,1568,52,23,42,0
109276,-5358,-6254,1534,54,25,41,0
109281,-5379,-6239,1472,55,27,40,0
109286,-5410,-6220,1408,56,29,40,0
109291,-5433,-6196,1357,57,30,39,0
109296,-5441,-6173,1337,58,31,38,0
109301,-5440,-6153,1320,59,32,37,0
109306,-5410,-6138,1309,60,35,36,0
109311,-5360,-6119,1296,60,37,36,0
109316,-5310,-6091,1283,61,38,35,0
109321,-5250,-6052,1262,62,39,34,0
109326,-5208,-6014,1237,62,40,33,0
109331,-5182,-5977,1211,63,40,32,0
109336,-5142,-5941,1198,64,39,31,0
109341,-5107,-5910,1185,64,39,30,0
109346,-5064,-5881,1163,65,39,29,0
109351,-5006,-5856,1134,65,39,28,0
109356,-4970,-5833,1113,65,40,27,0
109361,-4944,-5815,1102,66,39,25,0
109366,-4921,-5796,1087,66,39,24,0
109371,-4920,-5783,1074,66,39,23,0
109376,-4905,-5765,1059,66,40,22,0
109381,-4876,-5747,1051,67,41,21,0
109386,-4840,-5730,1039,67,43,20,0
109391,-4792,-5715,1021,67,44,19,0
109396,-4750,-5703,997,67,45,17,0
109401,-4718,-5691,962,67,46,16,0
109406,-4681,-5680,939,67,46,15,0
109411,-4644,-5670,923,67,47,14,0
109416,-4610,-5663,906,67,46,13,0
109421,-4569,-5654,886,67,45,12,0
109426,-4526,-5640,871,67,44,11,0
109431,-4482,-5624,856,67,44,10,0
109436,-4429,-5608,841,67,42,9,0
109441,-4394,-5598,818,67,39,8,0
109446,-4389,-5595,797,67,35,7,0
109451,-4391,-5593,778,67,30,6,0
109456,-4394,-5591,769,67,28,5,0
109461,-4385,-5589,756,67,27,4,0
109466,-4348,-5584,734,67,27,3,0
109471,-4326,-5588,719,67,28,2,0
109476,-4325,-5597,700,66,28,1,0
109481,-4338,-5606,676,66,30,0,0
109486,-4370,-5620,648,66,32,-1,0
109491,-4390,-5633,613,67,34,-1,0
109496,-4387,-5648,576,67,37,-2,0
109501,-4390,-5660,538,67,38,-3,0
109506,-4399,-5667,501,67,38,-4,0
109511,-4422,-5674,471,67,37,-4,0
109516,-4461,-5677,450,67,35,-5,0
109521,-4481,-5679,437,67,33,-6,0
109526,-4478,-5685,439,67,32,-7,0
109531,-4464,-5693,449,67,31,-7,0
109536,-4447,-5704,464,67,30,-8,0
109541,-4445,-5720,476,67,29,-8,0
109546,-4472,-5746,483,66,28,-9,0
109551,-4502,-5774,473,66,28,-9,0
109556,-4526,-5806,457,66,30,-10,0
109561,-4550,-5846,445,66,31,-10,0
109566,-4562,-5895,436,66,32,-11,0
109571,-4579,-5949,426,66,31,-11,0
109576,-4609,-6010,411,66,30,-11,0
109581,-4641,-6077,384,66,30,-12,0
109586,-4686,-6146,345,66,30,-12,0
109591,-4743,-6220,299,66,28,-13,0
109596,-4808,-6293,253,66,26,-14,0
109601,-4885,-6351,205,66,25,-14,0
109606,-4953,-6394,158,66,24,-15,0
109611,-5022,-6423,115,66,23,-15,0
109616,-5106,-6433,61,65,24,-15,0
109621,-5186,-6424,10,65,26,-16,0
109626,-5214,-6409,3,65,28,-16,0
109631,-5211,-6384,31,65,32,-17,0
109636,-5195,-6349,56,65,35,-17,0
109642,-5201,-6306,72,65,38,-17,0
109647,-5204,-6268,89,64,41,-17,0
109651,-5192,-6235,115,64,44,-17,0
109657,-5153,-6204,127,64,46,-17,0
109662,-5101,-6183,132,64,47,-16,0
109667,-5051,-6177,121,64,46,-16,0
109671,-5007,-6185,94,63,44,-16,0
109676,-4972,-6206,69,63,39,-16,0
109681,-4932,-6236,35,63,35,-15,0
109686,-4899,-6274,5,63,29,-15,0
109691,-4870,-6310,-11,62,23,-15,0
109696,-4851,-6329,-22,62,19,-15,0
109701,-4849,-6341,-18,61,15,-15,0
109706,-4861,-6349,4,61,11,-15,0
109711,-4898,-6366,29,60,8,-15,0
109716,-4949,-6390,47,59,6,-15,0
109721,-5001,-6420,65,59,5,-15,0
109726,-5052,-6462,85,58,5,-15,0
109731,-5102,-6513,92,57,6,-15,0
109736,-5152,-6578,90,57,7,-16,0
109741,-5219,-6658,68,56,8,-16,0
109746,-4044,-7793,1147,58,12,-24,0
109751,-2372,-9020,1043,39,26,-22,0
109756,-4373,-8610,-1446,4,13,-2,0
109761,-5393,-8443,-3427,1,-66,-7,1
109766,-6963,-7896,-5278,-28,-72,-2,1
109771,-7556,-7701,-5562,-21,-99,-8,1
109776,-6344,-8115,-2429,-11,-115,-8,1
109781,-5904,-8595,42,-21,-103,-1,1
109787,-6138,-8735,1866,-20,-82,-2,1
109792,-5308,-8637,3939,-11,-6,-9,1
109797,-5842,-8297,3365,-13,61,-10,1
109802,-6447,-7916,3044,-8,64,-11,1
109808,-6453,-7576,2372,-13,66,-12,1
109812,-6148,-7357,1174,-18,68,-12,1
109818,-5861,-7269,-31,-17,48,-11,1
109823,-5702,-7301,-530,-16,17,-12,1
109828,-5663,-7398,-541,-15,-9,-11,1
109833,-5543,-7390,-674,-16,-17,-11,1
109838,-5460,-7267,-505,-14,-14,-11,1
109843,-5219,-7028,-237,-15,-6,-12,1
109849,-5079,-6758,67,-15,1,-12,1
109853,-5032,-6530,315,-14,3,-13,1
109858,-5226,-6372,531,-14,1,-13,1
109862,-5471,-6235,431,-14,1,-12,1
109867,-5534,-6100,444,-14,4,-11,1
109871,-5436,-5944,313,-15,6,-10,1
109876,-5171,-5794,316,-16,4,-10,1
109882,-5036,-5664,267,-17,1,-10,1
109887,-4940,-5562,295,-17,-5,-10,1
109892,-5042,-5470,328,-18,-7,-9,1
109897,-5048,-5380,355,-18,-10,-8,1
109901,-5042,-5299,413,-19,-10,-8,1
109906,-4973,-5227,406,-20,-13,-7,1
109911,-4934,-5175,419,-20,-17,-7,1
109915,-4786,-5150,377,-21,-22,-6,1
109921,-4744,-5162,321,-21,-22,-6,1
109925,-4777,-5200,255,-22,-25,-6,1
109931,-4856,-5258,175,-22,-27,-5,1
109937,-4937,-5316,86,-23,-26,-5,1
109941,-4939,-5374,83,-23,-25,-5,1
109945,-4917,-5427,59,-24,-25,-5,1
109950,-4871,-5488,92,-24,-25,-5,1
109956,-4901,-5555,28,-24,-25,-5,1
109961,-4944,-5640,38,-24,-25,-6,1
109966,-5027,-5743,-27,-25,-25,-6,1
109971,-5072,-5856,-26,-25,-26,-6,1
109977,-5117,-5963,-100,-25,-26,-6,1
109982,-5114,-6055,-110,-26,-26,-7,1
109988,-5124,-6127,-143,-26,-25,-7,1
109993,-5087,-6175,-119,-26,-23,-8,1
109998,-5179,-6209,-99,-27,-21,-9,1
110004,-5258,-6234,-60,-27,-20,-9,1
110009,-5372,-6240,-35,-28,-16,-10,1
110015,-5449,-6230,69,-28,-12,-10,1
110020,-5499,-6204,164,-29,-8,-11,1
110025,-5487,-6170,260,-29,-5,-12,1
110030,-5475,-6137,284,-30,-1,-13,1
110034,-5446,-6111,293,-30,2,-13,1
110039,-5402,-6091,277,-31,5,-14,1
110044,-5333,-6077,266,-31,6,-14,1
110050,-5288,-6062,273,-31,7,-14,1
110054,-5216,-6043,269,-31,7,-14,1
110060,-5165,-6018,305,-31,7,-14,1
110064,-5079,-5985,323,-31,7,-15,1
110068,-5017,-5951,354,-30,7,-15,1
110072,-4991,-5925,378,-30,6,-15,1
110076,-4957,-5905,392,-30,5,-15,1
110080,-4947,-5889,420,-30,4,-15,1
110085,-4905,-5872,447,-29,3,-15,1
110090,-4854,-5852,457,-29,1,-15,1
110095,-4802,-5828,470,-29,-2,-15,1
110100,-4809,-5801,511,-29,-7,-15,1
110105,-4886,-5773,635,-29,-12,-15,1
110110,-5013,-5765,795,-29,-14,-15,1
110115,-5133,-5786,983,-29,-13,-15,1
110120,-5215,-5823,1119,-29,-9,-15,1
110125,-5238,-5871,1214,-28,-4,-15,1
110130,-5226,-5917,1255,-28,1,-15,1
110135,-5181,-5959,1219,-27,5,-15,1
110140,-5178,-5999,1156,-26,9,-15,1
110145,-5199,-6035,1090,-26,10,-14,1
110150,-5274,-6068,1023,-25,10,-14,1
110155,-5343,-6102,989,-24,9,-13,1
110160,-5365,-6138,1018,-23,8,-13,1
110165,-5343,-6161,1076,-22,6,-13,1
110170,-5298,-6165,1159,-21,3,-12,1
110175,-5245,-6147,1236,-20,0,-12,1
110180,-5232,-6120,1316,-19,-3,-12,1
110185,-5243,-6091,1384,-18,-5,-11,1
110190,-5269,-6069,1436,-17,-7,-11,1
110195,-5256,-6049,1456,-16,-9,-10,1
110201,-5238,-6032,1473,-15,-11,-9,1
110206,-5195,-6016,1458,-14,-12,-9,1
110211,-5184,-6004,1454,-12,-13,-8,1
110216,-5190,-5997,1436,-11,-14,-8,1
110221,-5199,-5992,1418,-10,-14,-7,1
110226,-5191,-5984,1399,-9,-13,-7,1
110231,-5175,-5983,1395,-8,-13,-7,1
110236,-5150,-5987,1386,-6,-14,-6,1
110240,-5129,-5994,1383,-5,-15,-6,1
110245,-5100,-5994,1361,-4,-17,-6,1
110250,-5089,-5990,1356,-3,-17,-6,1
110255,-5089,-5991,1356,-2,-18,-6,1
110260,-5101,-5992,1356,-1,-17,-6,1
110265,-5108,-5999,1318,0,-16,-6,1
110270,-5114,-6012,1269,1,-13,-6,1
110275,-5122,-6024,1216,1,-11,-6,1
110280,-5122,-6041,1178,2,-8,-7,1
110285,-5108,-6060,1135,3,-5,-7,1
110290,-5092,-6086,1090,3,-2,-8,1
110295,-5083,-6115,1055,4,1,-8,1
110300,-5052,-6141,1024,4,3,-9,1
110305,-4987,-6161,1000,4,6,-9,1
110310,-4904,-6171,968,5,7,-10,1
110315,-4829,-6171,942,5,7,-11,1
110320,-4750,-6164,895,5,6,-11,1
110325,-4683,-6149,827,5,6,-12,1
110330,-4639,-6130,754,6,5,-13,1
110335,-4583,-6111,681,6,4,-14,1
110340,-4519,-6092,617,5,4,-15,1
110345,-4471,-6077,589,5,2,-16,1
110350,-4432,-6068,606,5,0,-17,1
110355,-4411,-6063,654,5,-2,-18,1
110360,-4420,-6074,750,4,-2,-19,1
110365,-4439,-6100,876,3,-1,-21,1
110370,-4470,-6138,955,2,1,-22,1
110375,-4507,-6195,1009,2,3,-24,1
110380,-4521,-6271,987,2,5,-25,1
110385,-4513,-6353,892,2,7,-26,1
110390,-4489,-6429,768,1,9,-27,1
110395,-4449,-6504,660,1,11,-29,1
110400,-4432,-6573,602,1,12,-30,1
110405,-4441,-6641,574,1,12,-31,1
110410,-5260,-7810,757,2,13,-31,1
110415,-4124,-7883,584,-1,40,-43,1
110420,-3754,-7428,99,0,62,-9,1
110425,-5558,-6779,344,5,4,4,1
110430,-7104,-7208,486,5,-66,-12,1
110435,-8429,-7483,624,4,-29,-8,1
110440,-9565,-7042,942,5,-7,4,1
110445,-9548,-6625,839,5,-7,6,1
110450,-9303,-6068,793,7,12,4,1
110455,-8953,-5802,841,6,-2,-2,1
110460,-8240,-5993,888,3,-11,-9,1
110464,-6635,-6410,880,2,-3,-10,1
110470,-5560,-6737,886,4,18,0,1
110474,-5309,-6937,915,5,10,3,1
110479,-4840,-7044,667,5,4,1,1
110484,-4569,-7125,710,6,12,1,1
110489,-4186,-7149,516,5,9,-2,1
110495,-3832,-7104,341,4,4,-4,1
110500,-3759,-7047,370,4,-3,-6,1
110505,-3776,-7000,468,4,-11,-8,1
110509,-3880,-6973,527,4,-13,-9,1
110514,-3997,-7016,609,4,-13,-10,1
110519,-3790,-7062,442,4,-14,-11,1
110524,-3762,-7034,448,4,-10,-13,1
110529,-4121,-6919,435,4,-18,-13,1
110534,-4227,-6836,417,4,-25,-14,1
110539,-4513,-6826,411,4,-21,-13,1
110544,-4982,-6838,503,4,-25,-11,1
110549,-5501,-6790,537,4,-30,-9,1
110554,-5851,-6682,605,4,-28,-7,1
110559,-5892,-6512,663,4,-19,-6,1
110564,-5806,-6399,644,4,-10,-5,1
110569,-5766,-6346,628,4,-10,-3,1
110574,-5815,-6365,616,4,-11,-2,1
110579,-5800,-6356,601,4,-8,-1,1
110584,-5334,-6311,549,4,6,-2,1
110589,-4977,-6318,434,3,19,-2,1
110594,-5148,-6324,183,3,15,-2,1
110599,-4771,-6377,444,3,9,-3,1
110605,-4570,-6424,375,3,19,-3,1
110610,-4280,-6483,484,3,17,-3,1
110614,-4280,-6504,302,3,12,-2,1
110619,-4288,-6495,288,2,0,-2,1
110625,-4375,-6463,166,2,-8,-1,1
110630,-4369,-6432,236,1,-16,0,1
110634,-4261,-6388,205,0,-21,1,1
110640,-4199,-6349,257,-1,-26,1,1
110645,-4186,-6332,263,-1,-32,1,1
110650,-4275,-6324,237,-2,-38,2,1
110655,-4410,-6321,196,-2,-41,3,1
110660,-4578,-6332,164,-3,-42,3,1
110665,-4669,-6353,99,-4,-41,4,1
110670,-4744,-6396,43,-5,-38,4,1
110675,-4819,-6454,-22,-5,-36,5,1
110681,-4901,-6509,-127,-6,-33,5,1
110686,-5012,-6559,-208,-7,-29,5,1
110692,-5122,-6610,-252,-8,-24,6,1
110697,-5195,-6652,-320,-9,-20,6,1
110702,-5241,-6682,-379,-10,-17,7,1
110707,-5255,-6697,-387,-11,-15,7,1
110712,-5214,-6682,-425,-12,-13,8,1
110718,-5174,-6647,-449,-13,-12,8,1
110723,-5164,-6611,-368,-14,-13,9,1
110729,-5141,-6572,-332,-16,-14,10,1
110733,-5132,-6536,-276,-17,-15,10,1
110738,-5139,-6501,-196,-18,-17,11,1
110743,-5107,-6462,-168,-20,-19,12,1
110749,-5104,-6430,-111,-21,-20,13,1
110753,-5106,-6403,-113,-23,-22,13,1
110758,-5085,-6382,-144,-24,-23,14,1
110764,-5094,-6361,-174,-25,-24,14,1
110769,-5094,-6343,-186,-27,-26,15,1
110774,-5071,-6329,-199,-28,-27,15,1
110779,-5087,-6319,-166,-29,-27,15,1
110784,-5101,-6311,-166,-30,-28,16,1
110789,-5092,-6312,-179,-31,-26,16,1
110794,-5120,-6308,-171,-32,-24,16,1
110799,-5107,-6301,-195,-33,-23,16,1
110805,-5081,-6290,-199,-34,-20,16,1
110811,-5090,-6276,-156,-36,-18,16,1
110816,-5056,-6265,-135,-36,-17,16,1
110821,-5014,-6260,-108,-37,-15,16,1
110827,-4992,-6255,-62,-38,-15,16,1
110832,-4916,-6246,-54,-39,-14,16,1
110837,-4846,-6234,-26,-39,-13,16,1
110842,-4798,-6217,10,-40,-14,16,1
110848,-4712,-6199,25,-41,-15,16,1
110852,-4654,-6180,63,-41,-15,15,1
110857,-4617,-6162,101,-42,-17,15,1
110862,-4543,-6152,111,-42,-18,15,1
110868,-4505,-6147,149,-42,-18,14,1
110872,-4461,-6145,165,-43,-19,14,1
110877,-4385,-6140,167,-43,-19,14,1
110882,-4346,-6141,212,-43,-20,13,1
110886,-4299,-6150,238,-43,-22,13,1
110892,-4237,-6169,265,-43,-23,12,1
110897,-4217,-6192,323,-43,-23,12,1
110902,-4178,-6216,349,-43,-25,11,1
110906,-4141,-6238,380,-43,-24,11,1
110911,-4147,-6258,438,-43,-24,10,1
110917,-4127,-6274,473,-43,-24,9,1
110921,-4110,-6294,506,-43,-23,9,1
110926,-4118,-6316,555,-43,-21,8,1
110931,-4093,-6341,577,-43,-19,8,1
110936,-4072,-6362,606,-42,-16,7,1
110941,-4075,-6380,663,-42,-15,6,1
110946,-4046,-6399,696,-42,-14,5,1
110952,-4025,-6423,733,-41,-11,4,1
110957,-4010,-6445,776,-41,-10,4,1
110962,-3960,-6468,794,-41,-8,3,1
110967,-3902,-6481,760,-41,-7,2,1
110972,-3867,-6488,678,-41,-7,1,1
110977,-3795,-6502,621,-40,-8,0,1
110982,-3762,-6519,553,-40,-9,-1,1
110987,-3772,-6539,454,-40,-12,-1,1
110992,-3768,-6566,451,-39,-15,-2,1
110997,-3765,-6589,451,-39,-17,-3,1
111003,-3740,-6608,524,-39,-19,-3,1
111008,-3681,-6615,585,-38,-19,-4,1
111012,-3654,-6623,640,-38,-19,-5,1
111018,-3653,-6630,661,-37,-20,-6,1
111023,-3665,-6626,658,-37,-20,-6,1
111028,-3691,-6618,649,-37,-20,-7,1
111033,-3679,-6604,659,-37,-19,-7,1
111038,-3642,-6586,682,-37,-19,-8,1
111043,-3620,-6563,723,-36,-20,-9,1
111048,-3610,-6538,767,-36,-21,-9,1
111054,-3613,-6513,785,-36,-20,-10,1
111059,-3630,-6489,784,-36,-19,-10,1
111064,-3623,-6471,779,-36,-18,-10,1
111070,-3605,-6453,775,-36,-17,-11,1
111075,-3585,-6437,777,-35,-18,-11,1
111080,-3569,-6427,797,-35,-18,-12,1
111085,-3577,-6426,808,-35,-19,-12,1
111090,-3601,-6424,817,-35,-19,-12,1
111094,-3618,-6420,827,-35,-18,-13,1
111099,-3636,-6411,834,-35,-18,-13,1
111104,-3644,-6399,836,-35,-17,-13,1
111109,-3649,-6389,841,-34,-17,-14,1
111114,-3666,-6379,843,-34,-16,-14,1
111119,-3690,-6374,847,-34,-16,-15,1
111124,-3711,-6370,861,-34,-16,-15,1
111129,-3730,-6368,871,-34,-15,-15,1
111134,-3738,-6371,885,-34,-14,-16,1
111139,-3742,-6377,903,-34,-13,-16,1
111144,-3749,-6380,920,-34,-12,-17,1
111149,-3749,-6381,933,-34,-12,-17,1
111154,-3763,-6378,945,-34,-12,-18,1
111159,-3778,-6383,950,-34,-12,-18,1
111164,-3791,-6398,955,-34,-13,-18,1
111169,-3806,-6425,952,-33,-13,-19,1
111173,-3819,-6465,944,-33,-13,-19,1
111179,-3749,-7447,917,-33,-13,-20,1
111185,-1949,-7696,537,-34,-18,-24,1
111189,-1287,-7450,833,-32,14,-20,1
111193,-2384,-7054,762,-32,-7,8,1
111197,-4383,-6696,869,-29,-41,7,1
111201,-5918,-7084,1052,-28,-60,-2,1
111205,-7267,-7136,996,-30,-34,2,1
111209,-8422,-6883,1316,-28,-36,9,1
111213,-8432,-6559,1363,-29,-31,8,1
111217,-8459,-6264,1484,-28,-16,7,1
111221,-8420,-6193,1653,-29,-16,1,1
111225,-7932,-6538,1695,-31,-12,-6,1
111229,-7287,-6877,1525,-30,-2,-4,1
111234,-6918,-6915,1203,-26,14,5,1
111239,-6515,-6977,1136,-24,29,7,1
111243,-5884,-7132,694,-25,37,5,1
111248,-5241,-7352,235,-26,36,2,1
111253,-4910,-7597,143,-26,28,0,1
111258,-4813,-7826,189,-25,19,-3,1
111263,-4801,-8006,396,-23,13,-4,1
111268,-4823,-8082,474,-22,12,-5,1
111273,-4823,-8074,491,-21,11,-5,1
111278,-4747,-8019,391,-20,5,-6,1
111283,-4648,-7951,250,-20,-4,-7,1
111288,-4703,-7914,146,-19,-15,-7,1
111293,-4806,-7958,38,-18,-27,-8,1
111298,-4738,-7931,16,-17,-31,-9,1
111303,-4772,-7872,10,-16,-31,-8,1
111308,-4866,-7784,14,-15,-33,-8,1
111314,-4961,-7684,-4,-13,-33,-7,1
111319,-5063,-7564,-28,-13,-30,-6,1
111324,-5250,-7439,7,-12,-26,-5,1
111329,-5538,-7308,-4,-11,-23,-3,1
111334,-5086,-7149,-15,-10,-7,-4,1
111340,-4922,-7051,88,-9,8,-3,1
111345,-4682,-6981,149,-9,13,-3,1
111350,-4900,-6946,303,-7,18,-1,1
111355,-5033,-6885,291,-6,21,1,1
111360,-5233,-6803,340,-5,27,4,1
111365,-5169,-6709,316,-4,27,6,1
111370,-5090,-6628,397,-3,26,8,1
111374,-4947,-6577,420,-2,23,10,1
111379,-4913,-6559,485,-1,24,12,1
111384,-4978,-6547,498,1,24,13,1
111389,-5094,-6533,525,2,25,15,1
111393,-5196,-6510,511,3,26,18,1
111398,-5216,-6490,522,4,26,19,1
111403,-5164,-6493,517,6,27,21,1
111408,-5099,-6510,544,7,28,22,1
111413,-5063,-6537,559,8,29,23,1
111418,-5093,-6560,569,9,31,24,1
111423,-5153,-6573,569,11,32,26,1
111428,-5175,-6577,535,12,33,27,1
111433,-5182,-6572,504,13,34,27,1
111438,-5152,-6572,472,15,34,28,1
111443,-5127,-6579,454,16,35,28,1
111448,-5072,-6592,423,17,36,29,1
111453,-5055,-6604,412,18,37,29,1
111458,-5047,-6608,392,20,38,29,1
111463,-5047,-6612,370,21,39,29,1
111468,-5038,-6613,334,22,41,29,1
111473,-4999,-6602,272,23,41,29,1
111478,-4938,-6585,226,25,42,29,1
111483,-4845,-6564,176,26,42,29,1
111488,-4775,-6544,147,27,41,29,1
111493,-4712,-6520,110,28,40,28,1
111498,-4662,-6493,83,29,39,28,1
111503,-4634,-6459,48,30,38,28,1
111508,-4591,-6426,18,31,38,27,1
111513,-4525,-6394,-37,32,38,27,1
111518,-4449,-6361,-88,33,38,26,1
111523,-4393,-6330,-134,34,37,26,1
111528,-4339,-6305,-174,35,37,25,1
111533,-4302,-6289,-210,36,37,25,1
111538,-4279,-6279,-232,36,36,24,1
111543,-4262,-6274,-264,37,36,23,1
111548,-4238,-6273,-299,38,36,23,1
111553,-4206,-6277,-341,39,36,22,1
111558,-4171,-6282,-391,40,36,21,1
111563,-4138,-6288,-433,40,35,21,1
111568,-4114,-6302,-477,41,34,20,1
111573,-4106,-6321,-522,42,33,19,1
111578,-4102,-6343,-558,43,32,18,1
111583,-4094,-6366,-597,43,31,17,1
111588,-4086,-6387,-639,44,30,16,1
111593,-4083,-6414,-684,45,29,15,1
111598,-4075,-6443,-723,45,29,14,1
111603,-4083,-6469,-775,46,29,13,1
111608,-4095,-6493,-837,46,29,12,1
111613,-4113,-6508,-887,47,30,11,1
111618,-4125,-6511,-949,48,32,10,1
111623,-4128,-6508,-998,48,33,9,1
111628,-4117,-6500,-1033,49,35,8,1
111633,-4108,-6485,-1068,49,36,7,1
111638,-4094,-6463,-1074,50,36,6,1
111643,-4080,-6432,-1058,50,35,5,1
111648,-4062,-6402,-1034,50,35,4,1
111653,-4038,-6382,-1007,51,34,3,1
111658,-3997,-6367,-997,51,33,2,1
111663,-3955,-6357,-1002,51,32,1,1
111668,-3910,-6346,-1021,51,31,1,1
111673,-3860,-6327,-1041,51,30,0,1
111678,-3811,-6307,-1061,51,29,-1,1
111683,-3761,-6291,-1069,51,28,-1,1
111688,-3722,-6278,-1077,52,26,-2,1
111693,-3690,-6269,-1086,52,25,-2,1
111698,-3662,-6260,-1088,52,23,-3,1
111703,-3639,-6252,-1089,52,22,-4,1
111708,-3616,-6238,-1091,52,21,-4,1
111713,-3597,-6221,-1087,52,20,-5,1
111718,-3587,-6210,-1083,52,20,-5,1
111723,-3580,-6205,-1077,52,19,-6,1
111728,-3582,-6203,-1069,52,19,-6,1
111733,-3585,-6202,-1069,52,19,-7,1
111738,-3586,-6208,-1075,52,18,-7,1
111743,-3594,-6222,-1091,52,18,-8,1
111748,-3605,-6245,-1116,52,18,-8,1
111753,-3615,-6269,-1147,52,17,-9,1
111758,-3631,-6291,-1173,52,18,-9,0
111763,-3636,-6308,-1206,52,19,-10,0
111768,-3641,-6329,-1227,52,20,-10,0
111773,-3658,-6353,-1238,51,19,-11,0
111778,-3692,-6382,-1242,51,19,-12,0
111783,-3726,-6404,-1228,51,20,-12,0
111788,-3747,-6422,-1191,51,21,-13,0
111793,-3751,-6440,-1168,50,22,-13,0
111798,-3748,-6457,-1159,50,22,-14,0
111803,-3746,-6476,-1159,49,22,-14,0
111808,-3750,-6504,-1168,49,21,-15,0
111813,-3779,-6542,-1176,49,19,-15,0
111818,-3819,-6585,-1184,48,17,-16,0
111823,-3850,-6627,-1192,48,17,-16,0
111828,-3872,-6677,-1187,48,17,-16,0
111833,-3890,-6729,-1188,47,17,-17,0
111838,-3921,-6775,-1204,47,17,-18,0
111844,-3955,-6807,-1227,46,17,-18,0
111849,-3983,-6823,-1270,45,17,-18,0
111853,-4010,-6828,-1299,45,17,-19,0
111859,-4037,-6835,-1277,45,18,-19,0
111864,-4055,-6833,-1248,44,16,-20,0
111869,-4092,-6828,-1210,43,15,-20,0
111874,-4131,-6816,-1183,42,15,-21,0
111879,-4162,-6799,-1179,41,16,-21,0
111883,-4195,-6791,-1191,40,16,-21,0
111889,-4217,-6798,-1228,39,15,-22,0
111893,-4226,-6815,-1274,38,14,-22,0
111899,-4242,-6841,-1297,37,13,-23,0
111904,-4257,-6864,-1318,36,13,-23,0
111908,-4287,-6888,-1319,35,13,-24,0
111913,-4332,-6906,-1315,34,13,-24,0
111918,-4370,-6917,-1314,33,12,-24,0
111923,-4416,-6927,-1320,32,12,-25,0
111928,-4457,-6926,-1328,31,11,-25,0
111933,-4482,-6922,-1331,30,11,-26,0
111938,-4516,-6922,-1323,29,10,-26,0
111943,-4570,-6930,-1321,28,8,-27,0
111948,-4630,-6945,-1329,26,6,-27,0
111952,-4690,-6964,-1333,25,5,-27,0
111958,-4756,-7470,-1348,24,4,-28,0
111963,-3423,-7527,-1212,23,10,-30,0
111968,-2848,-7298,-2333,21,42,-31,0
111973,-4259,-7120,-3134,29,8,-9,0
111978,-5991,-7047,-2335,25,-38,-3,0
111983,-7475,-7127,-2285,15,-53,-3,0
111989,-8413,-7082,-1430,14,-35,-1,0
111994,-9144,-6805,-798,13,-18,3,0
111999,-9440,-6509,-404,13,-18,1,0
112003,-9125,-6446,-396,12,-18,-2,0
112009,-8353,-6459,-897,9,-5,-1,0
112014,-7681,-6525,-1101,9,5,3,0
112018,-6991,-6655,-1240,8,9,3,0
112023,-6616,-6810,-1722,6,13,2,0
112028,-6367,-7016,-1455,6,13,2,0
112033,-5720,-7128,-1481,5,23,0,0
112037,-5492,-7158,-1278,5,26,-1,0
112043,-5423,-7119,-1328,4,16,-2,0
112048,-5598,-7042,-1338,3,8,-1,0
112053,-5768,-6965,-1347,2,2,-1,0
112058,-5792,-6879,-1322,1,-1,-1,0
112064,-5667,-6798,-1206,0,-4,-1,0
112069,-5494,-6728,-1179,-1,-4,-1,0
112073,-5418,-6683,-1207,-1,-6,-1,0
112079,-5415,-6644,-1326,-2,-6,-2,0
112085,-5548,-6608,-1387,-4,-6,-1,0
112091,-5611,-6559,-1444,-5,-5,-1,0
112096,-5608,-6517,-1375,-5,-3,0,0
112101,-5540,-6477,-1325,-6,-1,0,0
112107,-5433,-6458,-1298,-7,1,1,0
112112,-5349,-6454,-1296,-8,1,1,0
112118,-5327,-6461,-1314,-9,0,2,0
112123,-5318,-6473,-1348,-10,-2,2,0
112128,-5309,-6494,-1305,-10,-3,3,0
112133,-5300,-6518,-1250,-11,-6,3,0
112139,-5257,-6548,-1204,-12,-7,4,0
112144,-5233,-6587,-1161,-13,-8,4,0
112149,-5242,-6633,-1148,-14,-10,4,0
112154,-5238,-6683,-1179,-14,-10,5,0
112159,-5281,-6742,-1156,-15,-9,5,0
112165,-5302,-6788,-1148,-16,-9,5,0
112171,-5292,-6828,-1138,-16,-8,5,0
112176,-5304,-6861,-1087,-17,-6,5,0
112182,-5290,-6888,-1079,-18,-6,6,0
112187,-5275,-6903,-1079,-18,-3,6,0
112193,-5286,-6909,-1068,-19,-2,6,0
112198,-5274,-6909,-1080,-19,-2,6,0
112204,-5244,-6901,-1091,-20,0,6,0
112209,-5228,-6887,-1072,-20,0,6,0
112214,-5160,-6861,-1085,-21,-1,6,0
112219,-5086,-6830,-1072,-21,0,6,0
112225,-5029,-6789,-1045,-22,-1,6,0
112231,-4935,-6743,-1050,-22,-2,6,0
112236,-4870,-6698,-1015,-23,-2,6,0
112242,-4816,-6653,-984,-23,-5,6,0
112247,-4724,-6609,-979,-23,-8,6,0
112253,-4655,-6566,-943,-24,-10,6,0
112258,-4573,-6526,-922,-24,-13,6,0
112264,-4483,-6489,-900,-25,-15,6,0
112269,-4434,-6463,-848,-26,-17,6,0
112274,-4389,-6446,-823,-26,-19,6,0
112279,-4332,-6429,-809,-27,-21,6,0
112285,-4302,-6410,-762,-27,-22,6,0
112290,-4245,-6385,-734,-28,-24,6,0
112294,-4188,-6358,-693,-29,-24,6,0
112299,-4172,-6333,-628,-29,-26,6,0
112306,-4151,-6314,-596,-30,-26,6,0
112311,-4152,-6302,-564,-31,-26,6,0
112315,-4161,-6291,-533,-31,-25,6,0
112319,-4139,-6282,-522,-32,-25,6,0
112323,-4130,-6274,-484,-33,-23,6,0
112327,-4120,-6272,-452,-34,-23,6,0
112332,-4106,-6280,-431,-34,-22,6,0
112336,-4127,-6301,-398,-35,-22,6,0
112340,-4137,-6336,-377,-36,-22,6,0
112344,-4141,-6383,-362,-36,-20,5,0
112348,-4153,-6430,-328,-37,-19,5,0
112352,-4147,-6478,-311,-37,-19,5,0
112357,-4137,-6531,-304,-38,-18,5,0
112361,-4150,-6589,-291,-38,-19,4,0
112365,-4149,-6650,-303,-39,-20,4,0
112369,-4148,-6704,-308,-39,-20,4,0
112373,-4153,-6745,-300,-39,-21,3,0
112378,-4139,-6779,-304,-40,-21,3,0
112382,-4144,-6811,-303,-40,-21,3,0
112386,-4143,-6844,-311,-40,-22,2,0
112390,-4132,-6869,-331,-40,-23,2,0
112394,-4139,-6884,-332,-40,-23,2,0
112398,-4132,-6886,-345,-41,-24,1,0
112403,-4127,-6878,-343,-41,-23,1,0
112407,-4139,-6858,-326,-41,-23,1,0
112412,-4144,-6837,-324,-41,-23,1,0
112417,-4153,-6822,-313,-41,-21,1,0
112422,-4166,-6812,-300,-41,-20,0,0
112427,-4168,-6804,-280,-41,-19,0,0
112432,-4153,-6793,-264,-42,-18,0,0
112437,-4135,-6779,-250,-41,-18,0,0
112443,-4086,-6765,-254,-42,-17,0,0
112448,-4050,-6761,-247,-42,-17,0,0
112453,-4001,-6756,-241,-42,-18,0,0
112458,-3960,-6750,-224,-42,-19,0,0
112463,-3934,-6743,-192,-42,-20,0,0
112468,-3899,-6732,-170,-42,-22,0,0
112473,-3870,-6716,-148,-42,-23,0,0
112478,-3849,-6699,-123,-42,-24,0,0
112483,-3817,-6680,-114,-42,-26,0,0
112488,-3801,-6656,-89,-42,-27,0,0
112492,-3793,-6633,-63,-42,-29,0,0
112497,-3784,-6612,-39,-42,-30,0,0
112502,-3794,-6593,1,-42,-30,0,0
112507,-3805,-6575,32,-42,-30,0,0
112512,-3818,-6561,76,-42,-29,0,0
112517,-3847,-6557,126,-42,-28,0,0
112523,-3871,-6553,166,-42,-27,-1,0
112528,-3897,-6546,212,-42,-26,-1,0
112532,-3926,-6536,265,-42,-24,-1,0
112537,-3938,-6525,317,-42,-22,-1,0
112543,-3950,-6512,370,-42,-19,-2,0
112547,-3974,-6500,440,-42,-17,-2,0
112552,-3986,-6489,529,-42,-14,-3,0
112557,-3960,-6468,681,-43,-11,-3,0
112562,-3840,-6432,591,-43,-6,-3,0
112567,-3692,-6411,494,-40,0,-3,0
112572,-3570,-6427,547,-38,3,-3,0
112577,-3446,-6472,602,-38,2,-4,0
112582,-3349,-6520,459,-39,2,-5,0
112587,-3385,-6566,242,-39,3,-5,0
112592,-3407,-6612,13,-38,2,-5,0
112597,-3378,-6665,-74,-37,2,-6,0
112602,-3369,-6713,-160,-36,-2,-6,0
112607,-3358,-6762,-98,-36,-7,-7,0
112612,-3329,-6802,12,-35,-11,-7,0
112617,-3301,-6835,134,-34,-12,-8,0
112622,-3272,-6859,210,-33,-12,-9,0
112627,-3256,-6867,236,-32,-13,-9,0
112632,-3252,-6877,248,-31,-14,-10,0
112636,-3260,-6893,255,-31,-17,-11,0
112641,-3277,-6919,282,-30,-20,-12,0
112646,-3309,-6958,307,-29,-23,-13,0
112651,-3341,-7000,339,-29,-24,-14,0
112656,-3372,-7039,368,-28,-24,-14,0
112661,-3401,-7067,388,-27,-23,-15,0
112666,-3421,-7080,400,-26,-21,-16,0
112671,-3447,-7081,422,-26,-20,-17,0
112676,-3471,-7072,438,-25,-19,-18,0
112681,-3485,-7061,463,-24,-17,-19,0
112686,-3501,-7051,485,-24,-14,-20,0
112691,-3503,-7038,500,-23,-12,-20,0
112696,-3496,-7022,519,-22,-9,-21,0
112701,-3494,-7012,525,-22,-6,-22,0
112706,-3483,-7004,520,-21,-3,-22,0
112711,-3455,-6988,515,-20,-1,-23,0
112716,-3423,-6968,505,-19,1,-23,0
112721,-3391,-6953,490,-18,3,-24,0
112726,-3369,-6937,475,-18,5,-24,0
112731,-3367,-6918,464,-17,5,-24,0
112736,-3362,-6897,447,-16,6,-25,0
112741,-3347,-6881,436,-15,8,-25,0
112746,-3327,-6869,425,-14,9,-25,0
112751,-3305,-6859,413,-13,9,-26,0
112756,-3299,-6854,403,-12,9,-26,0
112761,-3177,-8215,383,-11,8,-26,0
112766,-723,-8637,613,-10,4,-31,0
112771,-404,-8318,845,-13,34,-18,0
112776,-2686,-7414,-351,-13,-12,2,0
112781,-4642,-7614,-197,-7,-74,-3,0
112786,-6319,-7632,-590,-10,-57,-1,0
112791,-7756,-7386,-343,-10,-49,9,0
112796,-8002,-7079,-90,-11,-34,10,0
112801,-8121,-6603,292,-11,-9,10,0
112806,-8083,-6435,767,-11,-11,2,0
112811,-7310,-6737,576,-11,-5,-4,0
112816,-6316,-7092,443,-7,13,0,0
112821,-6033,-7217,85,-6,20,6,0
112826,-5508,-7288,-344,-6,20,6,0
112831,-4773,-7401,-562,-5,28,3,0
112836,-4157,-7505,-566,-5,28,1,0
112841,-3872,-7598,-414,-4,13,0,0
112846,-3805,-7659,-189,-2,-2,-2,0
112851,-3826,-7826,42,0,-6,-2,0
112856,-3819,-7794,134,1,-4,-4,0
112861,-4079,-7625,-158,0,-10,-2,0
112866,-4257,-7536,-268,0,-17,-2,0
112871,-4551,-7437,-410,0,-21,-2,0
112876,-4880,-7384,-460,0,-28,-1,0
112881,-5126,-7403,-394,0,-31,-1,0
112886,-5319,-7408,-347,1,-29,-1,0
112891,-5430,-7401,-379,2,-25,-1,0
112896,-5436,-7421,-415,3,-18,-1,0
112901,-5365,-7453,-479,3,-11,0,0
112906,-5380,-7471,-624,3,-3,1,0
112911,-5291,-7478,-611,5,5,0,0
112916,-5240,-7484,-446,6,15,0,0
112921,-5275,-7463,-277,7,22,1,0
112926,-5532,-7406,-54,7,29,3,0
112931,-5312,-7302,-64,8,33,3,0
112936,-4823,-7170,100,8,50,2,0
112941,-4579,-7092,251,8,51,3,0
112946,-4469,-7030,399,8,45,3,0
112951,-4713,-6988,560,9,40,5,0
112956,-4855,-6912,624,10,38,7,0
112961,-4947,-6815,639,10,37,9,0
112966,-4767,-6712,583,10,33,10,0
112971,-4612,-6645,587,10,30,11,0
112976,-4502,-6621,575,11,25,12,0
112981,-4575,-6630,562,12,23,13,0
112986,-4729,-6632,529,12,22,15,0
112991,-4859,-6609,486,13,23,16,0
112996,-4881,-6565,474,13,24,18,0
113001,-4833,-6521,476,14,24,19,0
113006,-4766,-6497,484,15,25,19,0
113011,-4736,-6485,488,16,25,20,0
113016,-4796,-6476,490,16,26,21,0
113021,-4866,-6456,482,17,27,22,0
113026,-4956,-6426,474,18,28,23,0
113031,-4986,-6395,449,18,30,23,0
113036,-4977,-6373,415,19,32,24,0
113041,-4926,-6364,375,20,33,24,0
113046,-4913,-6365,363,20,35,24,0
113051,-4907,-6363,334,21,38,24,0
113056,-4939,-6360,323,22,41,25,0
113061,-4970,-6355,300,23,44,25,0
113066,-4984,-6345,265,23,47,25,0
113071,-4962,-6338,232,24,50,25,0
113076,-4903,-6340,183,25,52,25,0
113081,-4825,-6341,137,25,53,25,0
113086,-4759,-6349,104,26,54,25,0
113091,-4720,-6365,90,26,53,25,0
113096,-4679,-6390,72,27,52,25,0
113101,-4643,-6418,44,28,50,25,0
113106,-4610,-6440,6,28,48,25,0
113111,-4564,-6464,-43,29,44,24,0
113116,-4524,-6492,-98,30,41,24,0
113122,-4486,-6531,-169,30,37,23,0
113127,-4476,-6568,-235,31,35,23,0
113132,-4503,-6605,-297,32,32,22,0
113136,-4510,-6636,-368,33,30,22,0
113141,-4530,-6658,-447,34,30,21,0
113146,-4549,-6673,-530,35,30,20,0
113151,-4553,-6679,-620,36,29,20,0
113156,-4543,-6685,-695,37,30,19,0
113161,-4515,-6685,-742,38,31,19,0
113166,-4482,-6675,-774,38,32,18,0
113171,-4441,-6655,-806,39,32,17,0
113176,-4397,-6631,-831,40,34,17,0
113181,-4341,-6608,-858,41,35,16,0
113186,-4277,-6589,-873,41,35,16,0
113191,-4200,-6580,-891,42,35,16,0
113196,-4117,-6570,-910,42,35,15,0
113201,-4046,-6561,-936,43,33,15,0
113206,-3974,-6550,-954,44,32,15,0
113212,-3909,-6542,-986,44,30,14,0
113217,-3866,-6545,-1008,45,28,14,0
113222,-3830,-6558,-1023,45,26,13,0
113227,-3792,-6572,-1043,45,24,13,0
113232,-3763,-6591,-1041,46,23,12,0
113237,-3716,-6614,-1044,46,22,12,0
113242,-3680,-6636,-1057,46,21,12,0
113246,-3661,-6666,-1068,47,21,11,0
113251,-3642,-6699,-1089,47,22,11,0
113256,-3627,-6727,-1119,47,23,10,1
113261,-3614,-6756,-1146,47,24,10,1
113266,-3575,-6777,-1193,47,24,9,1
113271,-3526,-6784,-1242,48,24,9,1
113276,-3487,-6784,-1277,48,23,8,1
113281,-3445,-6779,-1310,48,22,8,1
113286,-3411,-6776,-1347,48,22,7,1
113291,-3385,-6774,-1367,48,20,7,1
113296,-3342,-6779,-1382,48,19,7,1
113301,-3301,-6785,-1417,47,17,6,1
113306,-3249,-6788,-1444,47,14,6,1
113311,-3171,-6797,-1462,47,12,5,1
113316,-3100,-6808,-1469,47,9,5,1
113321,-3052,-6817,-1465,47,6,4,1
113326,-3022,-6818,-1480,46,3,4,1
113331,-3012,-6808,-1529,45,0,3,1
113336,-3010,-6800,-1561,44,-1,3,1
113341,-2997,-6812,-1551,44,-2,2,1
113347,-3066,-6847,-1417,44,-3,1,1
113352,-3158,-6877,-1287,43,-5,0,1
113357,-3257,-6898,-1264,42,-4,-1,1
113362,-3373,-6920,-1219,42,-2,-1,1
113368,-3497,-6936,-1238,41,1,-2,1
113373,-3570,-6953,-1304,41,2,-3,1
113378,-3620,-6967,-1371,40,5,-4,1
113384,-3643,-6984,-1412,39,7,-5,1
113389,-3647,-6998,-1448,38,9,-6,1
113394,-3672,-7007,-1480,38,11,-7,1
113400,-3697,-7003,-1524,37,13,-8,1
113405,-3714,-6992,-1575,36,15,-8,1
113410,-3730,-6983,-1596,35,17,-9,1
113415,-3720,-6973,-1609,34,17,-10,1
113421,-3684,-6960,-1606,34,18,-11,1
113426,-3656,-6940,-1591,33,18,-12,1
113431,-3615,-6918,-1594,32,17,-12,1
113435,-3578,-6897,-1604,31,15,-13,1
113439,-3562,-6881,-1614,30,13,-14,1
113443,-3544,-6875,-1628,29,10,-15,1
113447,-3531,-6875,-1627,28,7,-16,1
113451,-3530,-6882,-1618,28,4,-16,1
113455,-3512,-6898,-1623,27,2,-17,1
113461,-3505,-6922,-1623,26,1,-18,1
113466,-3516,-6946,-1637,25,-2,-19,1
113472,-3534,-6964,-1663,24,-3,-19,1
113476,-3586,-6977,-1667,23,-4,-20,1
113481,-3645,-6984,-1655,23,-4,-21,1
113487,-3703,-6990,-1640,22,-3,-22,1
113491,-3774,-7000,-1611,21,-1,-23,1
113495,-3837,-7022,-1597,20,1,-23,1
113500,-3881,-7057,-1597,19,4,-24,1
113505,-3923,-7095,-1609,18,5,-25,1
113510,-3954,-7123,-1620,17,6,-25,1
113515,-3971,-7143,-1620,16,8,-26,1
113520,-3990,-7164,-1585,16,8,-26,1
113525,-4001,-7179,-1551,15,8,-27,1
113530,-4372,-8494,-1645,14,7,-27,1
113535,-2411,-8516,-1441,13,21,-34,1
113540,-2350,-7949,-2397,16,43,-18,1
113545,-4354,-7542,-2198,21,-6,7,1
113550,-6072,-7595,-2207,10,-65,-3,1
113555,-7149,-7832,-2020,6,-60,-5,1
113561,-8468,-7529,-1263,5,-38,3,1
113566,-9353,-7186,-1440,4,-46,5,1
113570,-9223,-6987,-1048,5,-49,-2,1
113575,-8542,-6902,-1114,1,-37,0,1
113580,-7651,-6951,-1332,0,-24,5,1
113586,-6684,-7058,-1022,2,-10,7,1
113590,-6022,-7209,-1339,2,9,5,1
113595,-6002,-7361,-1454,1,17,4,1
113600,-5488,-7477,-1461,1,29,2,1
113606,-5229,-7482,-1641,0,44,1,1
113610,-5055,-7439,-1555,0,37,0,1
113615,-5100,-7339,-1608,-1,29,0,1
113620,-5122,-7241,-1376,-1,22,0,1
113626,-5148,-7139,-1290,-2,19,0,1
113631,-5021,-7037,-1155,-2,14,-1,1
113636,-4891,-6944,-1149,-2,9,-1,1
113641,-4765,-6880,-1199,-2,3,-2,1
113646,-4726,-6828,-1379,-3,-3,-2,1
113652,-4764,-6794,-1435,-3,-7,-3,1
113657,-4835,-6759,-1515,-4,-11,-3,1
113663,-4861,-6709,-1470,-4,-11,-3,1
113668,-4870,-6651,-1408,-5,-9,-3,1
113673,-4853,-6586,-1386,-5,-8,-3,1
113677,-4838,-6519,-1465,-6,-5,-3,1
113681,-4864,-6463,-1475,-6,-3,-3,1
113686,-4894,-6411,-1544,-7,-3,-3,1
113690,-4890,-6361,-1544,-7,-2,-3,1
113695,-4916,-6314,-1489,-8,-1,-2,1
113700,-4905,-6268,-1473,-9,-2,-2,1
113705,-4896,-6229,-1501,-9,0,-2,1
113710,-4917,-6201,-1500,-10,-1,-2,1
113715,-4911,-6185,-1570,-10,-3,-2,1
113720,-4883,-6176,-1604,-11,-3,-2,1
113725,-4892,-6178,-1586,-12,-4,-1,1
113730,-4857,-6178,-1609,-12,-7,-1,1
113735,-4825,-6173,-1627,-13,-8,-1,1
113740,-4825,-6163,-1611,-14,-11,0,1
113745,-4772,-6140,-1657,-14,-15,0,1
113750,-4745,-6118,-1663,-15,-17,0,1
113755,-4769,-6086,-1643,-16,-21,1,1
113760,-4760,-6053,-1671,-17,-25,1,1
113765,-4794,-6027,-1653,-18,-26,1,1
113770,-4856,-6008,-1636,-19,-29,2,1
113775,-4875,-5991,-1670,-20,-29,2,1
113780,-4928,-5981,-1670,-21,-28,3,1
113785,-4993,-5981,-1684,-21,-29,3,1
113790,-5010,-5982,-1739,-22,-27,3,1
113795,-5055,-5987,-1738,-23,-25,4,1
113800,-5105,-6005,-1751,-24,-24,4,1
113806,-5108,-6027,-1794,-25,-22,4,1
113811,-5151,-6045,-1788,-26,-20,5,1
113816,-5166,-6062,-1797,-27,-21,5,1
113821,-5134,-6074,-1814,-28,-19,5,1
113825,-5137,-6082,-1776,-29,-20,5,1
113830,-5123,-6095,-1766,-30,-21,6,1
113835,-5099,-6108,-1765,-31,-20,6,1
113840,-5126,-6128,-1741,-32,-21,6,1
113845,-5128,-6155,-1754,-33,-23,7,1
113850,-5121,-6182,-1758,-34,-23,7,1
113855,-5135,-6212,-1734,-34,-24,7,1
113860,-5112,-6243,-1735,-35,-25,7,1
113865,-5100,-6271,-1715,-36,-25,7,1
113870,-5115,-6299,-1689,-37,-26,7,1
113875,-5103,-6325,-1702,-38,-27,8,1
113880,-5116,-6355,-1694,-39,-27,8,1
113885,-5130,-6391,-1687,-39,-27,8,1
113890,-5105,-6420,-1693,-40,-27,8,1
113895,-5099,-6445,-1669,-41,-27,8,1
113900,-5088,-6464,-1650,-41,-28,8,1
113905,-5063,-6487,-1641,-42,-28,8,1
113910,-5067,-6509,-1612,-42,-28,8,1
113915,-5054,-6528,-1597,-43,-29,8,1
113920,-5024,-6540,-1582,-44,-29,8,1
113925,-5004,-6545,-1547,-44,-30,8,1
113930,-4975,-6545,-1524,-45,-31,8,1
113935,-4957,-6542,-1497,-45,-32,8,1
113940,-4957,-6538,-1456,-46,-33,8,1
113945,-4942,-6535,-1418,-46,-33,8,1
113950,-4925,-6535,-1377,-47,-34,8,1
113955,-4897,-6539,-1336,-47,-35,8,1
113960,-4848,-6545,-1298,-48,-36,7,1
113965,-4815,-6557,-1249,-48,-37,7,1
113970,-4783,-6575,-1197,-48,-39,7,1
113975,-4761,-6590,-1144,-49,-40,7,1
113980,-4767,-6610,-1093,-49,-40,7,1
113985,-4778,-6633,-1051,-50,-41,7,1
113990,-4805,-6662,-1007,-50,-41,6,1
113995,-4831,-6702,-971,-50,-41,6,1
114000,-4830,-6747,-953,-50,-41,6,1
114005,-4827,-6790,-928,-51,-40,5,1
114010,-4815,-6831,-914,-51,-39,5,1
114015,-4802,-6864,-900,-51,-38,5,1
114020,-4813,-6890,-866,-51,-38,4,1
114025,-4823,-6915,-838,-51,-37,4,1
114030,-4833,-6936,-801,-51,-35,4,1
114035,-4848,-6956,-755,-51,-34,3,1
114040,-4835,-6968,-732,-51,-32,3,1
114045,-4812,-6976,-704,-51,-30,3,1
114050,-4809,-6974,-661,-51,-29,2,1
114055,-4777,-6963,-650,-51,-29,2,1
114060,-4748,-6945,-618,-51,-28,2,1
114065,-4704,-6920,-588,-51,-27,2,1
114070,-4622,-6887,-573,-51,-27,1,1
114075,-4552,-6849,-545,-51,-27,1,1
114080,-4488,-6810,-517,-50,-28,1,1
114085,-4424,-6773,-502,-50,-30,1,1
114090,-4379,-6732,-470,-50,-31,1,1
114095,-4330,-6689,-445,-50,-33,1,1
114100,-4276,-6652,-424,-50,-35,1,1
114105,-4248,-6621,-380,-50,-36,1,1
114110,-4227,-6601,-341,-49,-38,1,1
114115,-4217,-6592,-310,-49,-39,1,1
114120,-4229,-6588,-286,-49,-40,2,1
114125,-4227,-6587,-275,-48,-40,2,1
114130,-4235,-6588,-257,-48,-39,2,1
114135,-4257,-6583,-234,-48,-39,2,1
114140,-4302,-6577,-118,-48,-38,2,1
114145,-4246,-6553,-183,-48,-35,1,1
114150,-4167,-6517,-330,-47,-33,2,1
114155,-4047,-6497,-403,-44,-32,2,1
114160,-3966,-6487,-463,-44,-35,2,1
114165,-3934,-6494,-531,-43,-39,1,1
114170,-3948,-6509,-633,-43,-41,1,1
114175,-3992,-6530,-710,-43,-43,1,1
114180,-3993,-6557,-740,-42,-45,1,1
114186,-3975,-6589,-714,-41,-46,1,1
114191,-3949,-6623,-642,-41,-47,1,1
114196,-3920,-6654,-581,-40,-46,1,1
114201,-3915,-6676,-545,-39,-44,0,1
114206,-3946,-6694,-542,-38,-43,0,1
114211,-3961,-6712,-560,-38,-42,0,1
114216,-3968,-6731,-572,-37,-40,0,1
114221,-3962,-6748,-569,-36,-40,-1,1
114227,-3938,-6760,-553,-36,-38,-1,1
114232,-3927,-6766,-533,-35,-36,-2,1
114237,-3934,-6760,-517,-34,-34,-2,1
114242,-3947,-6746,-509,-34,-33,-2,1
114248,-3958,-6722,-496,-33,-31,-3,1
114253,-3955,-6688,-478,-33,-29,-3,1
114259,-3932,-6648,-464,-32,-28,-3,1
114264,-3905,-6614,-447,-31,-27,-4,1
114270,-3869,-6589,-444,-31,-26,-4,1
114275,-3830,-6578,-445,-30,-26,-4,1
114281,-3801,-6575,-459,-30,-26,-4,1
114286,-3766,-6576,-471,-29,-27,-5,1
114292,-3725,-6574,-479,-29,-28,-5,1
114297,-3682,-6573,-462,-28,-29,-5,1
114301,-3639,-6567,-449,-28,-30,-5,1
114307,-3615,-6563,-425,-27,-31,-6,1
114312,-3609,-6557,-405,-27,-33,-6,1
114318,-3612,-6553,-389,-26,-34,-6,1
114323,-3620,-6554,-380,-26,-34,-6,1
114329,-3634,-6567,-372,-25,-36,-6,1
114334,-3655,-6592,-365,-25,-37,-6,1
114340,-3684,-6627,-350,-25,-38,-7,1
114346,-3718,-6668,-338,-24,-38,-7,1
114351,-3763,-6710,-330,-24,-38,-7,1
114356,-3826,-6749,-325,-23,-37,-7,1
114362,-3897,-6794,-320,-23,-36,-7,1
114367,-3963,-6856,-310,-23,-33,-7,1
114373,-4012,-6925,-300,-22,-30,-7,1
114378,-4042,-6996,-298,-22,-28,-7,1
114383,-4063,-7072,-300,-22,-25,-8,1
114388,-4087,-7147,-301,-21,-23,-8,1
114393,-4120,-7234,-322,-21,-21,-8,1
114398,-4158,-7317,-343,-20,-21,-7,1
114403,-4190,-7387,-362,-20,-22,-7,1
114408,-4223,-7452,-376,-20,-23,-7,1
114413,-4248,-7502,-375,-19,-24,-7,1
114418,-4282,-7531,-351,-19,-24,-7,1
114424,-4332,-7543,-327,-19,-25,-7,1
114430,-4406,-7544,-315,-19,-26,-6,1
114435,-4478,-7537,-316,-19,-26,-6,1
114441,-4546,-7527,-330,-19,-25,-6,1
114446,-4597,-7513,-347,-18,-25,-5,1
114451,-4640,-7495,-367,-18,-24,-5,1
114456,-4683,-7472,-374,-18,-23,-4,1
114462,-4734,-7453,-379,-18,-21,-4,1
114467,-4793,-7430,-371,-18,-19,-3,1
114473,-4851,-7411,-356,-18,-16,-3,1
114478,-4897,-7395,-344,-18,-13,-2,1
114482,-4924,-7377,-327,-18,-9,-2,1
114487,-4933,-7359,-313,-18,-7,-1,1
114492,-4926,-7342,-300,-17,-5,0,1
114497,-4912,-7325,-286,-17,-3,0,1
114502,-4902,-7301,-272,-17,-3,1,1
114507,-4906,-7271,-251,-16,-2,1,1
114511,-4913,-7236,-228,-16,-1,2,1
114515,-4914,-7197,-213,-15,1,2,1
114520,-4908,-7151,-202,-15,2,3,1
114525,-4902,-7103,-178,-14,3,3,1
114530,-4896,-7067,-163,-13,5,4,1
114535,-4886,-7052,-161,-13,6,4,1
114540,-5430,-7107,-218,-12,9,5,1
114545,-4820,-7104,69,-10,5,4,1
114549,-4143,-6989,-236,-10,25,3,1
114553,-3629,-6903,-477,-10,23,0,1
114557,-3118,-6841,-788,-10,14,-3,1
114561,-2997,-6815,-931,-10,5,-5,1
114566,-3038,-6767,-857,-10,-6,-6,1
114570,-3325,-6679,-623,-9,-12,-5,1
114574,-3722,-6579,-305,-8,-20,-4,1
114579,-4084,-6454,-116,-7,-22,-3,1
114583,-4312,-6335,-51,-6,-21,-2,1
114587,-4572,-6294,-61,-5,-18,-2,1
114591,-4582,-6290,-189,-4,-16,-2,1
114596,-4352,-6259,-405,-4,-7,-3,1
114600,-4246,-6282,-518,-4,-2,-4,1
114604,-4164,-6304,-623,-3,-3,-5,1
114609,-4152,-6335,-734,-3,-2,-6,1
114613,-4245,-6380,-723,-3,-3,-6,1
114617,-4363,-6379,-702,-2,-6,-6,1
114622,-4411,-6371,-597,-2,-7,-5,1
114626,-4505,-6383,-463,-1,-10,-5,1
114630,-4454,-6396,-485,0,-12,-5,1
114635,-4504,-6446,-478,0,-11,-5,1
114639,-4495,-6490,-520,1,-13,-5,1
114644,-4428,-6537,-630,1,-13,-5,1
114649,-4450,-6608,-683,1,-12,-5,1
114654,-4358,-6702,-803,2,-12,-6,1
114659,-4347,-6792,-877,3,-11,-5,1
114664,-4269,-6859,-992,3,-10,-5,1
114669,-4248,-6893,-1045,4,-7,-5,1
114674,-4276,-6909,-1070,5,-6,-5,1
114680,-4297,-6899,-1082,5,-5,-5,1
114685,-4304,-6908,-1048,5,-3,-5,1
114690,-4264,-6925,-1027,6,-2,-5,1
114695,-4223,-6940,-988,7,0,-5,1
114700,-4232,-6956,-949,7,2,-4,1
114706,-4287,-6978,-871,8,1,-4,1
114710,-4259,-6998,-875,8,1,-4,1
114715,-4266,-7030,-787,9,1,-3,1
114721,-4307,-7040,-730,9,0,-3,1
114726,-4296,-7045,-661,9,0,-3,1
114731,-4299,-7063,-667,9,0,-3,1
114736,-4456,-7047,-574,10,-3,-3,1
114741,-4582,-7005,-535,10,-5,-3,1
114746,-4832,-6961,-373,10,-5,-2,1
114751,-5017,-6907,-283,10,-6,-2,1
114756,-5220,-6848,-170,11,-3,-1,1
114761,-5332,-6786,-117,11,1,-1,1
114766,-5406,-6728,-96,11,5,-1,1
114771,-5432,-6680,-122,11,8,-1,1
114776,-5434,-6630,-175,11,9,-1,1
114781,-5429,-6581,-219,11,10,-1,1
114785,-5438,-6533,-242,11,9,-1,1
114791,-5426,-6485,-251,12,7,-1,1
114795,-5380,-6441,-276,12,6,-1,1
114799,-5310,-6396,-312,12,5,-1,1
114803,-5236,-6352,-356,12,2,-1,1
114808,-5197,-6313,-410,12,-1,-1,1
114814,-5147,-6277,-481,12,-4,-1,1
114818,-5097,-6232,-556,12,-5,-1,1
114823,-5019,-6175,-636,12,-6,-1,1
114828,-4959,-6105,-685,12,-7,-1,1
114833,-4901,-6022,-726,12,-8,-1,1
114838,-4860,-5931,-759,12,-8,-2,1
114843,-4875,-5846,-760,12,-8,-2,1
114848,-4905,-5770,-752,12,-9,-2,1
114853,-4954,-5710,-755,12,-7,-2,1
114858,-4973,-5664,-796,11,-4,-3,1
114863,-4982,-5636,-858,11,-3,-3,1
114868,-4965,-5627,-938,11,-3,-3,1
114873,-4906,-5632,-1062,11,-2,-3,1
114878,-4854,-5646,-1157,11,0,-3,1
114883,-4831,-5668,-1224,11,-1,-3,1
114888,-4833,-5697,-1267,11,-2,-2,1
114893,-4850,-5743,-1319,10,-3,-2,1
114898,-4871,-5796,-1361,10,-4,-2,1
114903,-4904,-5851,-1403,10,-5,-1,1
114908,-4932,-5889,-1445,9,-6,0,1
114913,-4958,-5918,-1478,9,-6,1,1
114918,-4985,-5941,-1506,8,-5,2,1
114923,-5026,-5970,-1520,7,-6,2,1
114928,-5089,-6007,-1529,6,-7,3,1
114933,-5188,-6046,-1523,6,-8,4,1
114938,-5309,-6098,-1505,5,-9,5,1
114943,-5422,-6152,-1510,4,-10,6,1
114949,-5508,-6207,-1559,4,-10,7,1
114954,-5592,-6264,-1619,3,-10,8,1
114958,-5671,-6333,-1695,2,-9,9,1
114964,-5739,-6418,-1786,1,-8,10,1
114969,-5799,-6514,-1862,0,-7,12,1
114975,-5837,-6604,-1928,-2,-6,13,1
114980,-5837,-6680,-1994,-3,-4,14,1
114984,-5824,-6736,-2042,-4,-4,15,1
114988,-5829,-6777,-2050,-6,-5,16,1
114993,-5850,-6806,-2057,-7,-7,17,1
114998,-5884,-6826,-2051,-8,-9,17,1
115003,-5913,-6844,-2046,-10,-10,18,1
115008,-5910,-6857,-2072,-11,-12,19,1
115013,-5897,-6868,-2111,-12,-13,20,1
115018,-5871,-6882,-2180,-14,-13,20,1
115023,-5860,-6903,-2262,-16,-12,20,1
115028,-6212,-7437,-2584,-17,-12,21,1
115033,-5541,-7430,-2809,-21,-23,21,1
115038,-3481,-7193,-68,-8,51,15,1
115043,-3039,-7334,1190,-2,59,9,1
115048,-2993,-7137,2536,5,30,4,1
115053,-3277,-6770,3619,11,55,2,1
115058,-3903,-6432,2186,9,49,3,1
115063,-4068,-6185,1239,6,13,5,1
115068,-4014,-6098,-90,0,-14,8,1
115073,-3588,-6215,-487,-3,-36,9,1
115078,-3222,-6439,-551,-6,-36,8,1
115083,-3291,-6737,-481,-7,-31,7,1
115088,-3764,-6785,-654,-8,-21,7,1
115093,-4074,-6688,-22,-6,7,6,1
115098,-4490,-6624,114,-5,17,6,1
115103,-4676,-6538,433,-5,19,5,1
115108,-4536,-6468,753,-4,32,4,1
115113,-4330,-6393,486,-5,35,4,1
115118,-4093,-6362,335,-4,36,3,1
115123,-3924,-6388,36,-5,35,3,1
115128,-3909,-6423,-321,-6,29,3,1
115133,-3936,-6453,-409,-7,26,3,1
115138,-3986,-6475,-481,-8,25,3,1
115143,-4011,-6479,-378,-9,25,3,1
115148,-3991,-6476,-158,-8,29,3,1
115153,-3971,-6467,-56,-8,31,2,1
115158,-3933,-6463,42,-8,34,1,1
115163,-3951,-6474,56,-7,34,1,1
115168,-4000,-6505,-65,-7,31,1,1
115173,-4110,-6549,-157,-7,26,1,1
115178,-4160,-6605,-100,-7,20,0,1
115183,-4082,-6652,117,-8,17,-1,1
115188,-3917,-6664,90,-9,15,-2,1
115193,-3828,-6668,39,-7,15,-2,1
115198,-3784,-6676,20,-4,14,-3,1
115203,-3731,-6724,44,-2,13,-4,1
115208,-3679,-6744,-319,-3,12,-5,1
115213,-3763,-6726,-754,-2,9,-5,1
115218,-3875,-6713,-1047,0,4,-6,1
115223,-4029,-6706,-1185,1,-3,-7,1
115228,-4203,-6700,-1097,2,-8,-7,1
115233,-4308,-6673,-887,4,-8,-8,1
115238,-4363,-6620,-656,5,-5,-9,1
115243,-4378,-6539,-570,7,0,-10,1
115248,-4435,-6452,-607,9,3,-11,1
115253,-4524,-6383,-750,10,3,-11,0
115258,-4632,-6350,-853,11,2,-12,0
115263,-4747,-6344,-909,12,-1,-12,0
115268,-4834,-6345,-955,13,-4,-13,0
115273,-4857,-6337,-949,15,-5,-13,0
115278,-4913,-6308,-998,15,-6,-13,0
115283,-5052,-6254,-1181,16,-9,-12,0
115288,-4995,-6196,-1240,17,-8,-13,0
115293,-4982,-6157,-1229,17,-8,-13,0
115298,-4962,-6110,-1320,17,-11,-12,0
115303,-4992,-6078,-1285,18,-12,-12,0
115308,-5025,-6078,-1111,18,-13,-11,0
115313,-5089,-6066,-1125,16,-15,-10,0
115318,-5131,-6027,-1143,15,-16,-9,0
115323,-5202,-5987,-1056,15,-18,-8,0
115329,-5286,-5944,-1103,13,-22,-7,0
115335,-5429,-5905,-1146,12,-25,-6,0
115340,-5609,-5893,-1215,11,-26,-5,0
115345,-5778,-5899,-1359,10,-25,-3,0
115350,-5931,-5926,-1501,8,-21,-2,0
115355,-6046,-5959,-1688,6,-17,-1,0
115361,-6159,-6012,-1846,4,-13,1,0
115365,-6265,-6080,-1993,2,-8,2,0
115370,-6359,-6149,-2127,0,-3,3,0
115375,-6446,-6210,-2236,-2,1,4,0
115380,-6519,-6263,-2325,-5,5,6,0
115385,-6556,-6321,-2429,-7,8,7,0
115390,-6565,-6378,-2531,-9,11,8,0
115395,-6526,-6432,-2626,-12,11,9,0
115400,-6443,-6478,-2722,-14,10,10,0
115405,-6362,-6514,-2802,-16,8,11,0
115410,-6290,-6548,-2875,-19,5,12,0
115415,-6221,-6579,-2940,-21,2,12,0
115420,-6157,-6602,-2989,-24,0,13,0
115424,-6088,-6614,-3037,-26,-3,14,0
115429,-6014,-6613,-3085,-28,-6,14,0
115435,-5969,-6614,-3127,-30,-8,14,0
115440,-5925,-6615,-3180,-32,-10,15,0
115445,-5871,-6617,-3234,-34,-10,15,0
115449,-5826,-6613,-3260,-35,-9,15,0
115454,-5763,-6602,-3277,-37,-8,15,0
115460,-5699,-6588,-3271,-39,-7,14,0
115465,-5646,-6575,-3248,-40,-5,14,0
115469,-5580,-6559,-3216,-41,-4,14,0
115473,-5515,-6537,-3168,-42,-2,13,0
115478,-5454,-6515,-3098,-44,-1,13,0
115482,-5375,-6496,-3035,-45,1,12,0
115487,-5301,-6479,-2967,-46,4,11,0
115493,-5083,-6710,-2714,-46,6,11,0
