millis,ax,ay,az,gx,gy,gz,label
315757,438,-8169,279,-1,3,-1,0
315762,435,-8170,281,-1,3,-1,0
315767,433,-8170,288,-1,3,-1,0
315772,429,-8169,292,-1,3,-1,0
315777,429,-8171,293,-1,3,-1,0
315782,431,-8170,296,-1,2,-1,0
315787,426,-8171,300,-1,2,-1,0
315792,422,-8173,303,-1,1,-1,0
315797,417,-8173,306,-1,1,-1,0
315802,411,-8172,304,-1,1,-1,0
315807,405,-8174,304,-1,1,-1,0
315812,399,-8175,303,-1,1,-1,0
315817,393,-8175,301,-1,1,-1,0
315823,391,-8178,300,-1,1,-1,0
315827,391,-8179,297,-1,1,-1,0
315833,391,-8180,293,-1,2,-1,0
315837,392,-8182,290,-1,2,-1,0
315842,394,-8181,287,-1,3,-1,0
315847,397,-8182,287,-1,3,-1,0
315852,404,-8180,285,-1,3,-1,0
315858,413,-8179,282,-1,3,-1,0
315862,422,-8179,277,-1,3,-1,0
315867,428,-8179,271,-1,2,-1,0
315872,431,-8180,263,-1,2,-1,0
315877,435,-8179,254,-1,1,-1,0
315882,438,-8179,249,-1,1,-1,0
315887,439,-8179,245,-1,0,-1,0
315892,436,-8177,242,-1,0,-1,0
315897,431,-8177,244,-1,-1,-1,0
315902,426,-8178,244,-1,-1,-1,0
315907,419,-8178,245,-1,0,-1,0
315912,417,-8178,250,-1,0,-1,0
315917,419,-8179,253,-1,0,-1,0
315922,421,-8178,255,-1,1,-1,0
315927,423,-8178,255,-1,1,-1,0
315932,428,-8177,252,-1,2,-1,0
315937,435,-8177,246,-1,2,-1,0
315942,444,-8177,239,-1,2,-1,0
315946,457,-8175,234,-1,3,-1,0
315952,468,-8174,233,-1,2,-1,0
315957,479,-8176,234,-1,2,-1,0
315962,486,-8179,233,-1,1,-1,0
315967,493,-8178,228,-1,1,-1,0
315972,497,-8177,221,-1,0,-1,0
315977,491,-8174,216,-1,0,-1,0
315982,484,-8173,214,-1,-1,-1,0
315987,472,-8174,207,-1,-1,-1,0
315992,457,-8174,208,-1,0,-1,0
315997,443,-8175,209,-1,0,-1,0
316002,430,-8175,215,-1,0,-1,0
316006,418,-8175,225,-1,0,-1,0
316011,407,-8173,233,-1,0,-1,0
316017,397,-8171,241,-1,0,-1,0
316022,389,-8169,244,-1,0,-1,0
316027,384,-8172,243,-1,0,-1,0
316032,384,-8175,238,-1,0,-1,0
316036,385,-8173,238,-1,0,-1,0
316042,388,-8171,240,-1,0,-1,0
316047,394,-8169,244,-1,0,-1,0
316052,399,-8167,250,-1,0,-1,0
316057,407,-8166,254,-1,0,-1,0
316062,411,-8166,255,-1,0,-1,0
316066,412,-8166,256,-1,-1,-1,0
316071,408,-8165,255,-1,-1,-1,0
316076,404,-8165,256,-1,-2,-1,0
316081,397,-8166,258,-1,-2,-1,0
316086,394,-8166,256,-1,-1,-1,0
316092,391,-8169,257,-1,-1,-1,0
316097,392,-8171,265,-1,-1,-1,0
316101,392,-8172,270,-1,-1,-1,0
316106,394,-8175,277,-1,-1,-1,0
316112,396,-8176,285,-1,-2,-1,0
316116,396,-8176,293,-1,-2,-1,0
316121,397,-8178,302,-1,-2,-1,0
316126,400,-8176,312,-1,-1,-1,0
316131,402,-8178,317,-1,-1,-1,0
316137,405,-8179,323,-1,0,-1,0
316141,410,-8179,329,-1,0,-1,0
316146,414,-8174,340,-1,0,-1,0
316151,414,-8173,348,-1,0,-1,0
316156,413,-8175,353,-1,0,-1,0
316161,408,-8176,360,-1,0,-1,0
316166,406,-8175,362,-1,0,-1,0
316171,404,-8179,369,-1,1,-1,0
316176,401,-8175,375,-1,1,-1,0
316181,404,-8172,374,-1,0,-1,0
316186,407,-8171,376,-1,0,-1,0
316191,412,-8170,376,-1,0,-1,0
316196,417,-8170,376,-1,0,-1,0
316201,425,-8168,376,-1,0,-1,0
316206,433,-8170,373,-1,1,-1,0
316211,440,-8170,370,-1,1,-1,0
316216,447,-8170,369,-1,0,-1,0
316221,451,-8170,371,-1,0,-1,0
316226,453,-8169,373,-1,-1,-1,0
316231,450,-8169,378,-1,-1,-1,0
316236,446,-8169,389,-1,-2,-1,0
316241,437,-8173,395,-1,-2,-1,0
316246,426,-8173,402,-1,-2,-1,0
316251,421,-8171,406,-1,-2,-1,0
316256,416,-8171,404,-1,-1,-1,0
316261,416,-8172,407,-1,-1,-1,0
316266,421,-8170,400,-1,-1,-1,0
316271,426,-8171,394,-1,-1,-1,0
316276,436,-8172,389,-1,-2,-1,0
316281,446,-8173,385,-1,-2,-1,0
316286,457,-8171,377,-1,-2,-1,0
316291,467,-8173,371,-1,-2,-1,0
316296,480,-8173,366,-1,-2,-1,0
316301,488,-8174,360,-1,-2,-1,0
316306,494,-8173,352,-1,-3,-1,0
316311,498,-8173,343,-1,-3,0,0
316316,501,-8166,335,-1,-2,0,0
316321,500,-8164,325,-1,-2,0,0
316326,496,-8166,322,-1,-2,0,0
316331,492,-8169,322,-1,-2,0,0
316336,489,-8170,318,-1,-1,0,0
316341,485,-8170,324,-1,-1,0,0
316346,481,-8170,326,-1,-2,0,0
316351,478,-8170,326,-1,-2,0,0
316356,472,-8166,326,-1,-3,0,0
316361,463,-8163,323,-1,-3,0,0
316366,451,-8163,318,-1,-3,0,0
316371,432,-8164,315,-1,-3,0,0
316376,418,-8166,317,-1,-3,0,0
316381,404,-8168,320,-1,-3,0,0
316386,395,-8170,326,-1,-3,0,0
316391,388,-8170,331,-1,-3,0,0
316396,382,-8170,337,-1,-3,0,0
316401,381,-8171,345,-1,-3,0,0
316406,386,-8170,347,-1,-3,0,0
316411,394,-8173,349,-1,-4,0,0
316416,402,-8175,349,-1,-4,0,0
316421,407,-8171,349,-1,-5,0,0
316426,407,-8171,351,-1,-5,0,0
316431,405,-8170,355,-1,-5,0,0
316436,404,-8169,369,-1,-5,0,0
316441,406,-8167,384,-1,-5,0,0
316446,408,-8165,397,-1,-5,-1,0
316451,418,-8164,410,-1,-4,0,0
316456,430,-8163,426,-1,-5,0,0
316461,446,-8162,442,-1,-5,0,0
316466,462,-8163,451,-1,-5,0,0
316471,478,-8165,462,-1,-6,0,0
316476,492,-8167,471,-1,-6,0,0
316481,507,-8172,482,-1,-5,0,0
316486,519,-8174,490,-1,-5,0,0
316491,533,-8174,500,-1,-4,0,0
316496,543,-8173,511,-1,-4,0,0
316501,548,-8172,517,-1,-4,0,0
316506,547,-8172,528,-1,-5,0,0
316511,544,-8172,541,-1,-5,0,0
316516,538,-8172,551,-1,-5,0,0
316521,533,-8173,555,-1,-5,0,0
316526,529,-8174,563,-1,-5,0,0
316531,520,-8173,567,-1,-4,0,0
316536,509,-8170,567,-1,-4,0,0
316541,499,-8167,567,-1,-4,0,0
316546,492,-8166,560,-1,-3,0,0
316551,492,-8164,556,-2,-3,0,0
316556,493,-8165,549,-2,-3,0,0
316561,494,-8165,546,-2,-3,0,0
316566,500,-8162,543,-2,-4,0,0
316571,506,-8157,536,-2,-4,0,0
316576,510,-8161,533,-2,-4,0,0
316581,514,-8164,525,-2,-5,0,0
316586,520,-8166,521,-2,-5,0,0
316591,521,-8167,518,-2,-5,0,0
316596,520,-8166,520,-2,-5,0,0
316601,516,-8165,526,-2,-5,0,0
316606,511,-8168,537,-2,-5,0,0
316611,503,-8168,549,-2,-5,0,0
316616,494,-8165,565,-2,-5,0,0
316621,484,-8165,575,-2,-5,0,0
316626,474,-8164,578,-2,-5,1,0
316631,464,-8166,587,-2,-5,1,0
316636,455,-8168,590,-2,-5,1,0
316641,448,-8168,586,-2,-5,1,0
316646,440,-8165,575,-2,-5,1,0
316651,434,-8166,558,-2,-5,1,0
316656,433,-8166,539,-2,-5,1,0
316661,429,-8166,518,-2,-6,1,0
316666,422,-8167,494,-2,-6,1,0
316671,419,-8166,476,-2,-6,1,0
316676,411,-8167,460,-2,-6,1,0
316681,401,-8167,445,-2,-5,1,0
316686,390,-8170,431,-2,-5,1,0
316691,380,-8170,421,-2,-5,0,0
316696,367,-8168,411,-2,-5,0,0
316701,354,-8167,411,-2,-5,0,0
316706,342,-8167,411,-2,-5,0,0
316711,331,-8169,414,-2,-5,0,0
316716,325,-8171,418,-2,-5,0,0
316721,314,-8171,424,-2,-5,0,0
316726,304,-8172,428,-2,-5,0,0
316731,296,-8171,436,-2,-5,0,0
316736,289,-8170,445,-2,-5,0,0
316741,280,-8169,455,-2,-5,0,0
316746,274,-8171,469,-2,-5,0,0
316751,269,-8172,479,-2,-5,0,0
316756,262,-8171,492,-2,-5,0,0
316761,260,-8173,503,-2,-5,0,0
316766,260,-8173,506,-2,-5,0,0
316771,262,-8175,503,-2,-5,0,0
316776,267,-8176,493,-2,-5,0,0
316781,276,-8176,480,-2,-5,0,0
316786,288,-8176,465,-2,-5,0,0
316791,302,-8175,450,-2,-5,0,0
316796,311,-8176,438,-2,-5,0,0
316801,319,-8175,428,-2,-5,0,0
316806,328,-8171,417,-2,-6,0,0
316811,335,-8171,409,-2,-6,0,0
316816,340,-8170,407,-2,-6,0,0
316821,340,-8171,408,-2,-6,0,0
316826,339,-8172,414,-2,-7,0,0
316831,337,-8170,425,-2,-7,0,0
316836,334,-8171,440,-2,-7,0,0
316841,328,-8170,453,-2,-7,0,0
316846,319,-8171,463,-2,-7,0,0
316851,311,-8172,474,-2,-6,0,0
316856,304,-8171,485,-3,-6,0,0
316861,299,-8171,497,-3,-6,0,0
316866,294,-8173,507,-3,-6,-1,0
316871,293,-8172,511,-3,-6,-1,0
316876,294,-8171,511,-3,-6,-1,0
316881,295,-8170,510,-3,-6,-1,0
316886,300,-8171,498,-3,-6,-1,0
316891,305,-8171,486,-3,-6,-1,0
316896,308,-8171,474,-3,-6,-1,0
316901,310,-8170,458,-3,-5,-1,0
316906,315,-8169,440,-3,-5,-1,0
316911,320,-8170,419,-3,-4,-1,0
316915,328,-8170,402,-3,-4,-1,0
316921,338,-8172,389,-3,-4,-1,0
316926,347,-8174,373,-3,-4,-1,0
316931,355,-8173,361,-3,-4,-1,0
316935,362,-8172,345,-3,-4,-1,0
316940,370,-8173,337,-2,-4,-1,0
316946,380,-8173,329,-2,-4,-1,0
316951,387,-8174,325,-2,-4,-1,0
316955,391,-8173,324,-2,-4,-1,0
316961,392,-8170,328,-2,-5,-1,0
316966,392,-8169,332,-2,-5,-1,0
316970,397,-8167,337,-2,-5,-1,0
316975,401,-8168,346,-2,-5,-1,0
316981,404,-8169,353,-2,-5,-1,0
316986,407,-8168,356,-2,-6,-1,0
316991,412,-8166,359,-2,-6,-1,0
316996,413,-8164,363,-2,-6,-1,0
317002,417,-8164,363,-2,-6,-1,0
317007,423,-8165,360,-2,-6,-1,0
317012,428,-8165,358,-2,-6,-1,0
317017,435,-8167,352,-2,-7,-1,0
317022,441,-8165,345,-2,-7,-1,0
317026,447,-8163,332,-2,-7,-1,0
317030,450,-8163,313,-2,-7,-1,0
317036,456,-8164,293,-2,-7,-1,0
317041,463,-8164,272,-2,-7,-1,0
317046,469,-8161,257,-2,-7,-1,0
317050,471,-8158,240,-2,-7,-1,0
317056,476,-8158,222,-2,-7,0,0
317061,479,-8157,209,-2,-6,0,0
317066,481,-8156,196,-2,-6,0,0
317070,480,-8159,181,-2,-6,0,0
317075,479,-8158,168,-2,-5,0,0
317080,478,-8158,155,-1,-5,0,0
317085,476,-8157,147,-1,-4,0,0
317090,479,-8157,143,-1,-4,0,0
317095,479,-8158,137,-1,-3,0,0
317100,476,-8159,140,-1,-3,0,0
317105,472,-8158,154,-1,-3,0,0
317110,468,-8159,161,-1,-3,0,0
317115,464,-8161,171,-1,-3,0,0
317120,460,-8159,177,-1,-4,0,0
317125,457,-8157,180,-1,-4,0,0
317130,456,-8157,183,-1,-4,0,0
317135,454,-8160,192,-1,-5,0,0
317140,447,-8160,203,-1,-5,0,0
317146,436,-8164,218,-1,-5,0,0
317150,422,-8163,239,-1,-5,0,0
317155,402,-8166,261,-1,-5,0,0
317160,378,-8167,293,-1,-4,0,0
317165,352,-8169,334,-1,-4,0,0
317170,326,-8171,375,-1,-4,0,0
317175,302,-8172,417,-1,-3,0,0
317180,282,-8172,457,-1,-3,0,0
317185,268,-8172,488,-1,-2,0,0
317190,266,-8169,509,-1,-1,0,0
317195,272,-8168,526,-1,-1,-1,0
317200,287,-8169,538,-1,-1,-1,0
317205,309,-8169,549,-1,0,-1,0
317210,330,-8169,557,-1,0,-1,0
317215,350,-8168,563,-1,1,-1,0
317220,369,-8168,568,-1,1,-1,0
317225,396,-8168,571,-1,1,-1,0
317230,423,-8170,555,-1,1,-1,0
317235,454,-8171,554,-1,0,0,0
317240,472,-8169,550,-1,0,0,0
317245,493,-8166,540,-1,0,0,0
317250,509,-8166,547,-1,1,0,0
317255,522,-8167,544,-2,2,0,0
317260,535,-8168,555,-2,2,0,0
317265,543,-8165,571,-2,1,0,0
317270,547,-8162,585,-2,1,0,0
317275,545,-8162,604,-2,0,0,0
317280,537,-8164,623,-2,-1,0,0
317285,523,-8164,645,-2,-1,0,0
317290,507,-8166,665,-2,0,0,0
317295,495,-8164,685,-2,0,0,0
317300,484,-8162,706,-2,0,0,0
317305,473,-8162,725,-2,0,0,0
317310,466,-8159,745,-2,0,0,0
317315,464,-8159,760,-3,-1,0,0
317320,468,-8161,767,-3,-2,0,0
317325,473,-8162,771,-3,-3,0,0
317330,478,-8163,765,-3,-4,0,0
317335,486,-8161,761,-3,-4,0,0
317340,494,-8159,746,-3,-5,0,0
317345,503,-8159,730,-3,-5,0,0
317350,513,-8158,720,-3,-6,0,0
317355,527,-8157,709,-3,-7,0,0
317360,541,-8155,694,-3,-8,0,0
317365,556,-8155,674,-3,-9,0,0
317370,571,-8153,649,-3,-10,0,0
317375,587,-8156,622,-3,-11,0,0
317380,596,-8157,594,-3,-12,0,0
317385,604,-8158,562,-3,-12,0,0
317390,607,-8159,531,-3,-13,0,0
317395,606,-8161,509,-3,-13,0,0
317400,599,-8157,488,-3,-14,0,0
317405,581,-8157,475,-3,-14,0,0
317410,563,-8154,473,-3,-14,0,0
317415,538,-8153,470,-3,-15,0,0
317420,509,-8155,460,-3,-15,0,0
317425,478,-8155,445,-3,-15,0,0
317430,450,-8158,426,-3,-15,0,0
317435,423,-8160,402,-3,-15,0,0
317440,400,-8160,377,-3,-15,0,0
317445,377,-8161,357,-3,-15,0,0
317450,355,-8160,341,-3,-15,0,0
317455,331,-8158,326,-3,-14,0,0
317460,309,-8158,319,-3,-14,0,0
317465,288,-8159,310,-3,-14,0,0
317470,268,-8162,308,-3,-13,0,0
317475,249,-8161,301,-3,-13,0,0
317480,235,-8164,291,-3,-12,0,0
317485,228,-8161,276,-3,-11,0,0
317490,225,-8161,258,-3,-10,0,0
317495,230,-8163,239,-3,-9,0,0
317500,240,-8163,224,-3,-8,0,0
317505,254,-8165,211,-2,-7,0,0
317510,266,-8165,195,-2,-6,0,0
317515,277,-8160,185,-2,-5,0,0
317520,287,-8161,175,-2,-5,0,0
317525,292,-8162,172,-2,-4,0,0
317530,294,-8164,174,-2,-3,0,0
317535,298,-8167,180,-2,-2,0,0
317540,295,-8169,193,-2,-2,0,0
317545,291,-8170,206,-2,-1,0,0
317550,291,-8170,219,-2,0,0,0
317555,292,-8173,234,-2,0,0,0
317560,290,-8174,253,-2,0,0,0
317565,286,-8175,269,-2,1,0,0
317570,283,-8174,291,-2,1,0,0
317575,277,-8175,311,-2,2,0,0
317580,269,-8172,331,-2,2,-1,0
317585,264,-8173,353,-2,3,-1,0
317590,262,-8173,368,-2,3,-1,0
317595,263,-8172,383,-2,4,-1,0
317600,273,-8170,396,-2,4,-1,0
317605,288,-8168,408,-2,4,-1,0
317610,304,-8167,421,-2,4,-1,0
317615,320,-8168,436,-2,4,-1,0
317620,335,-8170,455,-2,3,-1,0
317625,352,-8169,476,-2,3,-1,0
317630,370,-8169,496,-2,3,-1,0
317635,387,-8168,513,-2,3,-1,0
317640,405,-8167,530,-3,3,-1,0
317645,422,-8167,546,-3,3,-1,0
317650,441,-8167,557,-3,2,0,0
317655,455,-8167,558,-3,2,0,0
317660,472,-8167,564,-3,2,0,0
317665,488,-8167,568,-3,2,0,0
317670,494,-8165,572,-3,2,-1,0
317675,497,-8166,578,-3,1,0,0
317680,497,-8166,583,-3,1,0,0
317685,495,-8168,591,-3,1,0,0
317690,490,-8172,599,-3,1,0,0
317695,487,-8174,605,-3,1,0,0
317700,485,-8173,615,-3,0,0,0
317705,483,-8173,624,-3,0,0,0
317710,482,-8174,634,-3,-1,0,0
317715,479,-8171,641,-3,-1,0,0
317720,478,-8167,642,-3,-2,0,0
317725,479,-8164,638,-3,-2,0,0
317730,479,-8163,632,-4,-3,0,0
317735,481,-8163,621,-4,-3,0,0
317739,481,-8164,607,-4,-4,0,0
317744,481,-8164,589,-4,-4,0,0
317749,486,-8164,571,-4,-4,0,0
317755,490,-8162,547,-4,-5,0,0
317760,493,-8164,523,-4,-5,0,0
317764,494,-8166,493,-4,-5,0,0
317769,494,-8169,465,-4,-6,0,0
317774,494,-8168,435,-4,-6,0,0
317779,493,-8166,408,-4,-6,0,0
317784,490,-8166,378,-4,-7,0,0
317790,486,-8166,352,-4,-7,0,0
317794,480,-8164,328,-4,-8,0,0
317800,469,-8165,311,-3,-8,0,0
317804,457,-8164,300,-3,-8,0,0
317809,441,-8165,298,-4,-7,0,0
317814,420,-8164,297,-3,-7,0,0
317819,400,-8166,298,-3,-7,0,0
317824,385,-8168,299,-3,-7,0,0
317830,375,-8168,298,-3,-7,0,0
317834,373,-8166,295,-3,-6,0,0
317839,372,-8168,296,-3,-6,0,0
317844,378,-8166,293,-3,-6,0,0
317849,386,-8164,289,-3,-6,0,0
317854,393,-8166,280,-3,-6,0,0
317859,401,-8168,269,-3,-6,0,0
317864,409,-8168,259,-3,-6,0,0
317869,414,-8165,250,-3,-7,0,0
317874,417,-8163,240,-3,-7,0,0
317879,413,-8163,225,-3,-7,0,0
317884,412,-8165,215,-3,-7,0,0
317889,414,-8165,197,-3,-6,0,0
317894,413,-8166,178,-3,-5,0,0
317899,415,-8166,161,-3,-5,0,0
317905,423,-8164,139,-3,-4,0,0
317909,429,-8166,121,-3,-3,0,0
317914,437,-8164,104,-3,-3,0,0
317919,443,-8166,88,-3,-2,0,0
317924,444,-8169,77,-3,-2,0,0
317929,442,-8171,68,-2,-2,0,0
317934,436,-8170,61,-2,-1,0,0
317939,435,-8170,56,-2,-1,0,0
317944,438,-8168,52,-2,-1,0,0
317949,442,-8165,43,-2,0,0,0
317954,447,-8164,37,-2,0,0,0
317959,442,-8161,28,-2,0,0,0
317964,438,-8161,26,-2,0,0,0
317969,430,-8161,27,-2,0,0,0
317974,414,-8162,42,-2,0,0,0
317979,397,-8165,62,-2,1,0,0
317984,376,-8168,87,-2,1,0,0
317989,354,-8168,112,-2,0,0,0
317994,332,-8167,138,-2,0,0,0
317999,307,-8167,169,-2,0,0,0
318004,282,-8169,206,-1,0,0,0
318009,262,-8171,242,-2,0,0,0
318014,247,-8172,282,-2,0,0,0
318019,241,-8172,322,-2,1,0,0
318024,239,-8172,361,-2,1,0,0
318029,244,-8172,396,-2,1,0,0
318034,258,-8171,427,-2,2,0,0
318039,273,-8169,451,-2,2,0,0
318044,292,-8170,472,-2,3,0,0
318049,313,-8171,491,-2,4,0,0
318054,337,-8170,504,-2,5,0,0
318059,369,-8171,517,-2,5,0,0
318064,411,-8174,523,-2,5,0,0
318069,460,-8175,519,-2,5,0,0
318074,511,-8175,514,-2,5,0,0
318079,565,-8173,506,-2,4,0,0
318084,619,-8169,495,-2,4,0,0
318089,673,-8169,483,-2,3,0,0
318094,723,-8168,470,-2,3,0,0
318099,773,-8169,460,-3,3,1,0
318104,821,-8169,452,-3,2,1,0
318109,861,-8168,450,-3,0,1,0
318114,891,-8166,450,-3,-1,1,0
318119,909,-8165,454,-3,-3,1,0
318124,915,-8166,468,-3,-4,1,0
318129,917,-8164,485,-3,-4,1,0
318134,911,-8163,499,-3,-5,1,0
318139,897,-8164,516,-3,-5,2,0
318144,880,-8170,529,-3,-6,2,0
318149,854,-8171,532,-3,-7,2,0
318154,823,-8168,531,-3,-8,2,0
318159,789,-8167,528,-3,-10,2,0
318164,746,-8167,516,-3,-11,2,0
318169,699,-8168,502,-3,-13,2,0
318174,646,-8170,484,-3,-14,2,0
318179,587,-8172,468,-3,-15,2,0
318184,527,-8171,451,-3,-15,2,0
318189,466,-8171,435,-3,-15,2,0
318194,405,-8170,422,-3,-15,2,0
318200,349,-8171,411,-3,-15,2,0
318204,295,-8171,398,-3,-14,2,0
318210,250,-8172,383,-3,-14,2,0
318215,216,-8172,363,-3,-13,2,0
318220,186,-8171,346,-3,-12,1,0
318225,165,-8172,323,-3,-11,1,0
318230,147,-8172,296,-3,-11,1,0
318235,138,-8173,268,-3,-10,1,0
318240,133,-8172,244,-3,-9,1,0
318245,131,-8172,222,-3,-8,1,0
318250,132,-8175,202,-3,-7,1,0
318255,134,-8179,181,-3,-6,1,0
318259,138,-8180,162,-3,-5,1,0
318264,143,-8177,148,-3,-4,1,0
318269,150,-8177,136,-2,-3,1,0
318274,158,-8177,124,-2,-2,1,0
318279,160,-8177,120,-2,-1,1,0
318284,169,-8177,119,-2,0,1,0
318289,178,-8173,122,-2,1,1,0
318294,188,-8169,131,-2,1,1,0
318299,192,-8169,144,-2,1,1,0
318304,194,-8170,166,-2,1,1,0
318309,193,-8176,188,-2,1,1,0
318314,192,-8180,214,-2,1,1,0
318319,186,-8182,239,-2,1,1,0
318324,175,-8182,263,-2,1,1,0
318329,159,-8181,286,-2,2,0,0
318334,147,-8179,308,-2,3,0,0
318339,140,-8176,328,-2,4,0,0
318344,131,-8176,343,-2,5,0,0
318349,129,-8176,356,-2,6,0,0
318354,134,-8177,364,-2,7,0,0
318359,142,-8178,370,-3,8,0,0
318364,158,-8177,373,-3,7,0,0
318369,173,-8176,375,-3,7,0,0
318374,187,-8175,374,-3,6,0,0
318379,201,-8176,372,-3,6,0,0
318384,214,-8177,370,-3,5,0,0
318389,222,-8179,369,-3,4,0,0
318394,230,-8183,369,-3,3,0,0
318399,236,-8187,372,-3,2,0,0
318404,238,-8185,372,-3,1,0,0
318409,240,-8184,371,-3,1,0,0
318414,238,-8184,372,-3,1,0,0
318419,234,-8182,372,-3,1,0,0
318424,227,-8180,376,-3,1,0,0
318429,222,-8180,379,-3,2,0,0
318434,219,-8181,385,-3,2,0,0
318439,220,-8181,391,-3,2,0,0
318444,224,-8179,403,-3,1,0,0
318449,229,-8177,407,-3,1,0,0
318454,235,-8179,411,-3,0,0,0
318459,241,-8183,410,-3,-1,0,0
318464,246,-8182,405,-3,-1,0,0
318469,250,-8180,400,-3,-1,0,0
318474,251,-8176,391,-3,-2,0,0
318479,254,-8177,383,-3,-2,0,0
318484,255,-8174,377,-3,-2,0,0
318489,256,-8173,364,-3,-2,0,0
318494,261,-8171,349,-3,-2,0,0
318499,264,-8170,325,-3,-2,0,0
318504,265,-8168,304,-3,-2,0,0
318509,269,-8168,288,-3,-2,0,0
318514,268,-8168,273,-3,-2,0,0
318519,267,-8169,258,-3,-2,-1,0
318524,260,-8172,242,-3,-2,0,0
318529,254,-8175,224,-3,-2,-1,0
318534,247,-8177,205,-3,-2,-1,0
318539,241,-8180,195,-3,-2,-1,0
318544,233,-8181,192,-3,-2,-1,0
318549,223,-8179,189,-3,-2,-1,0
318554,214,-8179,188,-3,-2,-1,0
318559,204,-8180,190,-3,-2,-1,0
318564,199,-8180,194,-3,-2,-1,0
318569,200,-8181,193,-3,-2,-1,0
318573,209,-8180,190,-3,-2,-1,0
318579,219,-8178,188,-3,-2,-1,0
318584,229,-8179,181,-3,-2,-1,0
318589,237,-8178,177,-3,-2,-1,0
318594,243,-8176,171,-2,-2,-1,0
318599,244,-8176,168,-2,-2,-1,0
318604,245,-8178,167,-2,-2,-1,0
318609,243,-8180,165,-2,-2,-1,0
318614,243,-8182,166,-2,-2,-1,0
318620,245,-8180,159,-2,-2,-1,0
318624,248,-8179,155,-2,-1,-1,0
318629,257,-8179,148,-2,-1,-1,0
318634,257,-8176,144,-2,-1,-1,0
318639,255,-8175,129,-2,1,-1,0
318643,272,-8175,116,-2,2,-1,0
318648,281,-8174,107,-2,1,-1,0
318653,291,-8170,97,-2,0,-1,0
318659,303,-8168,92,-2,-2,-1,0
318663,306,-8166,93,-2,-2,-1,0
318668,312,-8168,96,-2,-2,-1,0
318673,308,-8169,99,-2,-1,-1,0
318678,311,-8171,102,-2,0,-1,0
318684,309,-8173,107,-2,0,-1,0
318688,301,-8173,121,-2,0,-1,0
318693,296,-8172,135,-2,-1,-1,0
318698,286,-8171,155,-2,-1,-1,0
318703,282,-8169,177,-2,-1,-1,0
318708,281,-8168,197,-2,-1,-1,0
318713,278,-8167,219,-2,0,-1,0
318718,278,-8167,246,-2,0,-1,0
318723,277,-8167,267,-2,0,-1,0
318728,280,-8168,290,-2,-1,-1,0
318733,285,-8170,309,-2,-1,-1,0
318738,290,-8172,322,-2,-1,-1,0
318743,298,-8172,333,-2,-1,-1,0
318748,312,-8173,336,-2,-1,-1,0
318753,325,-8175,337,-2,-1,-1,0
318758,342,-8175,329,-2,0,-1,0
318763,360,-8177,315,-2,0,-1,0
318768,376,-8174,297,-2,0,-1,0
318773,392,-8172,281,-2,0,-1,0
318778,407,-8170,266,-2,0,-1,0
318783,423,-8168,252,-2,0,-1,0
318788,437,-8168,244,-2,0,-1,0
318793,449,-8168,246,-2,1,-1,0
318798,460,-8170,257,-2,1,-1,0
318803,465,-8173,266,-2,1,-1,0
318808,466,-8177,283,-2,1,-1,0
318813,464,-8178,301,-2,1,-1,0
318818,457,-8178,316,-2,1,-1,0
318823,439,-8177,336,-2,2,-1,0
318828,432,-8180,353,-2,2,-1,0
318833,419,-8180,364,-2,2,-1,0
318838,402,-8181,375,-2,0,-1,0
318843,386,-8179,379,-2,-1,-1,0
318848,362,-8179,385,-2,-2,-1,0
318853,343,-8182,385,-2,-2,-1,0
318858,322,-8182,379,-2,-1,-1,0
318863,308,-8176,377,-2,0,-1,0
318868,295,-8177,365,-2,0,-1,0
318873,279,-8173,361,-2,0,-1,0
318878,270,-8172,356,-2,-1,-1,0
318883,259,-8172,354,-2,-1,-1,0
318888,246,-8174,352,-2,-1,-1,0
318893,237,-8177,350,-2,0,-1,0
318898,229,-8180,350,-2,1,-1,0
318903,228,-8182,348,-2,1,-1,0
318908,232,-8184,342,-2,2,-1,0
318913,240,-8186,341,-2,2,-1,0
318918,253,-8184,334,-2,1,-1,0
318923,270,-8180,327,-2,1,-1,0
318928,291,-8178,322,-2,1,-1,0
318933,310,-8177,318,-2,1,-1,0
318938,332,-8177,314,-2,1,-1,0
318943,352,-8178,309,-2,2,-1,0
318948,371,-8179,304,-3,3,-1,0
318953,389,-8179,296,-3,3,-1,0
318958,405,-8179,290,-2,3,-1,0
318963,421,-8179,286,-2,3,-1,0
318968,435,-8179,280,-2,3,-1,0
318973,442,-8181,271,-2,3,-1,0
318978,452,-8182,263,-2,3,-1,0
318983,462,-8182,253,-2,3,-1,0
318988,463,-8182,243,-2,3,-1,0
318993,463,-8181,233,-2,3,-1,0
318998,457,-8181,224,-2,3,-1,0
319003,448,-8181,219,-2,2,0,0
319008,438,-8179,211,-2,2,0,0
319013,427,-8179,208,-2,2,0,0
319018,417,-8180,209,-2,1,0,0
319023,406,-8181,211,-2,1,0,0
319028,397,-8181,215,-2,1,0,0
319033,389,-8182,217,-2,1,0,0
319038,382,-8181,217,-2,1,0,0
319043,375,-8183,218,-2,1,0,0
319048,367,-8182,224,-2,0,0,0
319053,361,-8181,231,-2,0,0,0
319058,362,-8180,229,-2,0,0,0
319063,363,-8180,227,-2,-1,0,0
319068,358,-8180,226,-2,-2,-1,0
319073,351,-8181,222,-2,-2,-1,0
319078,344,-8179,217,-2,-2,-1,0
319083,337,-8176,209,-2,-1,-1,0
319088,332,-8178,198,-2,-1,-1,0
319093,325,-8178,186,-2,-1,-1,0
319098,321,-8179,175,-2,-1,-1,0
319103,315,-8179,158,-2,-1,-1,0
319108,311,-8179,144,-2,-1,-1,0
319113,306,-8180,131,-2,-1,-1,0
319118,299,-8181,123,-2,0,-1,0
319123,294,-8182,120,-2,0,-1,0
319128,288,-8177,121,-2,1,-1,0
319133,287,-8176,119,-2,1,-1,0
319138,286,-8175,115,-2,2,-1,0
319143,272,-8175,123,-2,2,-1,0
319148,245,-8176,130,-1,5,-1,0
319153,254,-8176,133,-1,7,-1,0
319158,264,-8176,146,-1,8,-1,0
319163,284,-8177,150,-1,6,-1,0
319168,295,-8178,160,-1,4,-1,0
319173,308,-8176,170,-1,3,-1,0
319178,332,-8177,177,-1,2,-1,0
319183,346,-8177,187,-1,1,-1,0
319188,359,-8176,191,-1,0,-1,0
319193,364,-8175,195,-1,0,-1,0
319198,362,-8176,202,-1,-1,-1,0
319203,354,-8178,202,-1,-1,-1,0
319208,337,-8174,210,-1,-1,-1,0
319213,319,-8177,218,-1,0,-1,0
319218,301,-8179,228,-1,1,-1,0
319223,293,-8181,235,-1,2,-1,0
319228,300,-8182,235,-1,3,-1,0
319233,303,-8184,245,-1,4,-1,0
319238,312,-8182,241,-1,4,-1,0
319243,321,-8182,238,-1,3,-1,0
319248,322,-8184,240,-1,3,-1,0
319253,325,-8186,238,-1,2,-1,0
319258,332,-8187,238,-1,1,-1,0
319263,334,-8189,248,-1,0,-1,0
319268,330,-8188,254,-1,0,-1,0
319273,328,-8183,257,-1,0,-1,0
319278,327,-8178,264,-1,0,-1,0
319283,325,-8176,263,-1,1,-1,0
319288,324,-8176,265,-1,1,-1,0
319293,326,-8174,266,-1,1,-1,0
319298,327,-8174,268,-1,1,-1,0
319303,332,-8175,272,-1,1,-1,0
319308,338,-8175,270,-1,2,-1,0
319313,346,-8173,270,-1,3,-1,0
319318,355,-8172,276,-1,2,-1,0
319323,367,-8169,275,-1,2,-1,0
319328,377,-8169,277,-1,1,-1,0
319333,384,-8169,281,-1,1,-1,0
319338,385,-8168,283,-1,1,-1,0
319343,386,-8167,285,-1,1,-1,0
319348,387,-8170,279,-1,1,-1,0
319353,385,-8172,276,-1,1,-1,0
319358,386,-8170,270,-1,0,-1,0
319363,383,-8169,266,-1,-1,-1,0
319368,379,-8169,265,-1,-1,-1,0
319373,369,-8170,265,-1,-1,-1,0
319378,360,-8171,270,-1,0,-1,0
319383,350,-8168,268,-1,0,-1,0
319388,342,-8166,272,-1,0,-1,0
319393,335,-8168,274,-1,0,-1,0
319398,330,-8170,275,-1,0,-1,0
319403,330,-8170,276,-1,1,-1,0
319408,332,-8168,274,-1,1,-1,0
319413,332,-8167,275,-1,1,-1,0
319418,335,-8166,279,-1,2,-1,0
319423,338,-8168,282,-1,2,-1,0
319428,346,-8168,287,-1,1,-1,0
319433,351,-8165,283,-1,1,-1,0
319438,359,-8163,282,-1,1,-1,0
319443,366,-8163,280,-1,1,-1,0
319448,375,-8167,274,-1,1,-1,0
319453,387,-8169,269,-1,1,-1,0
319458,399,-8167,265,-1,2,-1,0
319463,411,-8166,260,-1,2,-1,0
319468,423,-8166,258,-1,2,-1,0
319473,434,-8163,261,-1,2,-1,0
319477,442,-8161,262,-1,2,-1,0
319482,446,-8159,263,-1,2,-1,0
319487,452,-8160,260,-1,2,-1,0
319493,451,-8160,254,-1,2,-1,0
319497,451,-8164,246,-1,2,-1,0
319502,450,-8167,242,-1,2,-1,0
319507,443,-8169,236,-1,2,-1,0
319513,430,-8168,231,-1,2,-1,0
319517,418,-8169,228,-1,2,0,0
319522,403,-8170,230,0,3,0,0
319527,387,-8173,232,0,3,0,0
319532,371,-8173,235,0,4,0,0
319537,356,-8171,242,0,5,-1,0
319542,342,-8172,249,0,5,-1,0
319547,331,-8173,254,0,6,-1,0
319552,317,-8175,261,0,6,-1,0
319557,301,-8176,269,0,6,-1,0
319562,289,-8178,278,0,6,-1,0
319567,278,-8178,292,0,6,-1,0
319572,268,-8180,310,0,5,-1,0
319577,256,-8179,332,0,5,-1,0
319582,244,-8177,358,0,5,-1,0
319587,227,-8178,387,0,5,-1,0
319592,210,-8179,420,0,4,-1,0
319597,193,-8183,453,-1,5,-1,0
319602,179,-8184,488,-1,5,-1,0
319608,170,-8184,523,-1,5,-1,0
319612,166,-8184,552,-1,6,-1,0
319617,170,-8183,582,-1,6,-1,0
319622,183,-8182,606,-1,7,-1,0
319627,199,-8185,631,-1,7,-1,0
319632,218,-8184,656,-1,8,-1,0
319637,239,-8185,673,-1,8,-1,0
319642,263,-8184,688,-1,8,-1,0
319648,284,-8181,696,-2,8,-1,0
319652,306,-8179,698,-2,7,-1,0
319657,332,-8182,698,-2,7,-1,0
319662,360,-8184,696,-2,7,-1,0
319667,393,-8180,685,-2,7,-1,0
319672,428,-8178,678,-2,6,-1,0
319677,462,-8177,666,-2,6,-1,0
319682,493,-8177,654,-2,6,-1,0
319687,519,-8177,646,-2,6,-1,0
319692,541,-8177,643,-2,5,-1,0
319697,558,-8176,638,-2,5,-1,0
319702,572,-8175,633,-2,4,-1,0
319707,586,-8172,633,-2,3,-1,0
319712,599,-8170,636,-3,1,-1,0
319717,606,-8166,635,-3,-1,-1,0
319723,606,-8164,631,-3,-3,0,0
319727,596,-8161,628,-3,-4,0,0
319732,577,-8162,623,-3,-5,0,0
319737,557,-8164,619,-3,-5,-1,0
319742,532,-8166,608,-3,-5,0,0
319748,503,-8168,597,-3,-5,0,0
319752,473,-8169,584,-3,-5,0,0
319757,442,-8173,568,-3,-6,0,0
319762,418,-8176,558,-3,-6,0,0
319767,393,-8176,540,-3,-8,-1,0
319772,368,-8177,524,-3,-9,-1,0
319777,343,-8176,508,-3,-10,-1,0
319782,312,-8180,487,-3,-11,-1,0
319787,278,-8182,468,-3,-11,-1,0
319792,247,-8182,448,-3,-11,-1,0
319797,220,-8180,432,-3,-10,-1,0
319802,197,-8178,415,-3,-10,-1,0
319807,174,-8179,401,-3,-9,-1,0
319812,156,-8178,387,-3,-8,-1,0
319817,140,-8175,370,-3,-7,-1,0
319822,131,-8176,357,-3,-6,-1,0
319827,127,-8175,344,-3,-4,-1,0
319832,135,-8176,331,-3,-2,-1,0
319837,151,-8177,317,-3,-1,-1,0
319842,177,-8179,299,-3,0,-1,0
319847,212,-8176,283,-3,1,-1,0
319852,248,-8175,269,-3,1,-1,5
319857,285,-8175,259,-3,1,-1,5
319862,315,-8174,252,-3,1,-1,5
319867,340,-8169,250,-3,1,-1,5
319872,358,-8169,249,-3,2,-1,5
319877,372,-8168,252,-3,3,-1,5
319882,380,-8168,260,-3,3,-1,5
319887,382,-8170,271,-3,3,-1,5
319892,380,-8168,292,-3,3,-1,5
319897,377,-8170,318,-3,3,-1,5
319902,372,-8171,347,-3,3,-1,5
319907,366,-8170,373,-3,4,-1,5
319912,363,-8169,393,-3,6,-1,5
319917,355,-8169,416,-3,8,-1,5
319922,341,-8169,430,-3,10,-1,5
319927,326,-8167,430,-3,14,-1,5
319932,309,-8167,426,-3,17,-1,5
319937,295,-8168,416,-3,21,-1,5
319942,286,-8167,398,-3,25,-1,5
319947,279,-8165,370,-3,29,-1,5
319952,273,-8164,337,-3,33,-1,5
319957,270,-8166,305,-3,38,-1,5
319962,268,-8167,278,-3,43,0,5
319967,271,-8168,257,-3,47,0,5
319972,301,-8167,247,-3,52,0,5
319977,371,-8164,241,-3,51,0,5
319982,438,-8164,234,-3,39,-1,5
319987,486,-8165,220,-3,24,-1,5
319992,499,-8166,200,-2,10,-1,5
319997,521,-8166,183,-2,-2,-1,5
320002,534,-8168,171,-2,-8,-1,5
320008,556,-8169,188,-2,-11,-1,5
320013,573,-8169,221,-2,-9,-1,5
320018,577,-8170,271,-2,-6,-1,5
320023,565,-8171,331,-2,-2,-1,5
320028,527,-8175,386,-2,0,-1,5
320032,493,-8175,439,-2,0,-1,5
320037,464,-8176,471,-2,-1,-1,5
320042,451,-8178,502,-2,-2,-1,5
320047,465,-8178,528,-3,-3,0,5
320052,493,-8177,551,-3,-3,0,5
320057,534,-8176,566,-3,-2,0,5
320062,580,-8173,571,-3,-1,-1,5
320067,614,-8171,573,-3,-1,-1,5
320072,632,-8174,566,-3,-2,-1,5
320077,645,-8174,552,-3,-4,0,5
320082,644,-8177,537,-3,-5,0,5
320087,644,-8174,529,-3,-6,0,5
320092,643,-8171,521,-3,-6,0,5
320097,644,-8168,513,-3,-6,0,5
320102,643,-8168,510,-3,-6,0,5
320107,639,-8168,500,-3,-6,0,5
320112,627,-8169,491,-3,-7,0,5
320117,614,-8167,479,-3,-9,0,5
320122,601,-8168,460,-3,-11,0,5
320127,587,-8171,442,-3,-13,0,5
320132,581,-8170,425,-3,-15,0,5
320137,582,-8170,412,-3,-16,0,5
320142,586,-8168,392,-3,-15,1,5
320147,591,-8164,369,-3,-14,1,5
320152,592,-8162,341,-3,-13,0,5
320157,585,-8161,300,-3,-11,1,5
320161,569,-8162,259,-3,-10,1,5
320167,547,-8162,217,-3,-9,1,5
320172,513,-8161,175,-3,-8,1,5
320176,479,-8158,146,-3,-7,1,5
320181,443,-8159,123,-3,-6,1,5
320186,408,-8159,112,-3,-4,1,5
320191,384,-8164,108,-3,-2,1,5
320197,364,-8166,107,-3,-1,1,5
320201,344,-8168,108,-3,-1,1,5
320207,322,-8169,111,-3,-3,1,5
320212,289,-8172,116,-3,-5,0,5
320217,256,-8175,126,-3,-6,0,5
320222,230,-8175,141,-3,-8,0,5
320227,217,-8176,165,-3,-10,0,5
320232,216,-8176,191,-2,-12,0,5
320237,219,-8180,219,-2,-13,0,5
320242,216,-8180,241,-2,-14,0,5
320246,204,-8179,239,-2,-15,0,5
320251,179,-8177,225,-2,-17,0,5
320256,143,-8178,207,-2,-18,0,5
320261,102,-8179,192,-2,-19,0,5
320266,73,-8178,178,-2,-18,0,5
320271,54,-8179,174,-2,-16,0,5
320276,52,-8179,179,-2,-12,0,5
320281,62,-8179,187,-2,-7,0,5
320286,77,-8178,199,-2,-3,0,5
320291,98,-8178,208,-2,1,-1,5
320296,122,-8179,213,-2,3,-1,5
320301,142,-8178,216,-2,4,-1,5
320306,154,-8178,218,-2,5,0,5
320311,168,-8176,218,-2,6,0,5
320316,184,-8174,219,-2,7,0,5
320321,199,-8175,218,-2,9,0,5
320326,216,-8174,218,-2,11,0,5
320331,222,-8175,223,-2,14,0,5
320336,216,-8176,235,-2,18,0,5
320341,202,-8176,248,-2,21,-1,5
320346,175,-8179,261,-3,24,-1,5
320351,146,-8182,278,-2,26,-1,5
320356,123,-8184,291,-3,28,0,5
320361,104,-8185,305,-3,29,0,5
320366,89,-8184,320,-3,29,0,5
320371,85,-8184,332,-3,30,-1,5
320376,88,-8184,341,-3,32,-1,5
320381,91,-8184,340,-3,33,-1,5
320386,99,-8183,339,-3,34,-1,5
320391,110,-8182,334,-3,34,-1,5
320396,121,-8181,339,-3,33,-1,5
320401,138,-8180,343,-3,33,-1,5
320406,156,-8179,353,-3,33,-1,5
320411,170,-8179,373,-3,32,-1,5
320416,186,-8178,399,-3,33,-1,5
320421,201,-8180,424,-3,33,-1,5
320426,208,-8182,440,-3,34,-1,5
320431,215,-8181,457,-3,35,-1,5
320436,218,-8181,460,-3,35,-1,5
320441,223,-8180,459,-3,36,-1,5
320446,229,-8181,456,-3,37,-1,5
320451,238,-8181,455,-3,38,-1,5
320456,255,-8178,453,-3,38,-1,5
320461,278,-8176,451,-3,37,-1,5
320466,312,-8173,451,-3,36,-1,5
320471,356,-8171,446,-3,32,-1,5
320476,404,-8167,436,-3,27,-1,5
320481,447,-8167,424,-3,20,-1,5
320486,494,-8169,412,-3,13,-1,5
320491,552,-8169,406,-3,6,-1,5
320496,624,-8167,398,-3,-4,-1,5
320501,714,-8163,392,-3,-15,-1,5
320506,818,-8161,370,-2,-30,-1,5
320511,936,-8161,346,-2,-46,-1,5
320516,1066,-8161,315,-2,-65,-2,5
320521,1203,-8159,286,-2,-86,-2,5
320526,1351,-8157,264,-1,-110,-2,5
320531,1517,-8156,274,-1,-139,-2,5
320536,1716,-8156,322,0,-176,-3,5
320541,1943,-8152,414,0,-223,-3,5
320546,2217,-8145,549,1,-281,-4,5
320551,2532,-8139,739,2,-353,-4,5
320556,2890,-8129,984,3,-437,-5,5
320561,3267,-8124,1256,5,-535,-6,5
320566,3618,-8121,1626,7,-638,-7,5
320571,3884,-8121,2036,8,-741,-9,5
320576,4040,-8122,2531,10,-834,-10,5
320581,4140,-8131,3111,11,-919,-11,5
320586,4217,-8136,3762,13,-1000,-13,5
320591,4146,-8128,4429,14,-1075,-14,5
320596,4108,-8128,5072,16,-1137,-14,5
320601,4039,-8134,5743,17,-1180,-15,5
320606,3871,-8139,6394,18,-1211,-15,5
320611,3624,-8156,6936,18,-1228,-16,5
320616,3231,-8165,7497,18,-1227,-16,5
320621,2767,-8153,7926,17,-1207,-16,5
320626,2168,-8151,8133,17,-1156,-16,5
320631,1607,-8147,8039,17,-1080,-16,5
320636,1122,-8154,7671,17,-990,-15,5
320641,630,-8163,7065,16,-906,-14,5
320646,156,-8177,6349,15,-835,-12,5
320651,-322,-8195,5641,14,-767,-11,5
320656,-848,-8212,4929,12,-691,-10,5
320661,-1398,-8226,4306,10,-603,-9,5
320666,-1944,-8236,3757,8,-504,-7,5
320671,-2457,-8245,3247,6,-403,-5,5
320676,-2897,-8255,2803,5,-311,-4,5
320681,-3227,-8269,2372,4,-232,-2,5
320686,-3456,-8278,1973,3,-162,-1,5
320691,-3564,-8283,1592,2,-100,0,5
320696,-3586,-8281,1236,0,-42,1,5
320701,-3526,-8275,916,-1,10,2,5
320706,-3380,-8266,632,-2,56,2,5
320711,-3193,-8257,405,-3,96,2,5
320716,-2955,-8249,251,-4,131,3,5
320721,-2701,-8242,137,-4,160,3,5
320726,-2400,-8273,172,-5,181,3,5
320731,-2085,-8284,129,-5,198,3,5
320736,-1781,-8282,5,-5,205,3,5
320741,-1428,-8265,-30,-6,202,3,5
320746,-1116,-8248,-66,-6,196,3,5
320751,-816,-8236,-34,-6,192,3,5
320756,-518,-8225,23,-6,191,2,5
320761,-244,-8219,61,-6,191,2,5
320766,17,-8207,103,-5,188,2,5
320771,259,-8200,91,-5,182,2,5
320776,486,-8199,53,-5,172,2,5
320781,677,-8196,9,-5,160,2,5
320786,820,-8193,-32,-6,149,2,5
320791,926,-8189,-50,-6,141,1,5
320796,979,-8187,-69,-5,136,1,5
320801,992,-8185,-95,-5,133,1,5
320806,984,-8183,-129,-5,132,1,5
320811,949,-8181,-178,-5,131,1,5
320816,895,-8182,-223,-5,130,1,5
320821,831,-8182,-276,-5,132,1,5
320826,752,-8181,-329,-5,136,1,5
320831,657,-8181,-376,-6,143,1,5
320836,552,-8184,-424,-6,155,1,5
320841,429,-8184,-463,-6,171,2,5
320846,287,-8184,-500,-6,191,2,5
320851,133,-8185,-537,-7,216,2,5
320856,-32,-8187,-563,-7,244,2,5
320861,-208,-8191,-579,-8,277,3,5
320866,-385,-8196,-577,-8,313,3,5
320871,-569,-8198,-544,-9,355,4,5
320876,-757,-8196,-489,-10,403,5,5
320881,-949,-8195,-398,-11,456,5,5
320886,-1121,-8200,-286,-12,515,6,5
320891,-1302,-8195,-148,-13,579,7,5
320896,-1488,-8200,28,-14,646,8,5
320901,-1695,-8212,284,-15,719,8,5
320906,-1884,-8220,679,-17,798,8,5
320911,-2096,-8229,1151,-18,878,9,5
320916,-2325,-8240,1730,-20,956,10,5
320921,-2550,-8256,2292,-20,1028,11,5
320926,-2673,-8256,3018,-21,1096,12,5
320931,-2696,-8256,3819,-21,1157,13,5
320936,-2562,-8242,4576,-22,1201,12,5
320941,-2323,-8237,5253,-21,1211,12,5
320946,-1941,-8232,5765,-20,1185,11,5
320951,-1418,-8225,6206,-19,1134,12,5
320956,-755,-8213,6531,-18,1064,12,5
320961,-144,-8202,6782,-17,979,12,5
320966,393,-8186,6946,-15,888,10,5
320971,832,-8167,6971,-12,797,8,5
320976,1199,-8147,6793,-9,704,5,5
320981,1494,-8134,6369,-6,606,3,5
320986,1714,-8122,5703,-4,504,2,5
320991,1959,-8125,4921,-2,402,1,5
320996,2137,-8135,4153,-1,311,0,5
321001,2260,-8144,3472,-2,232,-2,5
321006,2364,-8150,2892,-2,167,-3,5
321011,2459,-8148,2437,-2,117,-3,5
321015,2536,-8148,2148,-1,79,-2,5
321021,2642,-8153,1956,0,49,-2,5
321026,2773,-8151,1769,0,27,-1,5
321031,2802,-8148,1614,0,9,0,5
321035,2761,-8144,1542,0,-8,0,5
321041,2728,-8142,1503,0,-21,0,5
321046,2642,-8138,1467,1,-31,-1,5
321051,2511,-8138,1466,1,-41,-2,5
321055,2332,-8137,1444,1,-49,-2,5
321061,2099,-8142,1395,1,-54,-2,5
321065,1814,-8152,1337,1,-57,-2,5
321070,1524,-8159,1255,1,-58,-1,5
321075,1285,-8162,1164,0,-57,-1,5
321081,1063,-8167,1089,0,-52,-1,5
321086,895,-8170,1027,0,-47,-1,5
321090,783,-8175,986,-1,-41,0,5
321095,702,-8176,943,-1,-36,0,5
321100,667,-8175,892,-1,-32,0,5
321106,636,-8176,828,-1,-28,0,5
321110,604,-8176,738,-1,-25,0,5
321115,581,-8177,637,-1,-24,0,5
321121,544,-8178,528,-1,-25,0,5
321125,502,-8181,424,-1,-27,0,5
321130,465,-8181,335,-1,-31,0,5
321136,419,-8179,266,-1,-33,0,5
321140,364,-8179,217,-1,-36,-1,5
321146,316,-8177,182,0,-37,-1,5
321150,267,-8176,159,0,-38,-1,5
321155,217,-8175,146,0,-39,-1,5
321160,174,-8173,141,0,-38,-1,5
321165,134,-8175,152,0,-38,-1,5
321170,96,-8177,170,0,-37,-1,5
321175,66,-8178,201,0,-35,-1,5
321180,40,-8176,241,0,-33,-1,5
321185,19,-8176,295,0,-32,-1,5
321190,10,-8178,353,0,-30,-1,5
321195,5,-8177,414,0,-30,-1,5
321200,4,-8178,476,-1,-30,-1,5
321205,3,-8181,523,-1,-30,-1,5
321211,-5,-8183,563,-1,-30,-1,5
321215,-10,-8186,600,-1,-29,-1,5
321220,-14,-8184,628,-1,-27,-1,5
321226,-17,-8185,655,-1,-25,-1,5
321231,-6,-8187,680,-1,-22,-1,5
321235,7,-8187,702,-2,-19,-1,5
321240,28,-8187,717,-2,-15,-1,5
321245,56,-8186,722,-2,-12,-1,5
321251,87,-8185,720,-2,-9,-1,5
321255,119,-8184,719,-2,-6,-1,5
321260,157,-8184,711,-2,-4,-1,5
321265,188,-8184,698,-3,-3,-1,5
321271,214,-8182,684,-3,-1,-1,5
321276,241,-8179,664,-3,1,-1,5
321281,277,-8178,639,-3,3,-1,5
321285,318,-8177,616,-3,4,-1,5
321290,361,-8177,594,-3,5,-1,5
321295,403,-8175,568,-3,5,-1,5
321300,444,-8173,553,-3,5,0,5
321305,483,-8171,541,-3,5,0,5
321310,511,-8173,536,-3,4,0,5
321315,533,-8173,521,-3,3,0,5
321320,550,-8172,508,-3,2,0,5
321325,557,-8174,490,-3,0,0,5
321330,554,-8175,470,-3,-1,0,5
321335,543,-8174,451,-3,-2,0,5
321340,518,-8174,435,-3,-3,0,5
321345,484,-8174,421,-3,-3,0,5
321350,449,-8175,405,-3,-3,0,5
321355,406,-8177,385,-3,-2,0,5
321360,366,-8178,373,-3,-2,0,5
321365,325,-8180,355,-3,-3,0,5
321370,287,-8181,330,-3,-3,0,5
321375,262,-8181,309,-3,-4,0,5
321380,242,-8180,282,-3,-4,0,5
321385,224,-8181,254,-3,-5,0,5
321390,213,-8183,229,-3,-5,0,5
321395,212,-8182,202,-3,-4,0,5
321400,212,-8180,179,-3,-4,0,5
321405,216,-8180,154,-3,-4,0,5
321410,223,-8177,127,-3,-3,0,5
321415,230,-8172,104,-3,-3,0,5
321420,239,-8169,86,-3,-3,0,5
321425,250,-8168,71,-3,-2,0,5
321430,264,-8168,59,-3,-2,0,5
321435,281,-8173,47,-3,-2,0,5
321440,296,-8170,44,-2,-3,0,5
321445,307,-8169,40,-2,-3,0,5
321450,320,-8171,36,-2,-4,0,5
321455,329,-8168,40,-2,-4,0,5
321460,332,-8167,47,-2,-4,0,5
321465,332,-8167,57,-2,-4,0,5
321470,329,-8166,75,-2,-4,0,5
321475,322,-8165,97,-2,-4,0,5
321480,316,-8164,114,-2,-4,0,5
321485,310,-8164,135,-2,-3,0,5
321490,301,-8167,150,-2,-3,0,5
321495,298,-8171,168,-2,-2,0,5
321500,293,-8170,179,-2,-1,0,5
321505,288,-8171,195,-2,0,0,5
321510,283,-8171,211,-2,1,0,5
321515,277,-8174,225,-2,2,0,5
321520,274,-8172,241,-2,2,0,5
321525,276,-8170,258,-2,2,0,5
321530,275,-8171,277,-2,2,0,5
321535,278,-8173,290,-2,2,0,5
321540,286,-8171,302,-2,3,0,5
321545,297,-8167,306,-2,3,0,5
321550,309,-8167,308,-2,2,0,5
321555,320,-8168,300,-2,2,0,5
321560,325,-8168,294,-2,1,0,5
321565,334,-8170,295,-2,1,0,5
321570,339,-8171,296,-2,0,0,5
321575,341,-8169,301,-2,0,0,5
321580,349,-8168,308,-2,-1,0,5
321585,348,-8169,318,-2,-2,0,5
321590,344,-8171,320,-2,-3,0,5
321595,336,-8172,317,-2,-3,0,5
321600,324,-8173,310,-2,-3,0,5
321605,312,-8176,303,-2,-3,0,5
321610,304,-8178,303,-2,-3,0,5
321615,292,-8179,306,-2,-3,0,5
321620,278,-8175,309,-2,-4,0,5
321625,263,-8173,317,-2,-4,0,5
321630,242,-8172,325,-2,-5,0,5
321635,219,-8172,338,-2,-5,0,5
321640,195,-8174,350,-2,-5,0,5
321645,172,-8176,360,-2,-6,0,5
321650,154,-8176,373,-2,-6,0,5
321655,142,-8176,387,-2,-6,0,5
321660,132,-8175,397,-3,-6,0,5
321665,125,-8175,402,-3,-5,0,5
321670,119,-8174,406,-3,-4,0,5
321675,118,-8175,410,-3,-3,0,5
321680,125,-8178,401,-3,-3,0,5
321685,139,-8179,391,-3,-3,0,5
321690,158,-8181,371,-3,-3,0,5
321695,183,-8180,347,-3,-4,0,5
321700,202,-8179,317,-3,-5,0,5
321705,218,-8181,292,-3,-6,0,5
321710,234,-8183,268,-3,-6,0,5
321715,241,-8184,252,-3,-7,0,5
321720,247,-8181,238,-3,-7,0,5
321725,251,-8180,220,-3,-8,0,5
321730,251,-8180,208,-2,-8,0,5
321735,246,-8183,196,-2,-8,0,5
321740,240,-8182,184,-2,-8,0,5
321745,232,-8184,177,-2,-7,0,5
321750,226,-8181,167,-2,-7,0,5
321755,216,-8178,162,-2,-6,0,5
321760,210,-8177,163,-2,-6,0,5
321765,201,-8174,162,-2,-6,0,5
321770,190,-8171,164,-2,-6,0,5
321775,177,-8174,168,-2,-5,0,5
321780,164,-8173,173,-2,-5,0,5
321785,159,-8178,182,-2,-5,0,5
321790,155,-8180,192,-2,-5,0,5
321795,158,-8180,194,-2,-5,0,5
321800,162,-8180,188,-2,-5,0,5
321805,172,-8180,175,-2,-6,0,5
321810,185,-8179,165,-2,-6,0,5
321815,198,-8178,157,-2,-7,0,5
321820,210,-8177,153,-2,-7,0,5
321825,224,-8175,147,-2,-7,0,5
321830,235,-8174,145,-2,-7,0,5
321835,246,-8173,141,-2,-8,0,5
321840,253,-8172,137,-2,-8,0,5
321845,258,-8174,136,-2,-8,0,5
321850,257,-8174,140,-2,-7,0,0
321855,257,-8176,141,-2,-6,0,0
321860,255,-8175,145,-2,-5,0,0
321865,253,-8173,148,-2,-3,0,0
321870,253,-8172,154,-2,-2,0,0
321875,253,-8171,160,-2,-1,0,0
321880,251,-8173,169,-2,-1,0,0
321885,253,-8173,175,-2,-1,0,0
321890,254,-8174,177,-2,-1,0,0
321895,258,-8176,177,-2,-1,0,0
321900,265,-8174,179,-2,-1,0,0
321905,273,-8172,179,-2,-1,0,0
321910,281,-8172,175,-2,-1,0,0
321914,286,-8171,173,-1,-1,0,0
321919,290,-8168,171,-1,-1,0,0
321925,292,-8169,172,-1,-1,0,0
321930,292,-8171,175,-1,-1,0,0
321935,291,-8171,178,-1,-1,0,0
321940,288,-8171,185,-1,-1,0,0
321944,280,-8172,200,-1,-1,0,0
321950,264,-8173,218,-1,-1,0,0
321954,239,-8178,238,-1,-1,0,0
321960,209,-8178,254,-2,-1,0,0
321965,182,-8178,284,-2,-1,0,0
321970,154,-8179,312,-2,-1,0,0
321975,125,-8179,341,-2,-1,0,0
321980,102,-8179,371,-2,0,0,0
321985,83,-8179,398,-2,0,0,0
321989,63,-8180,418,-2,0,0,0
321994,47,-8181,433,-2,0,0,0
321999,35,-8182,448,-2,0,0,0
322005,27,-8182,453,-2,-1,0,0
322009,31,-8182,460,-2,-1,0,0
322014,42,-8181,462,-2,-2,0,0
322019,55,-8179,455,-2,-3,0,0
322024,77,-8177,448,-2,-3,0,0
322029,101,-8178,440,-2,-2,-1,0
322035,125,-8177,430,-2,-2,-1,0
322039,151,-8176,419,-2,-2,-1,0
322044,179,-8176,408,-2,-1,0,0
322050,206,-8177,397,-2,-1,0,0
322054,233,-8177,392,-2,0,0,0
322059,256,-8178,383,-2,0,0,0
322064,278,-8180,373,-2,1,0,0
322069,300,-8183,364,-2,2,0,0
322074,317,-8183,356,-2,2,0,0
322079,327,-8184,348,-2,2,0,0
322084,333,-8187,339,-3,2,0,0
322089,334,-8187,334,-3,2,0,0
322094,329,-8184,332,-3,2,0,0
322099,318,-8182,330,-3,2,0,0
322104,300,-8183,324,-3,1,0,0
322109,279,-8181,321,-3,0,0,0
322114,249,-8178,319,-3,-1,0,0
322119,213,-8182,319,-3,-1,0,0
322124,174,-8182,328,-3,-1,0,0
322129,136,-8183,332,-3,-1,0,0
322134,101,-8184,339,-3,-1,0,0
322139,70,-8184,341,-3,0,0,0
322144,49,-8183,338,-3,0,0,0
322149,34,-8184,332,-3,0,0,0
322154,30,-8183,324,-3,0,-1,0
322159,34,-8180,318,-3,0,-1,0
322164,43,-8176,302,-3,0,-1,0
322169,63,-8176,288,-3,0,-1,0
322174,90,-8176,271,-3,1,-1,0
322179,120,-8176,254,-3,1,-1,0
322184,155,-8177,237,-3,1,-1,0
322189,186,-8178,222,-2,1,-1,0
322194,212,-8178,203,-2,1,-1,0
322199,235,-8176,189,-2,1,-1,0
322204,258,-8176,178,-2,1,-1,0
322209,279,-8174,169,-2,0,0,0
322214,293,-8177,164,-2,0,0,0
322219,302,-8177,161,-2,0,0,0
322224,311,-8177,165,-2,0,0,0
322229,315,-8177,175,-2,-1,0,0
322234,316,-8178,183,-2,-1,0,0
322239,315,-8176,192,-2,-1,0,0
322244,314,-8177,206,-2,-1,0,0
322249,313,-8176,218,-2,-1,0,0
322254,314,-8177,235,-2,-1,0,0
322259,313,-8174,253,-2,-1,0,0
322264,305,-8171,270,-2,-1,0,0
322269,297,-8172,281,-2,-2,0,0
322274,284,-8173,290,-2,-1,0,0
322279,278,-8171,303,-2,-1,0,0
322284,271,-8172,314,-2,-1,0,0
322289,265,-8173,328,-2,-1,0,0
322294,261,-8174,334,-2,-2,0,0
322299,257,-8172,337,-2,-2,0,0
322304,254,-8171,338,-2,-2,0,0
322309,257,-8172,331,-2,-2,0,0
322314,264,-8171,319,-2,-2,0,0
322319,271,-8172,306,-2,-2,0,0
322324,279,-8173,294,-2,-2,0,0
322329,286,-8172,277,-2,-3,0,0
322334,290,-8172,259,-2,-3,0,0
322339,295,-8174,239,-2,-4,0,0
322344,294,-8175,223,-2,-5,0,0
322349,290,-8175,211,-2,-6,0,0
322354,279,-8176,204,-2,-7,0,0
322359,267,-8176,193,-2,-7,0,0
322364,251,-8180,184,-2,-8,0,0
322369,237,-8179,177,-2,-8,0,0
322374,219,-8179,170,-2,-9,0,0
322379,198,-8179,162,-2,-9,0,0
322384,177,-8179,160,-2,-8,0,0
322389,151,-8178,159,-2,-8,0,0
322394,125,-8178,161,-2,-7,0,0
322399,102,-8179,168,-2,-6,0,0
322404,83,-8179,179,-2,-5,0,0
322409,67,-8180,185,-2,-4,0,0
322414,57,-8179,190,-2,-3,0,0
322419,54,-8180,193,-2,-3,0,0
322424,56,-8179,191,-2,-2,0,0
322429,61,-8178,194,-2,-2,0,0
322434,74,-8178,193,-2,-1,0,0
322439,89,-8175,187,-2,-1,0,0
322444,105,-8175,182,-2,-2,0,0
322449,125,-8177,176,-2,-2,0,0
322454,137,-8179,173,-2,-2,0,0
322459,145,-8176,173,-2,-3,-1,0
322464,149,-8174,171,-2,-3,-1,0
322470,149,-8175,170,-2,-3,-1,0
322474,145,-8176,176,-2,-3,-1,0
322479,138,-8175,182,-2,-3,-1,0
322484,130,-8177,190,-2,-3,-1,0
322489,124,-8177,200,-2,-2,-1,0
322494,119,-8180,202,-2,-1,-1,0
322499,117,-8180,203,-2,0,-1,0
322504,122,-8183,206,-2,0,-1,0
322509,126,-8183,203,-2,0,-1,0
322514,130,-8183,201,-2,0,-1,0
322519,134,-8184,201,-2,0,-1,0
322524,137,-8184,201,-2,0,-1,0
322529,142,-8183,206,-2,1,-1,0
322534,144,-8181,220,-2,1,-1,0
322539,144,-8178,228,-2,1,-1,0
322544,150,-8179,239,-2,1,-1,0
322549,157,-8180,248,-2,1,-1,0
322554,162,-8181,257,-2,1,-1,0
322559,170,-8183,259,-2,0,-1,0
322564,175,-8185,261,-2,0,-1,0
322569,176,-8185,263,-2,0,-1,0
322574,180,-8184,263,-2,-1,-1,0
322579,179,-8184,262,-2,-1,-1,0
322584,176,-8184,259,-2,-1,-1,0
322589,169,-8186,260,-2,-1,-1,0
322595,161,-8188,264,-2,-1,-1,0
322599,157,-8186,270,-2,-1,-1,0
322604,153,-8187,272,-2,-1,-1,0
322609,152,-8185,279,-2,-1,-1,0
322614,156,-8183,282,-2,0,-1,0
322619,165,-8183,285,-2,0,-1,0
322624,178,-8184,288,-2,1,-1,0
322629,195,-8181,284,-2,1,-1,0
322634,213,-8177,280,-2,1,-1,0
322639,234,-8176,276,-2,1,-1,0
322644,256,-8173,275,-2,0,-1,0
322649,276,-8173,273,-2,-1,-1,0
322654,290,-8172,272,-2,-1,-1,0
322659,300,-8168,266,-2,-2,-1,0
322664,303,-8169,259,-2,-3,-1,0
322669,300,-8171,256,-2,-3,-1,0
322674,288,-8175,253,-2,-3,-1,0
322679,276,-8178,249,-2,-3,-1,0
322684,261,-8181,252,-2,-2,-1,0
322689,243,-8182,257,-2,-2,-1,0
322694,227,-8182,260,-2,-2,-1,0
322699,216,-8179,264,-2,-2,-1,0
322704,210,-8178,266,-2,-1,-1,0
322709,206,-8180,269,-2,-1,-1,0
322714,205,-8179,272,-2,-1,-1,0
322719,205,-8178,273,-2,-1,-1,0
322724,206,-8179,274,-2,-1,-1,0
322729,214,-8178,275,-2,-1,-1,0
322734,223,-8176,277,-2,-1,-1,0
322739,236,-8176,277,-2,-1,-1,0
322743,249,-8172,280,-2,-1,-1,0
322749,257,-8169,280,-2,0,-1,0
322754,260,-8170,273,-2,0,-1,0
322758,261,-8170,268,-2,0,-1,0
322763,263,-8170,254,-2,1,0,0
322768,265,-8171,245,-2,1,0,0
322773,268,-8171,241,-2,1,0,0
322778,271,-8172,232,-2,1,0,0
322783,275,-8172,224,-2,1,0,0
322788,281,-8173,216,-2,2,0,0
322793,282,-8173,203,-2,3,0,0
322798,283,-8172,189,-2,3,0,0
322803,283,-8170,188,-2,3,0,0
322808,279,-8171,190,-2,3,0,0
322814,274,-8175,193,-2,2,0,0
322819,269,-8174,199,-2,2,0,0
322824,263,-8174,208,-2,3,0,0
322829,260,-8175,211,-2,3,0,0
322834,255,-8174,215,-2,3,0,0
322839,251,-8176,220,-2,3,0,0
322843,250,-8177,224,-2,3,0,0
322849,246,-8178,232,-2,2,0,0
322854,240,-8180,240,-2,2,0,0
322858,234,-8182,252,-2,1,0,0
322863,225,-8181,270,-2,1,0,0
322868,212,-8181,284,-2,1,0,0
322873,197,-8180,305,-2,1,0,0
322878,180,-8181,324,-2,1,0,0
322883,165,-8182,348,-2,1,0,0
322889,152,-8183,369,-2,1,0,0
322893,141,-8183,390,-2,0,0,0
322898,134,-8183,415,-2,0,0,0
322903,130,-8184,443,-2,-1,0,0
322908,133,-8184,470,-2,-1,0,0
322913,136,-8183,498,-2,-1,0,0
322918,142,-8178,521,-2,-1,-1,0
322923,148,-8178,538,-2,-1,-1,0
322928,152,-8178,553,-3,-1,-1,0
322933,159,-8176,562,-3,-1,-1,0
322938,173,-8174,564,-3,-1,-1,0
322943,190,-8170,560,-3,-1,0,0
322948,214,-8167,557,-3,-1,0,0
322953,240,-8169,550,-3,-1,0,0
322958,266,-8169,542,-3,-2,0,0
322963,288,-8167,536,-3,-2,0,0
322968,306,-8168,529,-3,-2,0,0
322973,313,-8170,525,-3,-3,0,0
322978,317,-8170,521,-3,-4,0,0
322983,319,-8173,519,-3,-4,0,0
322988,324,-8173,514,-3,-5,0,0
322993,325,-8174,504,-3,-5,0,0
322998,322,-8175,491,-3,-6,0,0
323003,323,-8177,477,-3,-6,0,0
323008,323,-8178,466,-3,-7,0,0
323013,320,-8177,451,-4,-7,0,0
323018,313,-8176,434,-4,-8,0,0
323023,299,-8177,411,-4,-8,0,0
323028,281,-8176,385,-4,-8,0,0
323033,263,-8180,366,-4,-8,0,0
323038,241,-8181,348,-4,-8,0,0
323043,217,-8178,326,-4,-7,0,0
323048,195,-8181,306,-4,-6,0,0
323053,174,-8183,279,-4,-6,0,0
323058,157,-8183,253,-4,-5,0,0
323063,139,-8183,226,-4,-4,0,0
323068,129,-8184,200,-3,-4,0,0
323073,121,-8185,173,-3,-3,0,0
323078,112,-8185,152,-3,-3,0,0
323083,108,-8184,126,-3,-2,0,0
323088,112,-8183,102,-3,-2,0,0
323093,115,-8179,78,-3,-2,0,0
323098,119,-8177,56,-3,-2,0,0
323103,126,-8178,37,-3,-3,0,0
323108,132,-8176,21,-3,-3,0,0
323113,144,-8174,8,-3,-3,0,0
323118,154,-8172,-5,-3,-3,0,0
323123,163,-8171,-18,-3,-3,0,0
323128,170,-8173,-36,-3,-3,0,0
323133,177,-8172,-51,-3,-3,0,0
323138,177,-8172,-65,-2,-3,-1,0
323144,175,-8173,-73,-2,-2,-1,0
323150,174,-8176,-78,-2,-2,0,0
323155,168,-8175,-77,-2,-2,0,0
323159,164,-8173,-66,-2,-2,0,0
323164,159,-8173,-53,-2,-1,0,0
323169,157,-8173,-35,-2,0,0,0
323174,160,-8175,-16,-2,1,0,0
323179,166,-8174,4,-2,1,0,0
323184,170,-8172,24,-2,1,0,0
323189,172,-8172,43,-2,1,0,0
323193,171,-8173,63,-2,2,0,0
323198,176,-8171,85,-2,2,0,0
323203,181,-8173,105,-2,2,-1,0
323208,184,-8174,127,-2,3,0,0
323213,191,-8175,149,-2,2,0,0
323218,195,-8177,168,-2,2,0,0
323223,204,-8177,187,-2,2,0,0
323228,214,-8177,199,-2,2,0,0
323233,219,-8177,208,-2,1,0,0
323238,225,-8177,217,-2,1,0,0
323243,229,-8176,222,-2,1,0,0
323248,235,-8176,227,-2,1,0,0
323253,243,-8173,235,-2,1,0,0
323258,249,-8173,244,-2,1,0,0
323263,257,-8172,249,-2,1,0,0
323268,259,-8172,252,-2,1,0,0
323273,260,-8172,252,-2,1,0,0
323278,262,-8174,253,-2,1,0,0
323283,264,-8177,254,-2,1,0,0
323288,263,-8176,257,-2,0,0,0
323293,258,-8178,262,-2,0,0,0
323298,249,-8177,272,-2,-1,0,0
323303,235,-8177,282,-2,-1,0,0
323308,220,-8176,295,-2,0,0,0
323313,207,-8174,309,-2,0,0,0
323318,193,-8174,325,-2,0,0,0
323323,182,-8175,334,-2,0,0,0
323328,172,-8177,338,-2,0,0,0
323333,172,-8178,338,-2,0,0,0
323338,174,-8182,333,-2,0,0,0
323343,182,-8184,328,-2,0,0,0
323348,194,-8186,330,-3,0,0,0
323353,207,-8184,328,-2,0,0,0
323358,218,-8183,323,-2,-1,0,0
323363,229,-8181,314,-2,-1,0,0
323368,238,-8184,302,-2,-1,0,0
323373,240,-8181,285,-2,-2,0,0
323378,243,-8182,268,-3,-2,0,0
323383,242,-8182,251,-3,-1,0,0
323388,242,-8181,233,-3,-1,0,0
323393,239,-8182,223,-3,-1,0,0
323398,237,-8182,214,-3,-1,0,0
323403,230,-8181,206,-3,-2,0,0
323408,218,-8180,204,-3,-2,0,0
323413,205,-8180,200,-2,-2,0,0
323418,190,-8181,199,-3,-2,0,0
323423,173,-8183,201,-2,-2,0,0
323428,161,-8183,198,-2,-1,0,0
323433,153,-8182,199,-2,-1,0,0
323438,146,-8181,201,-3,-1,0,0
323443,148,-8181,208,-2,-1,0,0
323448,156,-8182,210,-2,-2,0,0
323453,164,-8180,209,-2,-2,0,0
323458,175,-8179,205,-2,-2,-1,0
323463,188,-8178,203,-2,-2,0,0
323468,199,-8181,199,-2,-2,0,0
323473,212,-8184,193,-2,-2,0,0
323478,227,-8184,187,-2,-2,0,0
323483,240,-8185,178,-2,-2,0,0
323488,251,-8182,170,-2,-2,0,0
323493,259,-8181,163,-2,-2,0,0
323498,261,-8180,156,-2,-2,0,0
323503,262,-8178,149,-2,-2,0,0
323508,258,-8179,143,-2,-3,0,0
323513,251,-8180,135,-2,-3,0,0
323518,241,-8181,130,-2,-3,0,0
323523,233,-8182,124,-2,-3,0,0
323528,224,-8181,123,-2,-2,0,0
323533,220,-8180,124,-2,-2,0,0
323538,218,-8181,127,-2,-2,0,0
323543,223,-8181,128,-2,-2,0,0
323548,228,-8182,124,-2,-2,0,0
323553,231,-8181,124,-2,-2,0,0
323558,235,-8180,121,-2,-2,0,0
323563,238,-8181,118,-2,-2,0,0
323567,244,-8185,111,-2,-2,0,0
323573,249,-8185,100,-2,-2,0,0
323578,254,-8185,89,-2,-2,0,0
323582,258,-8187,73,-2,-3,0,0
323588,262,-8185,61,-2,-3,0,0
323592,261,-8186,53,-2,-3,0,0
323597,256,-8185,43,-2,-2,0,0
323603,251,-8183,42,-2,-2,0,0
323608,248,-8183,41,-2,-2,0,0
323612,245,-8182,45,-2,-2,0,0
323617,241,-8180,45,-2,-1,0,0
323623,241,-8180,49,-1,-1,0,0
323628,243,-8182,55,-1,-1,0,0
323633,245,-8182,64,-1,-1,0,0
323638,242,-8180,70,-1,-1,0,0
323643,241,-8179,78,-1,-2,0,0
323647,238,-8180,92,-1,-2,0,0
323653,233,-8180,107,-1,-2,0,0
323658,222,-8182,129,-1,-2,0,0
323663,207,-8183,156,-1,-2,0,0
323667,188,-8182,184,-1,-2,0,0
323672,170,-8182,211,-1,-2,0,0
323678,149,-8182,239,-1,-3,0,0
323683,131,-8181,264,-1,-3,0,0
323687,119,-8182,285,-1,-3,0,0
323693,109,-8182,302,-2,-3,0,0
323697,106,-8181,317,-2,-3,0,0
323702,106,-8181,335,-2,-3,0,0
323708,106,-8181,349,-2,-3,0,0
323713,110,-8180,359,-2,-3,0,0
323718,114,-8182,366,-2,-3,0,0
323723,116,-8182,373,-2,-3,0,0
323728,121,-8180,375,-2,-3,0,0
323733,129,-8181,371,-2,-3,0,0
323737,136,-8181,372,-2,-3,0,0
323742,143,-8178,367,-2,-2,0,0
323747,154,-8176,358,-2,-2,0,0
323753,167,-8175,350,-2,-2,0,0
323757,180,-8179,340,-2,-2,0,0
323762,188,-8181,332,-2,-2,0,0
323768,193,-8184,322,-2,-2,0,0
323773,194,-8185,316,-2,-2,0,0
323777,192,-8185,315,-2,-2,0,0
323782,183,-8187,314,-2,-2,0,0
323787,171,-8187,312,-2,-2,0,0
323792,157,-8184,310,-2,-2,0,0
323797,143,-8184,309,-2,-2,-1,0
323802,128,-8182,307,-2,-2,-1,0
323808,114,-8182,297,-2,-1,-1,0
323813,102,-8181,288,-2,-1,-1,0
323818,96,-8180,281,-2,-1,-1,0
323823,93,-8178,276,-2,-1,-1,0
323827,90,-8179,272,-2,-1,-1,0
323833,89,-8181,267,-2,-1,-1,0
323837,89,-8182,261,-2,-1,-1,0
323842,88,-8180,260,-2,-1,-1,0
323848,84,-8178,256,-2,-1,-1,0
323853,80,-8176,250,-2,-1,-1,0
323857,82,-8175,239,-2,-1,-1,0
323862,83,-8176,229,-2,-1,-1,0
323868,89,-8174,217,-2,0,-1,0
323872,96,-8174,207,-2,0,-1,0
323877,107,-8175,194,-2,0,-1,0
323882,119,-8180,183,-2,0,-1,0
323887,134,-8182,176,-2,1,-1,0
323892,147,-8184,165,-2,1,-1,0
323897,157,-8183,160,-2,1,-1,0
323902,169,-8183,161,-2,1,-1,0
323907,180,-8180,162,-2,1,-1,0
323912,190,-8179,162,-2,1,-1,0
323917,197,-8178,160,-2,1,-1,0
323922,207,-8179,159,-2,1,-1,0
323927,214,-8181,158,-2,2,-1,0
323933,220,-8181,160,-2,2,-1,0
323937,220,-8181,163,-2,2,-1,0
323942,218,-8182,172,-2,2,-1,0
323947,213,-8182,177,-2,3,-1,0
323952,210,-8181,187,-2,3,-1,0
323957,205,-8180,195,-2,4,-1,0
323962,204,-8181,196,-2,4,-1,0
323967,207,-8179,199,-2,4,-1,0
323972,214,-8180,204,-2,4,-1,0
323977,225,-8177,203,-2,4,-1,0
323982,238,-8176,201,-2,4,-1,0
323987,253,-8179,199,-2,4,-1,0
323992,268,-8177,201,-2,4,-1,0
323997,283,-8175,201,-2,3,-1,0
324002,295,-8177,207,-2,2,-1,0
324007,306,-8175,213,-2,1,-1,0
324012,311,-8175,219,-2,1,-1,0
324017,315,-8173,225,-2,0,-1,0
324022,325,-8174,228,-2,0,0,0
324027,334,-8174,233,-2,-1,0,0
324032,342,-8174,240,-2,-1,0,0
324037,348,-8172,247,-2,-1,0,0
324042,353,-8173,257,-2,-2,0,0
324047,355,-8174,265,-2,-2,0,0
324052,354,-8175,268,-2,-3,0,0
324057,348,-8172,271,-2,-3,0,0
324062,336,-8175,270,-2,-3,0,0
324067,320,-8178,270,-2,-4,0,0
324072,301,-8180,271,-2,-4,0,0
324077,279,-8180,268,-2,-4,0,0
324082,256,-8179,267,-2,-4,0,0
324087,238,-8180,256,-2,-4,0,0
324092,225,-8181,246,-2,-4,0,0
324097,217,-8179,236,-2,-4,0,0
324102,213,-8178,219,-2,-4,0,0
324107,206,-8179,205,-2,-5,0,0
324112,198,-8176,188,-2,-5,0,0
324117,192,-8174,173,-2,-6,0,0
324122,193,-8172,163,-2,-6,0,0
324127,192,-8173,154,-2,-6,0,0
324132,194,-8173,149,-2,-6,0,0
324137,190,-8172,143,-2,-6,0,0
324142,186,-8173,139,-2,-6,0,0
324147,182,-8176,132,-2,-6,0,0
324152,179,-8177,124,-2,-5,0,0
324157,178,-8174,115,-2,-5,0,0
324162,179,-8173,105,-2,-5,0,0
324167,187,-8173,99,-2,-5,0,0
324172,193,-8173,89,-2,-5,0,0
324177,191,-8174,84,-2,-5,0,0
324182,187,-8173,85,-2,-4,0,0
324187,178,-8175,78,-2,-4,0,0
324192,164,-8177,77,-2,-3,0,0
324197,148,-8178,79,-2,-3,0,0
324202,131,-8175,80,-2,-2,0,0
324207,116,-8177,85,-2,-2,0,0
324212,107,-8179,91,-2,-1,0,0
324217,103,-8181,95,-2,-1,0,0
324222,105,-8181,101,-2,-1,0,0
324227,114,-8182,104,-2,-1,0,0
324232,127,-8181,103,-2,-1,0,0
324237,139,-8178,109,-2,-1,0,0
324242,153,-8175,117,-2,-1,-1,0
324247,166,-8175,126,-1,-1,-1,0
324252,178,-8177,136,-1,-1,-1,0
324257,190,-8174,146,-1,-1,-1,0
324262,198,-8176,153,-1,-1,-1,0
324267,208,-8176,159,-1,-1,-1,0
324272,215,-8177,162,-1,-1,0,0
324277,221,-8177,164,-1,-1,-1,0
324282,228,-8174,164,-1,-1,0,0
324287,233,-8175,167,-1,0,0,0
324292,234,-8175,174,-1,0,-1,0
324297,238,-8176,182,-1,0,0,0
324302,235,-8176,189,-1,0,0,0
324307,235,-8177,193,-1,1,0,0
324312,236,-8178,198,-1,1,0,0
324317,232,-8177,201,-1,1,0,0
324322,230,-8175,205,-1,1,0,0
324327,232,-8177,208,-1,1,0,0
324332,235,-8179,208,-1,0,0,0
324337,236,-8180,210,-1,0,0,0
324342,239,-8180,217,-1,0,0,0
324347,242,-8184,223,-1,0,0,0
324352,243,-8184,228,-1,0,0,0
324357,249,-8184,233,-1,0,0,0
324362,254,-8185,235,-1,1,0,0
324367,261,-8186,236,-1,1,0,0
324372,268,-8184,235,-1,2,0,0
324377,277,-8183,235,-1,2,0,0
324382,288,-8181,231,-1,3,0,0
324387,299,-8181,228,-1,3,0,0
324392,307,-8181,221,-1,4,0,0
324397,311,-8182,218,-1,5,0,0
324402,311,-8184,221,-1,5,0,0
324407,302,-8180,225,-1,6,0,0
324412,293,-8177,226,-1,7,0,0
324417,286,-8174,225,-1,8,0,0
324422,269,-8173,221,-1,9,0,0
324427,251,-8174,213,-1,10,0,0
324432,238,-8176,212,-1,11,0,0
324437,230,-8177,210,-1,11,0,0
324442,222,-8179,208,-1,11,0,0
324447,222,-8180,201,-1,11,0,5
324452,226,-8180,197,-1,10,0,5
324457,229,-8183,190,-1,9,0,5
324462,233,-8181,185,-1,8,0,5
324467,233,-8180,188,-1,6,0,5
324472,233,-8180,196,-1,5,0,5
324476,224,-8183,214,-1,3,0,5
324482,215,-8185,241,-1,2,0,5
324487,195,-8185,266,-1,1,0,5
324491,173,-8187,300,-1,0,0,5
324497,152,-8187,334,-1,-1,0,5
324502,129,-8188,375,-2,-1,0,5
324506,101,-8188,410,-2,-2,0,5
324511,76,-8188,447,-2,-2,0,5
324517,51,-8187,492,-2,-1,0,5
324522,35,-8187,528,-2,-1,0,5
324527,24,-8187,561,-2,0,0,5
324532,19,-8186,589,-2,0,0,5
324537,19,-8183,612,-2,1,0,5
324542,31,-8184,629,-2,1,0,5
324547,52,-8187,636,-3,1,0,5
324552,81,-8188,632,-3,2,0,5
324557,119,-8185,625,-3,2,0,5
324562,161,-8183,611,-3,2,0,5
324567,205,-8181,594,-3,2,0,5
324572,246,-8179,578,-3,1,0,5
324577,283,-8181,562,-3,0,0,5
324582,319,-8180,549,-3,-1,0,5
324586,344,-8181,536,-3,-2,0,5
324591,357,-8182,524,-3,-3,0,5
324596,371,-8186,515,-3,-4,0,5
324602,377,-8184,505,-3,-5,0,5
324607,375,-8183,492,-4,-5,0,5
324611,367,-8180,477,-4,-6,0,5
324616,354,-8180,463,-4,-7,0,5
324622,335,-8180,449,-4,-7,0,5
324626,314,-8177,434,-4,-8,0,5
324631,288,-8173,414,-4,-8,0,5
324637,262,-8172,389,-4,-9,0,5
324641,234,-8174,358,-4,-10,0,5
324646,204,-8175,325,-4,-10,0,5
324651,170,-8174,289,-4,-9,0,5
324656,141,-8175,259,-4,-8,0,5
324661,115,-8177,229,-4,-8,0,5
324666,89,-8180,203,-4,-7,0,5
324671,66,-8182,176,-3,-6,0,5
324676,50,-8182,151,-3,-5,0,5
324681,35,-8182,126,-3,-4,0,5
324686,27,-8181,94,-3,-3,0,5
324691,26,-8179,64,-3,-2,0,5
324696,31,-8180,35,-3,-1,0,5
324701,43,-8179,12,-3,0,0,5
324706,55,-8180,-8,-3,0,0,5
324712,68,-8181,-32,-3,0,0,5
324716,80,-8183,-49,-3,0,0,5
324721,90,-8182,-63,-3,1,0,5
324726,97,-8180,-73,-3,1,0,5
324731,102,-8179,-78,-3,2,0,5
324736,101,-8177,-83,-3,3,0,5
324741,97,-8178,-84,-2,4,0,5
324746,90,-8181,-83,-2,5,0,5
324751,84,-8185,-83,-2,6,0,5
324756,79,-8184,-76,-2,7,0,5
324761,75,-8183,-66,-2,8,0,5
324766,76,-8181,-56,-2,9,0,5
324771,83,-8180,-45,-2,10,0,5
324776,93,-8178,-32,-2,10,0,5
324781,107,-8175,-18,-2,10,0,5
324786,124,-8172,-11,-2,10,0,5
324791,143,-8169,-6,-2,10,0,5
324796,165,-8169,-1,-2,10,0,5
324801,187,-8170,8,-2,9,0,5
324806,205,-8172,20,-2,9,0,5
324811,222,-8175,33,-2,8,0,5
324816,238,-8175,50,-2,8,0,5
324821,247,-8176,66,-2,7,0,5
324826,252,-8178,81,-2,7,0,5
324831,252,-8179,100,-2,6,0,5
324836,248,-8178,112,-2,5,0,5
324841,243,-8178,129,-2,5,0,5
324846,240,-8181,144,-2,4,0,5
324851,238,-8177,159,-2,4,0,5
324856,235,-8175,170,-2,3,0,5
324861,233,-8178,180,-2,3,0,5
324866,232,-8175,188,-2,2,0,5
324871,230,-8175,203,-2,2,0,5
324876,226,-8177,214,-2,1,0,5
324881,217,-8178,227,-2,0,0,5
324886,204,-8176,239,-2,0,0,5
324891,192,-8177,254,-2,-1,0,5
324896,178,-8175,268,-2,-2,0,5
324901,164,-8176,285,-2,-2,0,5
324906,151,-8178,294,-2,-2,0,5
324911,141,-8179,301,-2,-2,0,5
324916,129,-8179,305,-2,-1,0,5
324921,120,-8180,311,-2,0,0,5
324926,113,-8179,316,-2,1,0,5
324931,107,-8178,318,-2,1,0,5
324936,107,-8178,321,-2,2,0,5
324941,109,-8175,325,-2,2,0,5
324946,115,-8173,320,-2,2,0,5
324951,122,-8175,311,-2,3,0,5
324956,136,-8172,298,-2,3,0,5
324961,151,-8173,289,-2,3,0,5
324966,166,-8172,277,-2,2,0,5
324971,177,-8173,259,-2,2,0,5
324976,183,-8174,245,-2,1,0,5
324981,187,-8177,235,-2,0,0,5
324986,187,-8178,224,-2,-1,0,5
324991,183,-8176,218,-2,-1,0,5
324996,174,-8175,212,-2,-1,0,5
325001,162,-8174,215,-2,-1,0,5
325006,153,-8174,218,-2,-1,0,5
325011,144,-8175,216,-2,0,0,5
325016,134,-8176,213,-2,0,0,5
325021,125,-8179,214,-2,0,0,5
325026,118,-8181,219,-2,1,0,5
325031,114,-8184,222,-2,1,0,5
325036,110,-8184,221,-2,2,0,5
325041,106,-8184,226,-2,4,0,5
325046,100,-8184,233,-2,5,0,5
325051,94,-8183,239,-2,6,0,5
325056,84,-8180,243,-2,8,0,5
325061,33,-8184,252,-3,11,0,5
325066,-53,-8189,293,-3,20,0,5
325071,-105,-8186,309,-3,31,0,5
325076,-131,-8186,347,-3,40,0,5
325081,-136,-8185,352,-3,44,0,5
325086,-117,-8183,331,-3,45,1,5
325091,-91,-8183,300,-3,45,1,5
325096,-51,-8185,239,-3,46,0,5
325101,-8,-8187,193,-3,46,0,5
325106,37,-8190,159,-3,46,0,5
325111,76,-8193,147,-3,44,0,5
325116,109,-8189,169,-3,41,0,5
325121,149,-8188,197,-3,38,0,5
325126,178,-8186,231,-3,34,0,5
325131,199,-8185,250,-3,30,0,5
325136,209,-8186,255,-3,27,0,5
325141,203,-8184,245,-3,24,0,5
325146,196,-8183,214,-3,22,0,5
325151,184,-8183,179,-3,19,0,5
325156,177,-8183,145,-3,17,0,5
325161,180,-8182,117,-3,14,0,5
325166,194,-8182,100,-3,11,0,5
325171,221,-8181,85,-2,6,0,5
325176,260,-8181,70,-2,-1,0,5
325181,308,-8180,49,-2,-10,0,5
325186,391,-8177,26,-2,-22,-1,5
325191,500,-8175,-11,-1,-40,-1,5
325196,636,-8172,-52,-1,-64,-1,5
325201,801,-8169,-95,0,-93,-1,5
325206,986,-8168,-137,0,-129,-2,5
325211,1167,-8168,-121,1,-168,-2,5
325216,1334,-8164,-54,1,-207,-3,5
325221,1514,-8155,76,1,-247,-3,5
325226,1731,-8152,297,1,-291,-4,5
325231,1965,-8137,537,2,-342,-4,5
325236,2257,-8127,833,3,-400,-5,5
325241,2612,-8126,1180,4,-476,-6,5
325246,2962,-8122,1500,5,-562,-6,5
325251,3279,-8130,1933,7,-654,-7,5
325256,3593,-8121,2301,8,-746,-8,5
325261,3916,-8116,2734,10,-838,-9,5
325266,4228,-8120,3240,11,-933,-11,5
325271,4507,-8108,3755,13,-1032,-12,5
325276,4630,-8097,4379,15,-1129,-13,5
325281,4527,-8113,5128,17,-1210,-15,5
325286,4663,-8128,5885,19,-1297,-17,5
325291,4413,-8137,6680,21,-1348,-16,5
325296,3913,-8139,7400,21,-1364,-18,5
325301,3557,-8171,7867,21,-1362,-19,5
325306,3060,-8179,8487,21,-1329,-18,5
325311,2442,-8197,8815,20,-1263,-18,5
325316,1742,-8201,8918,19,-1166,-17,5
325321,1064,-8196,8740,18,-1046,-17,5
325325,312,-8202,8148,17,-912,-16,5
325331,-404,-8217,7349,16,-785,-14,5
325336,-961,-8219,6345,14,-673,-14,5
325341,-1427,-8228,5471,12,-569,-13,5
325346,-1969,-8238,4707,9,-476,-11,5
325351,-2498,-8208,4024,7,-398,-10,5
325355,-2925,-8165,3577,6,-328,-8,5
325360,-3083,-8174,2955,5,-264,-5,5
325365,-3042,-8196,2363,3,-201,-4,5
325370,-2808,-8235,1776,2,-142,-3,5
325375,-2608,-8245,1264,0,-87,-2,5
325380,-2412,-8241,870,0,-43,0,5
325385,-2134,-8238,525,-1,-6,0,5
325390,-1863,-8229,305,-2,25,1,5
325395,-1554,-8223,112,-2,48,1,5
325400,-1226,-8215,-27,-3,66,1,5
325405,-918,-8207,-105,-3,76,2,5
325410,-605,-8202,-178,-3,79,1,5
325415,-312,-8197,-224,-3,76,1,5
325420,-41,-8191,-242,-2,68,1,5
325425,207,-8186,-244,-2,59,1,5
325430,368,-8182,-209,-2,48,1,5
325435,516,-8179,-182,-2,39,1,5
325440,610,-8179,-164,-2,34,0,5
325445,647,-8177,-129,-2,30,0,5
325450,699,-8171,-94,-2,27,0,5
325455,674,-8174,-105,-2,27,0,5
325460,616,-8181,-109,-2,26,0,5
325465,603,-8185,-102,-3,26,0,5
325470,543,-8185,-95,-3,28,1,5
325475,508,-8185,-80,-3,32,0,5
325480,515,-8185,-89,-3,38,0,5
325485,501,-8183,-109,-3,44,0,5
325490,526,-8183,-145,-3,48,0,5
325495,568,-8184,-194,-4,51,0,5
325500,598,-8182,-242,-4,52,0,5
325505,647,-8182,-281,-4,51,0,5
325510,690,-8179,-303,-4,49,0,5
325515,729,-8175,-317,-4,48,0,5
325520,777,-8170,-336,-4,47,0,5
325525,824,-8167,-362,-4,46,0,5
325530,873,-8166,-398,-4,44,0,5
325535,918,-8166,-436,-4,42,0,5
325540,955,-8169,-473,-4,39,0,5
325545,982,-8169,-506,-4,38,0,5
325550,1002,-8165,-526,-4,39,0,5
325555,1013,-8164,-538,-4,41,0,5
325560,1007,-8167,-543,-4,45,0,5
325565,987,-8166,-541,-4,49,0,5
325570,962,-8168,-543,-4,55,1,5
325575,912,-8170,-542,-4,61,1,5
325580,849,-8167,-538,-4,69,1,5
325585,781,-8168,-531,-4,78,1,5
325590,694,-8170,-519,-5,88,1,5
325595,604,-8172,-508,-5,100,1,5
325600,509,-8174,-506,-5,115,1,5
325605,400,-8178,-513,-5,132,2,5
325610,291,-8180,-534,-6,152,2,5
325615,176,-8179,-568,-6,175,2,5
325620,53,-8179,-604,-7,201,2,5
325625,-72,-8180,-636,-7,230,3,5
325630,-201,-8182,-665,-8,263,3,5
325635,-342,-8183,-686,-8,300,4,5
325640,-480,-8185,-691,-9,341,4,5
325645,-629,-8188,-675,-10,387,5,5
325650,-791,-8188,-641,-10,438,5,5
325655,-947,-8195,-568,-11,494,6,5
325660,-1104,-8192,-459,-12,554,7,5
325665,-1296,-8196,-313,-13,618,8,5
325670,-1448,-8203,-45,-14,690,8,5
325675,-1572,-8217,332,-16,767,9,5
325680,-1771,-8216,821,-18,845,10,5
325685,-1975,-8224,1400,-19,927,10,5
325690,-2183,-8226,2097,-20,1009,11,5
325695,-2330,-8228,2811,-21,1087,13,5
325700,-2433,-8253,3632,-23,1163,14,5
325705,-2439,-8268,4457,-24,1235,15,5
325710,-2483,-8277,5274,-25,1300,15,5
325715,-2544,-8284,6074,-26,1358,14,5
325720,-2469,-8284,6879,-26,1392,13,5
325725,-2288,-8272,7418,-24,1378,12,5
325730,-1969,-8272,7647,-21,1301,11,5
325735,-1396,-8272,7745,-18,1179,9,5
325740,-663,-8238,7750,-16,1039,7,5
325745,153,-8188,7582,-13,886,6,5
325750,899,-8150,7207,-9,720,5,5
325755,1569,-8126,6671,-5,549,3,5
325760,2120,-8119,6087,-2,384,1,5
325765,2587,-8126,5472,-1,237,-3,5
325770,3016,-8119,4753,-1,119,-5,5
325775,3413,-8105,4021,0,42,-4,5
325780,3697,-8093,3297,2,5,1,5
325785,3481,-8121,2802,4,-7,6,5
325790,3631,-8117,2324,3,-14,4,5
325795,3659,-8124,1869,2,-6,3,5
325800,3359,-8137,1568,0,-11,3,5
325805,3121,-8130,1370,-1,-33,3,5
325810,3214,-8129,1482,-1,-51,0,5
325815,3101,-8138,1565,-1,-60,-2,5
325820,2958,-8131,1587,0,-76,-4,5
325825,2696,-8133,1566,0,-87,-4,5
325830,2336,-8139,1425,1,-96,-4,5
325835,1967,-8149,1322,0,-106,-4,5
325840,1663,-8155,1204,0,-113,-3,5
325845,1394,-8159,1079,0,-115,-3,5
325850,1146,-8157,1028,-1,-113,-3,5
325855,908,-8157,1010,0,-109,-2,5
325860,677,-8159,1002,0,-102,-2,5
325865,464,-8160,983,0,-94,-2,5
325870,291,-8165,935,0,-85,-2,5
325875,144,-8169,854,0,-74,-2,5
325880,15,-8173,748,0,-63,-2,5
325885,-84,-8178,626,0,-53,-1,5
325890,-155,-8182,517,0,-43,-1,5
325895,-195,-8185,422,-1,-35,-1,5
325900,-201,-8188,349,-1,-27,-1,5
325905,-189,-8187,298,-1,-22,-1,5
325910,-155,-8182,261,-1,-18,-1,5
325916,-104,-8181,227,-1,-15,-1,5
325921,-50,-8177,200,0,-14,-1,5
325925,12,-8177,165,0,-13,-1,5
325930,81,-8177,137,0,-12,-1,5
325935,131,-8178,124,-1,-11,-1,5
325940,169,-8178,127,-1,-11,-1,5
325945,196,-8178,143,-1,-11,0,5
325950,214,-8177,169,-1,-10,0,5
325955,240,-8179,197,-1,-10,0,5
325960,259,-8179,230,0,-10,0,5
325965,270,-8177,259,0,-9,0,5
325970,275,-8176,277,0,-8,0,5
325975,264,-8177,288,0,-7,0,5
325980,255,-8180,293,-1,-6,0,5
325985,253,-8183,298,-1,-5,0,5
325990,250,-8182,310,-1,-5,0,5
325995,244,-8183,326,-1,-5,0,5
326000,238,-8185,344,-1,-6,0,5
326005,229,-8186,365,-1,-7,0,5
326010,214,-8187,382,-1,-8,0,5
326015,198,-8188,391,-1,-10,0,5
326020,175,-8183,391,-1,-11,0,5
326025,140,-8183,403,-1,-13,0,5
326030,96,-8182,413,-1,-14,0,5
326035,52,-8183,424,-1,-14,0,5
326040,14,-8185,438,-1,-15,0,5
326045,-18,-8186,454,-1,-15,-1,5
326050,-51,-8186,476,-1,-15,-1,5
326055,-83,-8188,498,-1,-15,-1,5
326060,-116,-8189,529,-1,-15,-1,5
326065,-145,-8189,560,-2,-15,-1,5
326071,-162,-8187,578,-2,-13,-1,5
326076,-167,-8188,595,-2,-11,-1,5
326080,-168,-8187,607,-2,-9,-1,5
326085,-165,-8186,618,-2,-6,-1,5
326090,-152,-8184,633,-2,-3,-1,5
326095,-129,-8185,642,-2,-1,-1,5
326100,-94,-8186,653,-3,0,-1,5
326105,-42,-8185,651,-3,2,-1,5
326110,8,-8183,651,-3,2,-1,5
326115,56,-8184,650,-3,2,-1,5
326120,104,-8184,646,-3,1,-1,5
326125,150,-8185,643,-3,0,-1,5
326130,200,-8181,637,-3,-1,-1,5
326135,245,-8181,622,-3,-2,-1,5
326140,281,-8181,610,-3,-3,-1,5
326145,314,-8181,597,-3,-4,-1,5
326150,335,-8182,586,-3,-6,-1,5
326155,353,-8180,582,-4,-7,-1,5
326160,369,-8177,576,-4,-9,-1,5
326165,376,-8175,568,-4,-11,-1,5
326170,371,-8173,562,-4,-13,-1,5
326175,356,-8172,543,-4,-14,-1,5
326180,335,-8173,522,-4,-15,-1,5
326185,311,-8171,499,-4,-15,-1,5
326190,291,-8173,472,-4,-14,-1,5
326195,260,-8175,451,-4,-12,-1,5
326200,225,-8177,429,-4,-11,-1,5
326205,191,-8177,409,-4,-10,-1,5
326210,162,-8179,390,-4,-10,-1,5
326215,144,-8180,367,-4,-10,0,5
326220,129,-8180,345,-4,-10,-1,5
326224,113,-8182,319,-4,-10,-1,5
326230,100,-8183,292,-4,-10,-1,5
326235,88,-8182,260,-4,-9,-1,5
326239,82,-8180,227,-4,-9,-1,5
326245,90,-8177,195,-4,-8,-1,5
326250,99,-8174,165,-4,-8,-1,5
326255,100,-8172,141,-4,-7,-1,5
326260,104,-8172,117,-4,-7,-1,5
326265,107,-8175,91,-3,-6,-1,5
326270,115,-8176,60,-3,-6,-1,5
326275,129,-8177,30,-3,-6,-1,5
326280,138,-8176,3,-3,-5,-1,5
326285,147,-8177,-19,-3,-3,-1,5
326290,154,-8177,-33,-3,-2,-1,5
326295,160,-8177,-45,-3,0,-1,5
326300,169,-8176,-51,-3,1,-1,5
326305,182,-8173,-62,-3,2,-1,5
326310,196,-8171,-69,-3,3,0,5
326315,207,-8171,-73,-3,3,0,5
326320,218,-8173,-76,-3,3,0,5
326325,228,-8172,-81,-2,3,0,5
326330,241,-8169,-82,-2,3,0,5
326335,252,-8168,-84,-2,3,0,5
326340,253,-8168,-80,-2,2,0,5
326345,249,-8171,-59,-2,2,0,5
326350,241,-8171,-35,-2,1,0,5
326355,226,-8174,-11,-2,0,0,5
326360,212,-8176,6,-2,0,0,5
326365,199,-8177,27,-2,0,0,5
326370,183,-8177,45,-2,1,0,5
326375,169,-8177,68,-2,2,0,5
326380,157,-8177,89,-2,2,0,5
326385,146,-8177,104,-2,3,0,5
326390,146,-8175,116,-2,3,0,5
326395,153,-8176,128,-2,4,0,5
326400,162,-8176,143,-2,5,0,5
326405,176,-8177,149,-2,5,0,5
326410,199,-8176,150,-2,5,0,5
326415,226,-8175,154,-2,5,0,5
326420,259,-8176,159,-2,4,0,5
326425,285,-8176,162,-2,4,0,5
326430,305,-8174,169,-2,4,0,5
326434,321,-8173,177,-2,3,0,5
326439,327,-8171,183,-2,2,0,5
326444,327,-8171,192,-2,1,0,0
326449,325,-8170,199,-2,0,0,0
326454,309,-8170,210,-2,-1,0,0
326459,285,-8171,229,-2,-1,0,0
326464,262,-8175,249,-2,-1,0,0
326470,235,-8176,268,-2,-1,0,0
326475,210,-8176,283,-2,-1,0,0
326479,190,-8179,296,-2,-1,0,0
326484,169,-8177,309,-2,0,0,0
326489,149,-8180,318,-2,0,0,0
326494,132,-8181,325,-2,0,0,0
326499,121,-8182,331,-2,0,0,0
326504,119,-8182,331,-2,0,0,0
326509,124,-8181,329,-2,1,0,0
326514,129,-8179,332,-2,1,0,0
326519,137,-8178,335,-2,1,0,0
326524,144,-8175,330,-2,1,0,0
326529,152,-8174,327,-2,1,0,0
326534,169,-8175,324,-2,1,0,0
326539,186,-8176,321,-2,1,0,0
326544,196,-8176,321,-2,0,0,0
326549,206,-8176,323,-2,0,0,0
326554,210,-8177,324,-2,-1,0,0
326559,212,-8176,323,-2,-1,0,0
326564,220,-8179,325,-3,-1,0,0
326569,226,-8178,326,-3,-1,0,0
326574,225,-8174,332,-3,-1,0,0
326579,222,-8172,336,-3,-2,0,0
326584,217,-8173,340,-3,-2,0,0
326589,214,-8173,337,-3,-3,0,0
326594,210,-8177,343,-3,-3,0,0
326599,198,-8183,345,-3,-3,0,0
326604,184,-8186,345,-3,-3,0,0
326609,169,-8188,346,-3,-4,0,0
326614,157,-8187,342,-3,-4,0,0
326619,148,-8186,336,-3,-4,0,0
326624,143,-8186,328,-3,-4,0,0
326629,140,-8186,321,-3,-4,0,0
326634,136,-8188,312,-3,-5,0,0
326639,134,-8190,300,-3,-5,0,0
326644,134,-8192,283,-3,-5,0,0
326649,143,-8191,261,-3,-5,0,0
326654,152,-8192,244,-3,-5,0,0
326659,157,-8190,227,-3,-5,0,0
326664,164,-8188,214,-3,-5,0,0
326669,174,-8183,201,-3,-6,0,0
326674,181,-8181,186,-3,-7,0,0
326679,192,-8183,177,-3,-8,0,0
326684,201,-8184,166,-3,-9,0,0
326689,201,-8183,158,-3,-10,0,0
326694,198,-8183,154,-3,-11,0,0
326699,191,-8183,152,-3,-11,0,0
326704,179,-8185,151,-3,-10,0,0
326709,169,-8185,146,-3,-10,0,0
326714,157,-8183,146,-3,-9,0,0
326719,139,-8183,146,-3,-8,0,0
326724,121,-8182,151,-3,-8,0,0
326729,105,-8182,150,-3,-7,0,0
326734,93,-8178,149,-3,-7,0,0
326739,89,-8177,145,-3,-6,0,0
326744,86,-8178,146,-3,-5,0,0
326749,84,-8178,151,-3,-4,0,0
326755,85,-8180,153,-3,-4,0,0
326759,88,-8180,148,-3,-4,0,0
326764,93,-8179,139,-2,-4,0,0
326769,98,-8179,127,-2,-4,0,0
326774,103,-8181,117,-2,-4,0,0
326779,108,-8180,104,-2,-5,0,0
326784,115,-8179,86,-2,-5,0,0
326789,121,-8178,70,-2,-5,0,0
326794,130,-8179,56,-2,-5,0,0
326799,136,-8179,49,-2,-6,0,0
326804,137,-8179,46,-2,-6,0,0
326809,135,-8179,44,-2,-7,0,0
326814,131,-8180,46,-2,-7,0,0
326819,128,-8181,48,-2,-7,0,0
326824,126,-8181,48,-2,-7,0,0
326829,124,-8180,55,-2,-7,0,0
326834,120,-8180,67,-2,-6,0,0
326839,118,-8180,75,-2,-6,0,0
326844,116,-8177,80,-2,-6,0,0
326849,113,-8177,88,-2,-6,0,0
326854,115,-8177,100,-2,-5,0,0
326859,115,-8178,113,-2,-5,0,0
326864,119,-8175,117,-2,-4,0,0
326869,127,-8175,123,-2,-5,0,0
326874,134,-8175,123,-2,-5,0,0
326879,143,-8176,124,-2,-5,0,0
326884,147,-8175,128,-2,-5,0,0
326889,150,-8175,133,-2,-5,0,0
326894,150,-8174,138,-2,-5,0,0
326899,146,-8171,138,-2,-5,0,0
326904,142,-8169,143,-2,-5,0,0
326909,137,-8168,146,-2,-5,0,0
326914,130,-8167,145,-2,-5,0,0
326919,118,-8165,148,-2,-6,0,0
326924,106,-8167,152,-2,-6,0,0
326929,91,-8169,155,-2,-6,0,0
326934,74,-8169,161,-2,-7,0,0
326939,56,-8170,168,-2,-7,0,0
326944,38,-8173,182,-2,-7,0,0
326949,15,-8173,192,-2,-6,0,0
326954,-10,-8176,203,-2,-6,0,0
326959,-28,-8179,216,-2,-5,-1,0
326964,-40,-8181,228,-2,-5,-1,0
326969,-44,-8182,232,-2,-4,-1,0
326974,-41,-8184,239,-2,-4,-1,0
326980,-39,-8186,242,-2,-4,-1,0
326984,-33,-8186,241,-2,-4,-1,0
326989,-23,-8183,240,-2,-3,-1,0
326994,-11,-8179,241,-2,-2,-1,0
326999,-1,-8178,239,-2,-2,-1,0
327004,10,-8180,244,-2,-1,-1,0
327009,22,-8180,251,-2,0,-1,0
327014,42,-8179,258,-2,0,-1,0
327019,61,-8179,266,-2,0,-1,0
327024,83,-8177,275,-2,0,-1,0
327029,107,-8179,278,-2,0,-1,0
327034,123,-8183,283,-2,0,-1,0
327039,134,-8186,284,-2,0,-1,0
327044,143,-8185,286,-2,0,-1,0
327049,147,-8185,289,-2,0,-1,0
327054,146,-8187,290,-2,1,-1,0
327059,140,-8186,285,-2,1,-1,0
327064,127,-8185,277,-2,1,-1,0
327069,114,-8185,270,-2,2,-1,0
327074,101,-8185,259,-2,2,-1,0
327079,92,-8184,245,-2,2,-1,0
327084,89,-8184,234,-2,2,-1,0
327089,89,-8180,219,-2,2,-1,0
327094,84,-8177,210,-2,1,-1,0
327099,82,-8178,206,-2,1,-1,0
327104,82,-8183,203,-2,0,-1,0
327109,83,-8184,203,-2,0,-1,0
327114,85,-8183,199,-2,-1,-1,0
327119,84,-8182,195,-2,-1,-1,0
327124,83,-8183,192,-2,-2,-1,0
327128,75,-8185,185,-2,-2,-1,0
327133,72,-8185,180,-2,-2,-1,0
327139,74,-8184,182,-2,-2,-1,0
327143,80,-8183,181,-2,-1,-1,0
327149,87,-8182,182,-2,0,-1,0
327153,94,-8183,182,-2,0,-1,0
327159,101,-8183,184,-2,0,-1,0
327163,105,-8186,181,-2,1,-1,0
327169,114,-8187,174,-2,1,-1,0
327174,122,-8186,168,-2,1,-1,0
327179,130,-8185,163,-2,1,-1,0
327183,139,-8182,160,-2,1,-1,0
327189,149,-8183,163,-2,1,-1,0
327194,155,-8181,166,-2,1,-1,0
327199,159,-8177,168,-2,1,-1,0
327203,160,-8179,169,-2,1,-1,0
327208,158,-8181,173,-2,1,-1,0
327213,156,-8180,183,-2,1,-1,0
327219,151,-8180,194,-2,1,-1,0
327224,145,-8181,201,-2,1,-1,0
327229,143,-8182,207,-2,2,-1,0
327234,143,-8179,215,-2,3,-1,0
327238,142,-8181,226,-2,4,-1,0
327243,142,-8181,236,-2,5,-1,0
327248,148,-8179,244,-2,6,-1,0
327253,153,-8180,245,-2,6,-1,0
327258,161,-8183,243,-2,7,-1,0
327263,172,-8182,241,-2,7,-1,0
327268,184,-8179,236,-2,7,-1,0
327273,200,-8181,236,-2,7,-1,0
327278,214,-8180,234,-2,6,-1,0
327283,229,-8181,231,-2,5,-1,0
327288,243,-8181,232,-2,5,-1,0
327293,254,-8179,229,-2,4,-1,0
327298,262,-8179,224,-2,3,-1,0
327303,268,-8179,219,-2,2,-1,0
327308,274,-8179,219,-2,1,-1,0
327313,275,-8181,220,-2,0,-1,0
327318,278,-8180,223,-2,-1,-1,0
327323,273,-8177,225,-2,-2,-1,0
327328,266,-8176,223,-2,-2,-1,0
327334,256,-8175,215,-2,-3,-1,0
327339,245,-8175,215,-2,-3,-1,0
327343,232,-8175,207,-2,-3,-1,0
327349,218,-8177,201,-2,-2,-1,0
327354,204,-8177,194,-2,-3,-1,0
327359,199,-8175,190,-2,-3,-1,0
327364,194,-8172,186,-2,-3,-1,0
327369,195,-8173,182,-2,-3,-1,0
327373,194,-8174,174,-2,-3,-1,0
327378,193,-8174,164,-2,-3,-1,0
327383,190,-8173,158,-2,-3,-1,0
327388,188,-8172,147,-2,-3,-1,0
327393,179,-8171,137,-2,-3,-1,0
327398,174,-8170,128,-2,-3,-1,0
327403,171,-8169,120,-2,-3,-1,0
327408,165,-8170,120,-2,-3,-1,0
327413,161,-8169,117,-2,-3,-1,0
327418,158,-8169,113,-2,-2,-1,0
327423,153,-8169,111,-2,-2,-1,0
327428,150,-8167,113,-2,-1,-1,0
327433,146,-8170,113,-1,-1,-1,0
327438,143,-8173,112,-1,-1,-1,0
327443,141,-8172,118,-1,-1,-1,0
327448,141,-8171,123,-1,-1,-1,0
327453,142,-8168,125,-1,-1,-1,0
327458,148,-8171,133,-1,-1,-1,0
327463,155,-8171,142,-1,0,-1,0
327468,160,-8171,151,-1,0,-1,0
327473,164,-8173,159,-1,0,-1,0
327478,169,-8170,165,-1,0,-1,0
327483,172,-8171,173,-1,1,-1,0
327488,168,-8172,184,-1,1,-1,0
327493,169,-8174,194,-1,1,-1,0
327498,164,-8172,204,-1,1,-1,0
327503,158,-8174,219,-1,1,-1,0
327508,152,-8173,231,-1,1,-1,0
327513,145,-8171,248,-1,1,-1,0
327518,140,-8170,260,-1,1,-1,0
327523,137,-8168,269,-1,1,-1,0
327528,135,-8167,278,-1,1,-1,0
327533,138,-8167,286,-2,1,-1,0
327538,141,-8167,289,-2,1,-1,0
327543,150,-8167,290,-2,1,-1,0
327548,160,-8171,290,-2,1,-1,0
327553,171,-8172,292,-2,0,-1,0
327558,177,-8171,289,-2,0,-1,0
327563,186,-8172,290,-2,-1,-1,0
327568,194,-8173,285,-2,-1,-1,0
327573,201,-8174,285,-2,-1,-1,0
327578,206,-8174,283,-2,-1,-1,0
327583,207,-8175,283,-2,-1,-1,0
327588,209,-8176,286,-2,-1,-1,0
327593,212,-8177,285,-2,-2,-1,0
327598,215,-8176,280,-2,-2,-1,0
327603,219,-8177,282,-2,-2,-1,0
327608,221,-8179,285,-2,-2,-1,0
327613,219,-8179,287,-2,-2,-1,0
327618,219,-8180,290,-2,-2,-1,0
327623,220,-8178,293,-2,-2,-1,0
327628,214,-8177,293,-2,-2,-1,0
327633,202,-8176,292,-2,-3,-1,0
327638,189,-8177,292,-2,-3,-1,0
327643,176,-8177,294,-2,-2,-1,0
327648,168,-8176,293,-2,-2,-1,0
327653,161,-8176,290,-2,-2,-1,0
327658,156,-8176,283,-2,-1,-1,0
327663,159,-8177,275,-2,0,-1,0
327668,167,-8175,263,-2,0,-1,0
327673,177,-8176,251,-2,0,-1,0
327678,193,-8174,238,-2,1,0,0
327683,207,-8177,221,-2,1,-1,0
327688,222,-8177,205,-2,1,0,0
327693,241,-8173,191,-2,1,0,0
327698,257,-8172,179,-2,2,0,0
327703,273,-8171,168,-2,2,0,0
327708,283,-8172,161,-2,2,0,0
327713,291,-8171,155,-2,2,0,0
327718,291,-8170,149,-2,2,0,0
327723,284,-8169,146,-2,2,0,0
327728,274,-8168,148,-1,2,0,0
327733,260,-8169,149,-1,2,0,0
327738,245,-8174,146,-1,2,0,0
327743,228,-8174,146,-1,2,0,0
327748,211,-8176,144,-1,2,0,0
327753,196,-8175,141,-1,2,0,0
327758,181,-8177,143,-1,2,0,0
327763,165,-8176,148,-1,3,0,0
327768,150,-8177,150,-1,3,0,0
327773,137,-8178,152,-1,4,0,0
327778,125,-8177,152,-1,4,0,0
327783,117,-8178,159,-1,4,0,0
327788,108,-8177,169,-1,4,0,0
327793,108,-8175,184,-1,4,0,0
327798,111,-8176,198,-1,4,0,0
327803,114,-8177,215,-1,4,0,0
327808,123,-8180,232,-1,3,0,0
327813,130,-8181,250,-1,3,0,0
327818,133,-8184,264,-1,2,0,0
327823,136,-8183,283,-1,1,0,0
327828,131,-8180,304,-1,1,0,0
327833,127,-8177,331,-1,0,0,0
327838,124,-8175,365,-2,0,0,0
327843,123,-8175,396,-2,0,0,0
327848,124,-8177,428,-2,0,0,0
327853,128,-8176,450,-2,-1,-1,0
327858,129,-8177,469,-2,-1,-1,0
327863,121,-8176,494,-2,-2,-1,0
327868,114,-8178,516,-2,-1,-1,0
327873,110,-8180,531,-2,-1,-1,0
327878,110,-8179,548,-2,0,-1,0
327883,120,-8176,557,-2,0,-1,0
327888,134,-8178,563,-2,0,-1,0
327893,151,-8179,562,-2,0,-1,0
327898,172,-8180,557,-3,0,-1,0
327903,193,-8182,553,-3,0,-1,0
327908,213,-8182,545,-3,0,-1,0
327913,233,-8182,539,-3,-1,-1,0
327918,253,-8181,529,-3,-2,0,0
327923,264,-8180,517,-3,-3,-1,0
327928,264,-8179,505,-3,-4,-1,0
327933,257,-8182,495,-3,-5,0,0
327938,247,-8181,484,-3,-6,-1,0
327943,232,-8178,475,-3,-6,-1,0
327948,214,-8175,461,-3,-6,-1,0
327953,194,-8174,447,-3,-7,-1,0
327958,169,-8172,432,-3,-7,-1,0
327963,145,-8173,416,-3,-7,-1,0
327968,120,-8174,396,-3,-7,-1,0
327973,100,-8175,379,-3,-7,-1,0
327978,85,-8178,356,-3,-7,-1,0
327983,78,-8180,330,-3,-6,-1,0
327988,71,-8179,304,-3,-6,-1,0
327993,67,-8181,274,-3,-6,-1,0
327998,68,-8181,245,-3,-6,-1,0
328003,67,-8179,220,-3,-5,-1,0
328008,64,-8179,198,-3,-5,-1,0
328013,70,-8181,179,-3,-4,-1,0
328018,78,-8182,158,-3,-4,-1,0
328023,86,-8182,138,-3,-4,-1,0
328028,98,-8183,119,-3,-3,-1,0
328033,110,-8183,101,-3,-2,-1,0
328038,121,-8181,84,-3,-2,-1,0
328043,133,-8181,68,-3,-1,-1,0
328047,142,-8181,52,-3,-1,-1,0
328053,151,-8184,40,-3,-1,-1,0
328058,156,-8183,33,-3,-1,-1,0
328063,159,-8182,29,-3,0,-1,0
328068,162,-8183,27,-2,0,-1,0
328073,161,-8182,30,-2,0,-1,0
328078,159,-8184,31,-2,1,-1,0
328083,155,-8186,36,-2,1,-1,0
328088,152,-8187,45,-2,2,-1,0
328093,151,-8186,51,-2,2,-1,0
328098,152,-8188,59,-2,3,-1,0
328103,154,-8186,67,-2,3,-1,0
328107,160,-8182,78,-2,3,-1,0
328112,170,-8181,83,-2,3,-1,0
328117,181,-8184,92,-2,3,-1,0
328122,192,-8186,98,-2,3,-1,0
328127,204,-8185,104,-2,4,-1,0
328133,214,-8185,111,-2,4,-1,0
328137,225,-8185,115,-2,5,-1,0
328143,238,-8184,123,-2,5,-1,0
328148,248,-8182,130,-2,5,0,0
328153,262,-8180,138,-2,5,0,0
328158,274,-8180,145,-2,4,0,0
328162,286,-8180,159,-2,4,0,0
328167,296,-8180,170,-2,4,0,0
328172,305,-8180,183,-2,3,0,0
328177,302,-8178,193,-2,3,0,0
328182,294,-8178,206,-2,3,0,0
328187,284,-8180,218,-2,2,0,0
328192,273,-8177,230,-2,2,0,0
328197,263,-8178,239,-2,1,0,0
328202,253,-8177,249,-2,1,0,0
328207,238,-8177,261,-2,0,0,0
328212,221,-8179,266,-2,0,0,0
328217,204,-8180,271,-2,0,0,0
328222,187,-8181,277,-2,0,0,0
328227,173,-8183,285,-2,0,0,0
328232,161,-8182,295,-2,0,0,0
328237,157,-8182,302,-2,1,0,0
328242,158,-8180,310,-2,1,0,0
328247,165,-8180,315,-2,1,0,0
328252,179,-8177,311,-2,2,0,0
328257,202,-8174,308,-2,2,0,0
328262,224,-8171,300,-2,2,0,0
328267,239,-8169,294,-2,2,0,0
328272,253,-8167,288,-2,1,0,0
328277,264,-8169,288,-2,1,0,0
328282,270,-8171,282,-2,0,0,0
328287,273,-8173,279,-2,0,0,0
328292,269,-8175,281,-2,-1,0,0
328297,260,-8174,285,-2,-1,0,0
328302,247,-8176,282,-2,-1,0,0
328307,229,-8177,280,-2,-1,0,0
328312,208,-8177,279,-2,-1,0,0
328317,190,-8176,278,-2,0,0,0
328322,171,-8177,280,-2,0,0,0
328327,156,-8178,285,-2,0,0,0
328332,144,-8179,285,-2,0,0,0
328337,141,-8178,281,-2,0,0,0
328342,141,-8176,276,-2,0,0,0
328347,143,-8178,270,-2,0,0,0
328352,149,-8178,261,-2,0,0,0
328357,159,-8177,255,-2,0,0,0
328362,168,-8177,247,-3,0,0,0
328367,175,-8175,236,-3,0,0,0
328372,185,-8177,230,-2,0,0,0
328377,196,-8176,227,-2,0,0,0
328382,209,-8176,222,-2,0,0,0
328387,217,-8174,216,-2,-1,0,0
328392,227,-8175,206,-2,-1,0,0
328397,236,-8177,199,-2,-1,0,0
328402,244,-8178,187,-2,-2,0,0
328407,246,-8178,175,-2,-2,0,0
328412,241,-8176,168,-2,-3,0,0
328417,228,-8177,165,-2,-4,0,0
328422,212,-8179,166,-2,-4,0,0
328427,188,-8180,169,-2,-4,0,0
328432,167,-8181,171,-2,-4,0,0
328437,145,-8181,173,-2,-4,0,0
328442,125,-8181,172,-2,-4,0,0
328447,111,-8183,176,-2,-3,0,0
328452,102,-8180,183,-2,-3,0,0
328457,98,-8180,184,-2,-3,0,0
328462,97,-8178,182,-2,-2,0,0
328467,99,-8178,184,-2,-2,0,0
328472,107,-8175,185,-2,-2,0,0
328477,123,-8175,186,-2,-2,0,0
328482,141,-8177,184,-2,-1,0,0
328487,158,-8178,178,-2,-1,0,0
328492,178,-8178,170,-2,-1,0,0
328497,191,-8180,160,-2,-1,0,0
328502,206,-8183,150,-2,-2,0,0
328507,215,-8184,143,-2,-2,0,0
328512,219,-8183,135,-2,-2,0,0
328517,222,-8181,127,-2,-2,0,0
328522,220,-8181,124,-2,-3,0,0
328527,214,-8178,122,-2,-3,0,0
328532,205,-8179,122,-2,-3,0,0
328537,195,-8179,123,-2,-3,0,0
328542,187,-8178,129,-2,-3,0,0
328547,177,-8174,134,-2,-2,0,0
328552,165,-8171,140,-2,-2,0,0
328557,154,-8169,141,-2,-2,0,0
328562,149,-8169,143,-2,-2,0,0
328567,147,-8172,145,-2,-2,0,0
328572,146,-8174,147,-2,-1,0,0
328577,147,-8176,147,-2,-1,0,0
328582,151,-8177,145,-2,0,0,0
328587,160,-8175,141,-2,0,0,0
328592,171,-8174,137,-2,0,0,0
328597,181,-8176,133,-2,-1,0,0
328602,193,-8176,130,-2,-1,0,0
328607,202,-8176,125,-2,-1,0,0
328612,213,-8177,114,-2,-1,0,0
328617,217,-8175,102,-1,-1,0,0
328622,221,-8173,94,-1,-1,0,0
328627,219,-8173,94,-1,-1,0,0
328632,215,-8174,100,-1,-2,0,0
328637,202,-8173,102,-1,-3,0,0
328642,182,-8175,108,-1,-3,0,0
328647,159,-8175,120,-1,-3,0,0
328652,135,-8176,133,-1,-3,0,0
328657,108,-8175,146,-1,-3,0,0
328662,83,-8175,160,-1,-3,0,0
328667,60,-8176,174,-1,-3,0,0
328672,38,-8175,187,-1,-4,0,0
328677,19,-8175,199,-1,-4,0,0
328682,6,-8174,208,-1,-3,0,0
328687,-7,-8177,216,-1,-3,0,0
328692,-13,-8180,226,-1,-2,0,0
328697,-13,-8179,234,-1,-1,-1,0
328702,-12,-8179,245,-1,-1,0,0
328707,-7,-8179,253,-1,0,0,0
328712,1,-8179,257,-1,0,0,0
328717,14,-8180,262,-1,1,0,0
328722,35,-8182,267,-2,2,0,0
328727,58,-8183,273,-2,2,0,0
328732,82,-8185,277,-2,3,0,0
328737,110,-8181,281,-2,3,0,0
328742,133,-8180,287,-2,3,0,5
328747,157,-8179,292,-2,3,0,5
328752,176,-8176,290,-2,3,0,5
328757,184,-8174,294,-2,3,0,5
328762,186,-8175,294,-2,3,0,5
328767,186,-8175,289,-2,3,0,5
328772,176,-8175,283,-2,2,0,5
328777,156,-8174,276,-2,2,0,5
328782,130,-8173,272,-2,3,-1,5
328786,100,-8176,271,-2,3,-1,5
328792,76,-8175,269,-2,3,0,5
328797,57,-8175,269,-2,3,-1,5
328801,39,-8174,272,-2,3,-1,5
328807,30,-8175,277,-2,3,-1,5
328812,21,-8173,279,-2,3,-1,5
328817,14,-8172,279,-2,3,-1,5
328822,17,-8174,279,-2,3,-1,5
328827,24,-8174,279,-2,4,-1,5
328832,33,-8175,283,-2,4,-1,5
328836,45,-8172,287,-2,3,-1,5
328841,59,-8170,286,-2,3,-1,5
328847,77,-8171,287,-2,2,-1,5
328852,97,-8172,288,-2,2,-1,5
328856,119,-8172,288,-2,2,-1,5
328862,139,-8173,281,-2,3,-1,5
328867,157,-8175,279,-2,3,-1,5
328872,175,-8176,273,-2,3,-1,5
328877,193,-8175,275,-2,3,-1,5
328882,208,-8175,275,-2,3,-1,5
328887,222,-8176,274,-2,3,-1,5
328892,229,-8178,275,-2,2,-1,5
328897,235,-8177,276,-2,1,-1,5
328902,231,-8178,279,-2,1,-1,5
328907,224,-8174,279,-2,1,-1,5
328912,214,-8172,281,-2,1,-1,5
328917,203,-8174,284,-2,1,-1,5
328922,194,-8175,289,-2,1,0,5
328926,190,-8176,294,-2,2,0,5
328931,184,-8177,295,-2,2,0,5
328936,183,-8177,295,-2,1,0,5
328942,183,-8174,295,-2,1,0,5
328946,185,-8174,292,-2,1,0,5
328951,191,-8176,284,-2,1,0,5
328956,198,-8179,279,-2,1,0,5
328961,205,-8178,273,-2,0,0,5
328966,207,-8172,269,-2,-1,0,5
328971,204,-8171,268,-2,-1,0,5
328976,201,-8173,268,-2,-2,0,5
328981,201,-8175,270,-2,-2,0,5
328986,200,-8174,269,-2,-2,0,5
328991,202,-8173,268,-2,-2,0,5
328996,201,-8176,271,-2,-2,0,5
329001,203,-8178,278,-2,-2,0,5
329006,204,-8180,279,-2,-2,0,5
329011,210,-8178,275,-2,-2,0,5
329016,218,-8178,270,-2,-2,0,5
329021,226,-8177,261,-2,-3,0,5
329026,234,-8177,248,-2,-3,0,5
329031,240,-8180,240,-2,-3,0,5
329036,241,-8181,232,-2,-3,0,5
329041,240,-8181,221,-2,-4,0,5
329046,231,-8178,212,-2,-4,0,5
329051,219,-8175,200,-2,-4,0,5
329056,205,-8174,187,-2,-5,0,5
329061,191,-8175,183,-2,-4,0,5
329066,176,-8177,175,-2,-4,0,5
329071,166,-8178,173,-2,-4,0,5
329076,153,-8176,171,-2,-3,0,5
329081,144,-8175,165,-2,-3,0,5
329086,135,-8174,160,-2,-2,0,5
329091,128,-8172,156,-2,-2,0,5
329096,122,-8172,150,-2,-2,0,5
329101,118,-8174,147,-2,-2,0,5
329106,113,-8175,142,-2,-2,0,5
329111,110,-8175,144,-2,-2,0,5
329116,105,-8171,147,-2,-2,0,5
329121,101,-8172,150,-2,-2,0,5
329126,97,-8173,158,-2,-1,0,5
329131,97,-8174,168,-2,-1,0,5
329137,99,-8174,173,-2,-1,0,5
329141,101,-8176,181,-2,-1,0,5
329146,104,-8176,184,-2,-1,0,5
329151,108,-8177,188,-2,-1,0,5
329156,110,-8181,197,-2,-1,0,5
329161,110,-8180,206,-2,-1,0,5
329166,110,-8180,221,-2,-1,0,5
329171,111,-8178,236,-2,-1,0,5
329176,106,-8180,245,-1,-2,0,5
329181,103,-8180,252,-2,-2,0,5
329186,97,-8178,257,-1,-1,0,5
329191,89,-8178,262,-2,-1,0,5
329196,81,-8177,275,-2,-1,0,5
329202,77,-8175,283,-2,0,0,5
329206,77,-8174,293,-2,0,0,5
329211,80,-8175,302,-2,0,0,5
329216,85,-8178,310,-2,0,0,5
329221,89,-8177,316,-2,0,0,5
329226,97,-8175,317,-2,0,0,5
329231,101,-8175,318,-2,0,0,5
329236,100,-8174,318,-2,0,0,5
329241,99,-8175,321,-2,0,0,5
329246,99,-8173,325,-2,0,0,5
329251,99,-8170,327,-2,-1,-1,5
329257,99,-8171,322,-2,-1,-1,5
329261,99,-8171,319,-2,-1,-1,5
329266,97,-8174,315,-2,-1,0,5
329271,97,-8177,310,-2,-1,-1,5
329276,95,-8178,304,-2,-1,-1,5
329281,91,-8180,299,-2,-1,-1,5
329286,90,-8181,295,-2,0,-1,5
329291,88,-8179,293,-2,0,-1,5
329296,89,-8180,290,-2,0,-1,5
329301,94,-8180,289,-2,0,-1,5
329306,97,-8178,287,-2,0,-1,5
329311,102,-8179,287,-2,0,-1,5
329316,109,-8178,281,-2,1,-1,5
329321,118,-8176,280,-2,1,-1,5
329326,130,-8178,273,-2,1,-1,5
329331,139,-8179,267,-2,1,-1,5
329336,147,-8181,261,-2,1,-1,5
329341,151,-8182,261,-2,1,-1,5
329346,155,-8184,256,-2,1,-1,5
329351,156,-8182,253,-2,1,-1,5
329356,156,-8181,254,-2,1,0,5
329361,162,-8181,257,-2,1,0,5
329366,162,-8182,263,-2,1,0,5
329371,163,-8182,263,-2,1,-1,5
329376,162,-8180,260,-2,1,0,5
329381,163,-8180,258,-2,1,0,5
329386,163,-8181,256,-2,1,-1,5
329391,164,-8181,252,-2,0,0,5
329396,164,-8180,251,-2,0,0,5
329401,160,-8178,250,-2,1,0,5
329406,156,-8178,245,-2,2,0,5
329411,160,-8176,241,-2,2,0,5
329416,163,-8176,237,-2,2,0,5
329421,171,-8174,232,-2,2,0,5
329426,180,-8174,228,-2,2,0,5
329431,189,-8176,224,-2,2,0,5
329436,198,-8174,219,-2,3,0,5
329441,207,-8174,216,-2,3,0,5
329446,211,-8174,212,-2,4,0,5
329451,213,-8173,209,-2,4,0,5
329456,212,-8173,211,-2,4,0,5
329461,208,-8170,209,-2,5,0,5
329466,203,-8170,204,-2,5,0,5
329471,200,-8170,204,-2,6,0,5
329476,194,-8172,202,-2,7,0,5
329481,191,-8172,199,-2,8,0,5
329486,189,-8173,199,-2,8,0,5
329491,183,-8173,196,-2,9,0,5
329496,173,-8175,199,-2,10,0,5
329501,163,-8176,202,-2,12,0,5
329506,160,-8173,198,-2,13,0,5
329511,160,-8172,197,-1,13,0,5
329516,161,-8176,194,-1,12,0,5
329521,162,-8176,198,-1,12,0,5
329526,164,-8175,199,-1,11,0,5
329531,170,-8174,198,-1,9,0,5
329536,184,-8173,200,-1,7,0,5
329541,208,-8171,194,-1,4,0,5
329546,243,-8168,185,-1,-1,0,5
329551,292,-8166,177,-1,-9,0,5
329556,357,-8165,175,-1,-20,0,5
329561,455,-8166,180,-1,-35,0,5
329566,591,-8167,206,0,-57,-1,5
329571,776,-8164,254,0,-87,-1,5
329576,1015,-8159,328,0,-127,-1,5
329581,1305,-8152,428,1,-175,-2,5
329586,1680,-8146,547,2,-233,-2,5
329591,2175,-8139,676,3,-305,-3,5
329596,2740,-8123,807,4,-398,-4,5
329600,3385,-8112,985,6,-509,-5,5
329606,4052,-8088,1210,8,-636,-6,5
329611,4697,-8074,1458,10,-774,-7,5
329616,5295,-8064,1841,13,-919,-7,5
329621,5701,-8070,2410,15,-1064,-8,5
329626,5886,-8098,3148,17,-1185,-10,5
329630,5876,-8110,3967,18,-1273,-13,5
329635,5991,-8137,4826,19,-1351,-17,5
329640,5814,-8135,5811,21,-1411,-20,5
329646,5313,-8143,6627,23,-1431,-20,5
329650,4620,-8133,7174,26,-1403,-21,5
329655,3716,-8168,7387,26,-1328,-22,5
329660,2793,-8185,7436,25,-1211,-22,5
329666,1740,-8236,7348,21,-1058,-20,5
329670,826,-8242,7159,15,-893,-16,5
329676,157,-8243,6768,12,-711,-12,5
329681,-391,-8222,6145,11,-509,-7,5
329686,-730,-8201,5218,10,-309,-4,5
329691,-862,-8200,4057,10,-136,-1,5
329695,-941,-8181,3126,9,-6,2,5
329700,-1041,-8205,2534,8,84,3,5
329705,-1045,-8209,1760,5,141,2,5
329710,-951,-8188,971,2,172,1,5
329715,-870,-8179,510,-1,180,1,5
329720,-756,-8191,358,-3,175,1,5
329725,-633,-8209,316,-4,174,0,5
329730,-515,-8207,332,-5,181,1,5
329735,-434,-8201,392,-6,193,2,5
329740,-377,-8198,449,-7,206,4,5
329745,-373,-8191,529,-7,224,5,5
329750,-437,-8191,632,-6,246,6,5
329755,-501,-8191,732,-6,275,7,5
329760,-558,-8192,829,-7,309,7,5
329765,-649,-8195,925,-7,351,7,5
329770,-771,-8201,997,-8,399,8,5
329775,-948,-8207,1035,-9,455,8,5
329780,-1169,-8219,1070,-10,523,9,5
329785,-1449,-8220,1096,-12,604,10,5
329790,-1764,-8228,1229,-14,702,11,5
329795,-2107,-8257,1559,-17,816,12,5
329800,-2510,-8265,2105,-20,942,13,5
329805,-2963,-8280,2882,-24,1073,14,5
329810,-3341,-8297,3800,-26,1197,14,5
329815,-3296,-8313,4729,-28,1303,13,5
329820,-3488,-8324,5559,-29,1368,15,5
329825,-3368,-8336,6265,-27,1363,12,5
329830,-2987,-8328,7048,-26,1331,11,5
329835,-2329,-8328,7633,-26,1286,11,5
329840,-1550,-8259,7988,-24,1219,11,5
329845,-757,-8208,8075,-20,1124,11,5
329850,20,-8157,7887,-16,1009,10,5
329855,715,-8127,7484,-12,886,8,5
329860,1274,-8117,6892,-9,762,5,5
329865,1772,-8123,6316,-8,638,1,5
329870,2242,-8123,5671,-8,520,0,5
329875,2718,-8109,4986,-7,415,0,5
329880,3374,-8094,4333,-6,332,3,5
329885,3423,-8096,3690,-3,279,7,5
329890,3525,-8114,3306,-3,225,6,5
329895,3705,-8123,2968,-2,186,4,5
329900,3566,-8121,2458,-3,158,2,5
329905,3396,-8130,2322,-4,122,2,5
329910,3388,-8132,2239,-3,83,1,5
329915,3346,-8130,2135,-2,48,-1,5
329920,3263,-8136,2148,-1,13,-2,5
329925,3115,-8139,1936,-1,-21,-3,5
329930,2885,-8146,1730,0,-53,-2,5
329935,2599,-8157,1489,0,-78,-2,5
329940,2289,-8162,1218,-1,-97,-2,5
329945,2015,-8168,1018,-1,-110,-2,5
329950,1740,-8166,851,-2,-115,-2,5
329955,1473,-8165,752,-2,-117,-2,5
329960,1238,-8165,696,-2,-115,-2,5
329965,1002,-8164,636,-2,-110,-2,5
329970,786,-8167,601,-1,-102,-2,5
329975,594,-8169,538,-1,-92,-2,5
329980,418,-8174,468,-1,-82,-2,5
329985,270,-8178,396,-2,-72,-1,5
329990,145,-8179,314,-2,-62,-1,5
329995,34,-8178,246,-2,-52,-1,5
330000,-37,-8177,189,-2,-45,-1,5
330005,-93,-8175,141,-2,-38,-1,5
330010,-138,-8179,114,-2,-33,-1,5
330015,-158,-8180,84,-2,-30,-1,5
330020,-176,-8181,67,-2,-28,-1,5
330025,-191,-8182,56,-2,-27,-1,5
330030,-186,-8181,44,-2,-26,-1,5
330035,-183,-8179,49,-2,-26,-1,5
330041,-173,-8176,58,-2,-27,-1,5
330045,-166,-8177,65,-2,-28,-1,5
330051,-165,-8177,82,-2,-28,-1,5
330056,-160,-8176,96,-2,-28,-1,5
330061,-158,-8175,109,-2,-28,-1,5
330065,-160,-8173,125,-2,-27,-1,5
330070,-155,-8174,127,-2,-26,-1,5
330075,-153,-8176,130,-2,-25,-1,5
330080,-155,-8179,123,-2,-25,-1,5
330085,-155,-8179,110,-2,-24,-1,5
330090,-163,-8177,98,-2,-23,-1,5
330095,-176,-8178,82,-2,-22,-1,5
330100,-186,-8182,67,-2,-20,-1,5
330105,-205,-8182,50,-2,-19,-1,5
330110,-217,-8183,37,-2,-17,-1,5
330115,-219,-8182,35,-2,-16,-1,5
330120,-217,-8180,26,-2,-15,-1,5
330125,-207,-8179,20,-2,-14,-1,5
330130,-196,-8179,13,-2,-13,-1,5
330135,-180,-8179,7,-2,-13,-1,5
330140,-159,-8179,9,-2,-12,-1,5
330145,-138,-8177,17,-2,-12,-1,5
330150,-121,-8176,27,-2,-12,-1,5
330155,-110,-8175,38,-2,-12,-1,5
330160,-106,-8173,50,-2,-12,-1,5
330165,-107,-8175,62,-2,-11,-1,5
330170,-110,-8176,71,-2,-11,-1,5
330175,-115,-8176,80,-2,-10,-1,5
330180,-120,-8176,88,-2,-10,-1,5
330185,-119,-8178,93,-2,-9,-1,5
330190,-120,-8178,89,-2,-8,-1,5
330195,-122,-8178,89,-2,-8,-1,5
330200,-120,-8180,79,-2,-7,-1,5
330205,-119,-8181,65,-2,-7,-1,5
330210,-115,-8182,51,-2,-7,-1,5
330215,-105,-8182,32,-2,-8,-1,5
330220,-97,-8181,8,-2,-9,-1,5
330225,-94,-8178,-12,-2,-10,-1,5
330230,-91,-8179,-36,-2,-10,-1,5
330235,-89,-8178,-55,-2,-11,-1,5
330240,-88,-8179,-68,-2,-11,-1,5
330245,-90,-8178,-80,-2,-11,-1,5
330250,-93,-8180,-89,-2,-11,-1,5
330255,-103,-8180,-92,-2,-11,-1,5
330260,-110,-8180,-90,-2,-11,-1,5
330265,-118,-8179,-84,-2,-10,-1,5
330270,-130,-8177,-64,-2,-9,-1,5
330275,-134,-8175,-48,-2,-7,-1,5
330280,-139,-8176,-28,-2,-6,-1,5
330285,-145,-8178,-10,-2,-5,-1,5
330290,-139,-8181,5,-2,-4,-1,5
330295,-131,-8184,19,-2,-3,-1,5
330300,-120,-8186,32,-2,-3,-1,5
330305,-102,-8187,44,-2,-3,-1,5
330310,-89,-8187,54,-2,-3,-1,5
330315,-74,-8185,60,-2,-3,-1,5
330320,-57,-8180,63,-2,-3,-1,5
330325,-48,-8181,73,-2,-3,-1,5
330330,-36,-8179,79,-2,-3,-1,5
330336,-29,-8180,86,-2,-3,-1,5
330341,-30,-8181,95,-2,-3,-1,5
330347,-35,-8183,98,-2,-4,-1,5
330353,-47,-8185,103,-2,-4,-1,5
330359,-61,-8184,109,-2,-4,-1,5
330364,-72,-8184,112,-2,-3,-1,5
330369,-84,-8185,116,-2,-3,-1,5
330375,-99,-8185,118,-2,-2,-1,5
330379,-108,-8186,119,-2,-1,-1,5
330383,-117,-8184,117,-2,-1,-1,5
330387,-122,-8182,112,-2,0,-1,5
330392,-118,-8181,105,-2,0,-1,5
330398,-116,-8180,102,-2,0,-1,5
330403,-103,-8182,106,-2,0,-1,5
330408,-90,-8183,109,-2,0,-1,5
330413,-78,-8182,114,-2,0,-1,5
330418,-66,-8180,117,-2,0,-1,5
330422,-56,-8181,116,-2,0,-1,5
330427,-53,-8184,115,-2,0,-1,5
330432,-46,-8184,114,-2,0,-1,5
330438,-41,-8184,110,-2,0,-1,5
330443,-35,-8184,104,-2,0,-1,5
330447,-28,-8181,96,-2,0,-1,5
330452,-24,-8177,92,-2,-1,-1,5
330458,-20,-8177,88,-2,-1,-1,5
330463,-12,-8178,86,-2,-1,-1,5
330468,-9,-8180,78,-2,-2,-1,5
330473,-10,-8180,72,-2,-2,-1,5
330478,-13,-8178,65,-2,-2,-1,5
330484,-18,-8178,60,-2,-3,-1,5
330489,-24,-8177,57,-2,-3,-1,5
330494,-31,-8177,55,-2,-3,-1,5
330499,-32,-8177,60,-2,-3,-1,5
330504,-37,-8180,63,-2,-3,-1,5
330509,-37,-8180,70,-2,-3,-1,5
330514,-36,-8181,70,-2,-2,-1,5
330519,-35,-8180,69,-2,-2,-1,5
330524,-28,-8180,70,-2,-2,-1,5
330529,-19,-8181,71,-2,-2,-1,5
330534,-5,-8180,77,-2,-3,-1,5
330539,13,-8179,84,-2,-3,-1,5
330543,29,-8179,89,-2,-3,-1,5
330548,45,-8176,98,-2,-3,-1,5
330553,60,-8176,105,-2,-3,-1,5
330558,67,-8174,109,-2,-3,-1,5
330564,70,-8175,110,-2,-3,-1,5
330569,70,-8176,109,-2,-3,-1,5
330573,61,-8177,105,-2,-3,-1,5
330578,54,-8175,102,-2,-3,-1,5
330583,46,-8175,99,-2,-3,-1,5
330588,39,-8176,98,-2,-2,-1,5
330592,39,-8176,86,-2,-2,-1,5
330598,38,-8175,78,-2,-2,-1,5
330603,37,-8173,72,-2,-1,-1,5
330607,42,-8173,60,-2,-1,-1,5
330613,45,-8174,48,-2,-1,-1,5
330618,46,-8175,40,-2,0,-1,5
330623,53,-8174,31,-2,1,-1,5
330627,66,-8173,26,-2,1,-1,5
330632,77,-8175,22,-2,2,-1,5
330637,96,-8174,14,-2,2,0,5
330642,116,-8175,10,-2,2,0,5
330646,131,-8174,5,-1,2,0,5
330650,147,-8173,2,-1,3,0,5
330655,157,-8176,4,-1,4,0,5
330659,164,-8176,6,-1,4,0,5
330664,171,-8176,9,-1,4,0,5
330669,173,-8177,14,-1,4,0,5
330674,175,-8176,16,-1,4,0,5
330679,182,-8177,22,-1,3,0,5
330684,181,-8176,27,-1,3,0,5
330689,180,-8178,28,-1,2,0,5
330694,178,-8177,35,-1,2,0,5
330699,166,-8177,42,-1,2,0,5
330704,151,-8181,54,-1,1,0,5
330709,131,-8181,66,-1,0,0,5
330714,103,-8179,78,-1,-1,0,5
330719,76,-8179,83,-1,-2,0,5
330724,49,-8175,88,-1,-2,0,5
330729,13,-8174,94,-1,-3,0,5
330734,-20,-8176,96,-1,-3,0,5
330739,-56,-8179,102,-1,-3,0,0
330744,-89,-8181,112,-1,-3,0,0
330750,-117,-8180,135,-1,-3,0,0
330754,-154,-8181,159,-1,-3,0,0
330759,-187,-8184,182,-1,-3,0,0
330764,-208,-8184,203,-2,-3,-1,0
330770,-221,-8183,224,-2,-3,-1,0
330775,-229,-8186,242,-2,-2,-1,0
330780,-232,-8187,258,-2,-2,-1,0
330784,-229,-8187,279,-2,-2,-1,0
330790,-222,-8188,303,-2,-1,-1,0
330795,-205,-8187,324,-2,-2,-1,0
330800,-185,-8188,346,-2,-2,-1,0
330805,-162,-8189,371,-2,-2,-1,0
330810,-133,-8191,393,-2,-2,-1,0
330815,-99,-8194,409,-2,-2,-1,0
330820,-66,-8193,425,-2,-1,-1,0
330825,-30,-8190,425,-2,0,-1,0
330829,2,-8190,428,-3,0,-1,0
330834,27,-8190,427,-3,-1,-1,0
330839,45,-8189,422,-3,-2,-1,0
330844,55,-8190,417,-3,-3,-1,0
330849,55,-8189,416,-3,-4,-1,0
330854,52,-8190,411,-3,-4,-1,0
330859,43,-8190,401,-3,-4,-1,0
330864,30,-8189,388,-3,-4,-1,0
330869,13,-8187,370,-3,-4,-1,0
330874,-5,-8185,352,-3,-4,-1,0
330879,-21,-8185,328,-3,-4,-1,0
330884,-38,-8185,302,-3,-4,-1,0
330889,-54,-8182,283,-3,-4,-1,0
330894,-63,-8183,262,-3,-4,-1,0
330899,-64,-8183,233,-3,-4,-1,0
330904,-64,-8182,211,-3,-4,-1,0
330909,-55,-8180,185,-3,-4,-1,0
330914,-44,-8180,156,-3,-5,-1,0
330919,-31,-8180,128,-3,-5,-1,0
330924,-13,-8181,97,-3,-6,-1,0
330929,3,-8182,70,-3,-7,-1,0
330934,14,-8179,47,-3,-7,-1,0
330939,27,-8176,22,-3,-7,-1,0
330944,36,-8172,2,-3,-7,-1,0
330949,44,-8175,-17,-3,-7,-1,0
330955,52,-8176,-32,-3,-6,-1,0
330960,53,-8175,-43,-3,-6,0,0
330964,56,-8176,-46,-3,-5,0,0
330970,62,-8176,-48,-3,-4,0,0
330974,63,-8178,-46,-3,-3,0,0
330979,66,-8180,-47,-3,-3,0,0
330985,69,-8177,-45,-3,-2,0,0
330989,67,-8176,-44,-3,-1,0,0
330995,67,-8176,-44,-3,0,0,0
331000,66,-8175,-46,-3,1,0,0
331004,65,-8178,-45,-3,1,0,0
331009,64,-8180,-43,-3,2,0,0
331014,63,-8182,-40,-3,2,0,0
331019,60,-8183,-39,-2,2,0,0
331024,58,-8181,-38,-2,2,0,0
331029,53,-8180,-31,-2,2,0,0
331034,50,-8178,-24,-2,3,0,0
331039,52,-8176,-16,-2,3,0,0
331044,59,-8174,1,-2,3,0,0
331049,64,-8173,22,-2,3,0,0
331054,76,-8175,37,-2,2,0,0
331059,90,-8176,55,-2,2,0,0
331064,102,-8177,77,-2,2,0,0
331069,116,-8177,88,-3,1,0,0
331074,129,-8176,100,-2,0,0,0
331079,133,-8175,112,-2,-1,0,0
331084,135,-8175,123,-3,-2,0,0
331089,132,-8178,132,-3,-2,0,0
331094,121,-8182,145,-3,-3,0,0
331099,103,-8185,149,-3,-3,0,0
331104,79,-8185,163,-3,-3,0,0
331109,55,-8183,169,-3,-3,0,0
331114,33,-8184,173,-3,-3,0,0
331119,12,-8182,177,-3,-3,0,0
331124,-7,-8180,181,-3,-3,0,0
331129,-19,-8181,184,-3,-3,0,0
331134,-30,-8180,184,-3,-2,0,0
331139,-35,-8179,187,-3,-2,0,0
331144,-37,-8180,190,-3,-2,0,0
331149,-38,-8180,189,-3,-2,0,0
331154,-35,-8180,189,-3,-2,0,0
331160,-28,-8181,191,-3,-3,0,0
331164,-24,-8181,187,-3,-3,0,0
331169,-15,-8181,183,-3,-3,0,0
331174,-6,-8183,174,-3,-4,0,0
331179,4,-8183,164,-3,-5,0,0
331184,11,-8185,154,-3,-6,0,0
331189,13,-8188,142,-3,-6,0,0
331194,10,-8189,133,-3,-7,0,0
331199,7,-8186,115,-3,-7,0,0
331204,3,-8186,105,-3,-8,0,0
331209,-8,-8184,97,-3,-9,0,0
331214,-16,-8181,90,-3,-9,0,0
331219,-25,-8182,81,-3,-9,0,0
331224,-36,-8181,77,-3,-9,0,0
331229,-42,-8180,67,-3,-9,0,0
331234,-47,-8182,61,-3,-9,0,0
331239,-45,-8182,55,-3,-9,0,0
331244,-41,-8182,44,-3,-9,0,0
331249,-41,-8181,35,-3,-10,0,0
331254,-42,-8181,26,-3,-10,0,0
331258,-43,-8180,17,-3,-10,0,0
331264,-52,-8181,13,-3,-9,0,0
331268,-62,-8186,6,-3,-9,0,0
331274,-67,-8185,0,-3,-8,0,0
331279,-72,-8187,-8,-3,-7,0,0
331284,-70,-8186,-21,-3,-7,0,0
331289,-64,-8184,-27,-3,-7,0,0
331294,-54,-8182,-30,-3,-6,0,0
331299,-46,-8181,-40,-3,-6,0,0
331304,-32,-8181,-48,-3,-6,0,0
331309,-18,-8178,-51,-3,-6,0,0
331314,-4,-8177,-55,-3,-6,0,0
331319,7,-8176,-61,-3,-6,0,0
331324,5,-8176,-64,-3,-7,0,0
331329,0,-8176,-72,-3,-7,0,0
331334,-9,-8177,-79,-2,-7,0,0
331339,-20,-8178,-82,-2,-7,0,0
331344,-30,-8180,-84,-2,-7,0,0
331349,-41,-8178,-88,-2,-7,0,0
331354,-49,-8179,-92,-2,-7,0,0
331359,-51,-8180,-90,-2,-6,0,0
331363,-52,-8177,-90,-2,-5,0,0
331369,-53,-8176,-89,-2,-4,0,0
331374,-53,-8176,-92,-2,-3,0,0
331379,-51,-8175,-97,-2,-2,0,0
331383,-49,-8176,-102,-2,-1,0,0
331388,-45,-8177,-109,-2,-1,0,0
331393,-40,-8176,-115,-2,-1,0,0
331398,-33,-8175,-119,-2,-1,0,0
331403,-22,-8176,-125,-2,-1,0,0
331408,-15,-8176,-127,-2,-1,0,0
331413,-10,-8178,-136,-2,-1,0,0
331418,-8,-8178,-143,-2,-2,0,0
331423,-8,-8177,-149,-2,-3,0,0
331428,-15,-8177,-159,-2,-3,0,0
331433,-31,-8178,-162,-2,-4,0,0
331438,-53,-8178,-158,-1,-4,0,0
331443,-84,-8178,-154,-1,-4,0,0
331448,-118,-8178,-145,-1,-4,0,0
331453,-152,-8178,-128,-1,-4,0,0
331458,-181,-8175,-110,-1,-4,0,0
331463,-203,-8177,-91,-1,-3,0,0
331468,-222,-8176,-66,-1,-3,0,0
331473,-235,-8179,-44,-1,-2,0,0
331478,-240,-8180,-25,-1,-2,0,0
331483,-242,-8176,-7,-1,-1,0,0
331488,-236,-8175,13,-1,-1,0,0
331493,-226,-8175,25,-1,0,0,0
331498,-212,-8174,40,-1,0,0,0
331503,-199,-8175,52,-1,1,0,0
331508,-187,-8176,62,-1,1,0,0
331513,-178,-8178,68,-1,1,0,0
331519,-168,-8180,78,-1,2,0,0
331524,-160,-8180,87,-1,2,0,0
331529,-155,-8182,96,-1,3,0,0
331535,-147,-8185,106,-2,3,0,0
331539,-142,-8187,119,-2,3,0,0
331545,-137,-8185,129,-2,4,0,0
331549,-131,-8183,138,-2,4,0,0
331555,-128,-8184,139,-2,4,0,0
331559,-123,-8184,141,-2,4,0,0
331564,-125,-8186,138,-2,4,-1,0
331569,-128,-8188,133,-2,4,-1,0
331574,-135,-8188,127,-2,3,-1,0
331579,-142,-8189,123,-2,3,-1,0
331584,-150,-8190,122,-2,2,-1,0
331589,-157,-8190,120,-2,2,-1,0
331594,-165,-8189,121,-2,2,-1,0
331599,-173,-8189,123,-2,2,-1,0
331604,-177,-8189,122,-2,2,-1,0
331609,-178,-8187,125,-2,2,-1,0
331615,-180,-8186,132,-2,2,-1,0
331620,-181,-8186,139,-2,2,-1,0
331624,-184,-8187,146,-2,1,-1,0
331629,-183,-8188,152,-2,1,-1,0
331634,-174,-8187,156,-2,1,-1,0
331639,-163,-8186,156,-2,2,-1,0
331643,-144,-8185,156,-2,3,-1,0
331648,-123,-8185,155,-2,3,-1,0
331653,-98,-8185,153,-2,4,-1,0
331658,-71,-8181,156,-2,3,-1,0
331663,-49,-8179,156,-2,3,-1,0
331668,-31,-8177,153,-2,2,-1,0
331673,-17,-8173,147,-2,1,-1,0
331678,-10,-8173,140,-2,0,-1,0
331683,-12,-8173,140,-2,-1,-1,0
331688,-15,-8173,137,-2,-1,-1,0
331693,-17,-8175,133,-2,-1,-1,0
331698,-23,-8175,137,-2,-1,-1,0
331704,-29,-8174,142,-2,-1,-1,0
331709,-35,-8174,145,-2,0,-1,0
331714,-38,-8175,143,-2,0,-1,0
331719,-40,-8176,140,-2,0,-1,0
331724,-41,-8177,137,-2,0,-1,0
331728,-37,-8178,130,-2,0,-1,0
331733,-29,-8178,127,-2,0,-1,0
331738,-23,-8177,124,-2,0,-1,0
331743,-11,-8179,122,-2,0,-1,0
331748,3,-8181,123,-2,-1,-1,0
331754,18,-8182,127,-2,-1,-1,0
331758,30,-8183,131,-2,-1,-1,0
331763,42,-8183,130,-2,-2,-1,0
331768,51,-8183,123,-2,-2,-1,0
331773,56,-8184,118,-2,-2,-1,0
331778,58,-8184,111,-2,-3,-1,0
331783,54,-8183,98,-2,-3,-1,0
331788,50,-8181,90,-2,-4,-1,0
331793,41,-8182,82,-2,-4,-1,0
331798,30,-8183,70,-2,-4,-1,0
331803,18,-8183,65,-2,-5,-1,0
331808,8,-8181,56,-2,-5,-1,0
331813,-7,-8182,47,-2,-5,-1,0
331818,-21,-8183,40,-2,-5,-1,0
331823,-32,-8184,31,-2,-5,-1,0
331828,-42,-8179,23,-2,-4,-1,0
331833,-49,-8179,24,-2,-4,-1,0
331838,-56,-8179,18,-2,-4,-1,0
331843,-62,-8178,11,-2,-3,-1,0
331848,-64,-8179,4,-2,-3,-1,0
331853,-64,-8177,-9,-2,-2,-1,0
331858,-64,-8174,-22,-2,-2,-1,0
331863,-62,-8173,-38,-2,-2,-1,0
331868,-63,-8175,-51,-2,-1,-1,0
331874,-58,-8174,-63,-2,-1,-1,0
331879,-53,-8174,-74,-2,-1,-1,0
331885,-47,-8173,-79,-2,-1,-1,0
331890,-39,-8174,-81,-2,-1,-1,0
331895,-36,-8173,-80,-2,-1,-1,0
331900,-35,-8174,-85,-2,-1,-1,0
331905,-35,-8174,-88,-2,-1,-1,0
331911,-37,-8174,-85,-2,-1,-1,0
331916,-39,-8173,-83,-2,-1,0,0
331921,-46,-8173,-82,-2,-2,-1,0
331926,-56,-8173,-77,-2,-2,-1,0
331931,-63,-8172,-71,-2,-2,-1,0
331936,-72,-8173,-62,-2,-2,-1,0
331942,-78,-8175,-53,-2,-2,-1,0
331946,-85,-8176,-50,-2,-1,-1,0
331951,-91,-8176,-44,-2,-1,-1,0
331956,-97,-8178,-32,-2,-1,-1,0
331962,-100,-8177,-21,-2,0,-1,0
331966,-102,-8177,-11,-2,1,-1,0
331970,-106,-8175,-4,-2,2,-1,0
331975,-107,-8175,3,-2,2,-1,0
331979,-105,-8177,10,-2,2,-1,0
331983,-100,-8180,8,-2,2,-1,0
331988,-93,-8182,8,-2,2,-1,0
331993,-78,-8181,12,-2,2,-1,0
331998,-67,-8180,11,-2,2,-1,0
332003,-60,-8181,15,-2,2,-1,0
332008,-52,-8182,19,-2,1,-1,0
332013,-45,-8184,29,-2,1,-1,0
332018,-44,-8183,35,-2,0,-1,0
332023,-42,-8181,37,-2,-1,-1,0
332028,-44,-8178,48,-2,-1,-1,0
332033,-47,-8178,63,-2,-1,-1,0
332038,-50,-8177,75,-2,0,-1,0
332043,-52,-8176,88,-2,0,-1,0
332048,-56,-8178,99,-2,1,-1,0
332053,-56,-8179,109,-2,1,-1,0
332058,-55,-8182,116,-2,1,-1,0
332063,-55,-8180,122,-2,0,-1,0
332068,-49,-8179,124,-2,0,-1,0
332073,-41,-8179,126,-2,0,-1,0
332078,-36,-8176,124,-2,-1,-1,0
332083,-29,-8175,122,-2,-1,-1,0
332088,-27,-8174,118,-2,-1,-1,0
332093,-27,-8171,117,-2,-1,-1,0
332098,-29,-8171,114,-2,-1,-1,0
332104,-34,-8171,109,-2,-2,-1,0
332109,-34,-8171,107,-2,-2,-1,0
332115,-32,-8173,101,-2,-3,-1,0
332120,-30,-8176,96,-2,-3,-1,0
332125,-30,-8179,92,-2,-3,-1,0
332130,-30,-8181,90,-2,-3,-1,0
332135,-29,-8183,91,-2,-3,-1,0
332140,-29,-8184,91,-2,-2,-1,0
332145,-24,-8183,94,-2,-2,-1,0
332150,-22,-8183,92,-2,-2,-1,0
332155,-16,-8184,91,-2,-3,-1,0
332160,-9,-8184,88,-2,-3,-1,0
332165,-2,-8186,82,-2,-4,-1,0
332169,4,-8183,78,-2,-4,-1,0
332174,9,-8180,80,-2,-4,-1,0
332179,13,-8177,86,-2,-3,-1,0
332184,19,-8176,91,-2,-3,-1,0
332189,24,-8176,100,-2,-3,-1,0
332193,30,-8173,106,-2,-3,-1,0
332198,40,-8174,106,-2,-2,0,0
332203,45,-8176,106,-2,-2,0,0
332208,50,-8177,105,-2,-2,0,0
332213,53,-8176,99,-2,-2,0,0
332218,48,-8176,90,-2,-2,0,0
332223,43,-8180,81,-2,-2,0,0
332227,41,-8182,77,-2,-2,0,0
332233,36,-8181,72,-2,-2,0,0
332238,34,-8182,65,-2,-2,0,0
332242,34,-8182,55,-2,-2,0,0
332247,34,-8179,44,-2,-2,0,0
332252,38,-8178,32,-2,-1,0,0
332257,48,-8177,23,-2,-1,0,0
332262,59,-8175,16,-2,0,0,0
332268,75,-8176,8,-2,0,0,0
332273,90,-8176,6,-2,0,0,0
332277,105,-8175,10,-2,0,0,0
332283,119,-8175,8,-2,0,0,0
332288,136,-8175,11,-2,1,0,0
332292,153,-8176,15,-2,1,0,0
332297,167,-8174,15,-2,1,0,0
332302,172,-8174,13,-2,1,0,0
332307,178,-8176,10,-2,1,0,0
332312,181,-8178,8,-2,2,1,0
332317,185,-8177,1,-2,3,1,0
332322,187,-8180,0,-2,3,1,0
332327,189,-8182,-1,-2,2,1,0
332332,188,-8184,-2,-2,2,1,0
332337,185,-8186,-2,-2,2,1,0
332342,179,-8185,6,-2,2,1,0
332347,167,-8183,12,-2,2,1,0
332352,151,-8182,19,-2,1,1,0
332357,133,-8181,29,-2,1,1,0
332362,113,-8179,40,-2,0,1,0
332367,93,-8178,51,-2,-1,1,0
332372,69,-8177,59,-2,-1,1,0
332377,49,-8177,68,-2,-1,1,0
332382,31,-8176,70,-2,-1,1,0
332387,12,-8177,69,-2,-2,1,0
332392,-13,-8180,74,-2,-2,1,0
332397,-39,-8180,77,-2,-2,1,0
332403,-64,-8179,78,-2,-3,1,0
332408,-92,-8178,83,-2,-4,1,0
332412,-123,-8180,91,-2,-5,1,0
332417,-155,-8180,101,-2,-5,1,0
332422,-183,-8181,111,-2,-6,1,0
332427,-209,-8181,125,-2,-6,0,0
332432,-233,-8184,142,-2,-7,0,0
332437,-260,-8186,157,-2,-8,0,0
332442,-284,-8186,177,-2,-9,0,0
332447,-306,-8186,198,-2,-9,0,0
332452,-330,-8185,229,-2,-9,0,0
332457,-354,-8186,261,-2,-9,0,0
332462,-370,-8187,295,-2,-8,0,0
332467,-379,-8189,321,-2,-7,0,0
332472,-377,-8189,343,-2,-5,0,0
332477,-366,-8191,358,-2,-4,0,0
332482,-345,-8191,372,-2,-3,0,0
332487,-317,-8190,376,-3,-2,0,0
332492,-284,-8190,376,-3,-2,0,0
332497,-248,-8192,375,-3,-2,-1,0
332502,-216,-8194,375,-3,-3,-1,0
332507,-192,-8194,373,-3,-4,-1,0
332512,-174,-8194,366,-3,-4,-1,0
332517,-163,-8193,361,-3,-5,-1,0
332522,-155,-8193,352,-3,-6,-1,0
332527,-152,-8193,341,-3,-7,-1,0
332532,-161,-8189,334,-3,-8,-1,0
332537,-174,-8186,323,-3,-8,-1,0
332542,-187,-8185,307,-3,-8,-1,0
332547,-203,-8183,289,-3,-8,-1,0
332552,-225,-8182,267,-3,-8,-1,0
332557,-246,-8181,239,-3,-9,-1,0
332562,-263,-8183,216,-3,-9,-1,0
332567,-276,-8184,185,-3,-9,-1,0
332572,-278,-8179,154,-3,-9,-1,0
332577,-273,-8178,125,-3,-9,-1,0
332582,-256,-8177,96,-3,-8,-1,0
332587,-234,-8177,65,-3,-8,-1,0
332592,-211,-8177,36,-3,-7,-1,0
332597,-186,-8180,9,-3,-6,-1,0
332602,-162,-8182,-20,-3,-5,-1,0
332607,-139,-8180,-44,-3,-5,-1,0
332612,-117,-8179,-70,-3,-4,-1,0
332617,-94,-8177,-88,-3,-3,-1,0
332622,-72,-8175,-106,-3,-3,-1,0
332627,-54,-8174,-121,-3,-2,-1,0
332632,-39,-8174,-131,-3,-1,-1,0
332637,-25,-8173,-137,-3,0,-1,0
332642,-10,-8175,-139,-3,0,-1,0
332647,1,-8179,-137,-3,0,-1,0
332652,7,-8177,-140,-3,0,-1,0
332657,13,-8177,-148,-2,0,-1,0
332662,22,-8175,-155,-2,0,-1,0
332667,30,-8173,-166,-2,0,-1,0
332672,44,-8172,-177,-2,0,-1,0
332677,55,-8172,-188,-2,0,-1,0
332682,65,-8172,-195,-2,0,-1,0
332687,73,-8172,-201,-2,0,-1,0
332692,74,-8175,-207,-2,-1,-1,0
332697,73,-8173,-208,-2,-1,-1,0
332702,69,-8175,-208,-2,-1,-1,0
332707,62,-8173,-203,-2,-1,-1,0
332712,54,-8173,-192,-2,-1,-1,0
332717,47,-8171,-180,-2,-1,-1,0
332723,43,-8171,-170,-2,0,-1,0
332727,43,-8171,-155,-2,1,0,0
332732,47,-8167,-141,-1,1,0,0
332738,52,-8167,-122,-1,2,0,0
332743,59,-8167,-103,-1,2,0,0
332747,67,-8169,-76,-1,2,0,0
332753,74,-8167,-58,-1,2,0,0
332758,77,-8168,-38,-1,1,0,0
332763,77,-8170,-15,-1,1,0,0
332768,70,-8173,3,-1,1,0,0
332773,60,-8177,21,-1,1,0,0
332778,46,-8177,32,-1,0,0,0
332782,28,-8179,48,-1,0,0,0
332787,8,-8178,60,-1,0,0,0
332792,-10,-8177,67,-2,1,0,0
332797,-30,-8177,72,-1,1,0,0
332802,-48,-8177,79,-2,1,0,0
332807,-69,-8177,83,-2,1,0,0
332812,-82,-8174,86,-2,1,0,0
332817,-93,-8172,86,-2,1,0,0
332822,-98,-8176,84,-2,1,0,0
332827,-101,-8177,83,-2,1,0,0
332832,-101,-8176,81,-1,0,0,0
332837,-103,-8177,79,-2,0,0,0
332842,-106,-8179,81,-2,-1,0,0
332847,-107,-8181,81,-2,0,-1,0
332852,-114,-8183,87,-2,0,-1,0
332857,-117,-8183,94,-2,0,-1,0
332863,-119,-8184,98,-2,0,-1,0
332867,-124,-8186,107,-2,0,-1,0
332872,-127,-8186,116,-2,1,-1,0
332877,-129,-8186,129,-2,1,-1,0
332882,-127,-8187,140,-2,1,-1,0
332887,-119,-8189,150,-2,2,-1,0
332892,-107,-8185,163,-2,2,-1,0
332897,-95,-8184,171,-2,3,-1,0
332903,-81,-8184,179,-2,3,-1,0
332908,-65,-8185,179,-2,3,-1,0
332913,-50,-8186,173,-2,3,-1,0
332918,-40,-8186,165,-2,3,-1,0
332923,-29,-8187,156,-2,2,-1,0
332928,-23,-8187,140,-2,1,-1,0
332933,-19,-8184,126,-2,-1,-1,0
332939,-21,-8186,112,-2,-1,-1,0
332944,-30,-8187,103,-2,-2,-1,0
332949,-42,-8187,100,-2,-1,-1,0
332955,-55,-8187,94,-2,-1,-1,0
332961,-69,-8186,90,-2,0,-1,0
332966,-80,-8186,95,-2,0,-1,0
332971,-86,-8184,102,-2,0,-1,0
332976,-86,-8185,104,-2,-1,-1,0
332982,-80,-8187,106,-2,-1,-1,0
332987,-70,-8190,111,-2,-1,-1,0
332992,-58,-8192,120,-2,-2,-1,0
332998,-46,-8191,126,-2,-2,-1,0
333003,-38,-8191,132,-2,-2,-1,0
333008,-27,-8192,139,-2,-2,-1,0
333013,-20,-8192,139,-2,-2,-1,0
333019,-13,-8191,138,-2,-3,-1,0
333025,-4,-8190,135,-2,-3,-1,0
333029,5,-8186,129,-2,-3,-1,0
333034,15,-8184,123,-2,-3,-1,0
333040,20,-8182,115,-2,-3,-1,0
333045,28,-8180,105,-2,-3,-1,0
333050,36,-8178,97,-2,-4,-1,0
333055,40,-8177,86,-2,-4,0,0
333060,39,-8177,77,-2,-4,0,0
333064,36,-8177,66,-2,-4,-1,0
333069,30,-8175,54,-2,-4,0,0
333075,22,-8172,37,-2,-3,0,0
333079,8,-8172,22,-2,-3,0,0
333083,-6,-8171,9,-2,-3,0,0
333087,-19,-8169,0,-2,-2,0,0
333091,-34,-8169,-11,-2,-1,0,0
333096,-45,-8172,-20,-2,0,0,0
333100,-51,-8176,-26,-2,0,0,0
333104,-56,-8179,-29,-2,1,0,0
333108,-58,-8180,-29,-2,1,0,0
333112,-61,-8179,-30,-2,1,0,0
333117,-61,-8179,-32,-2,1,0,0
333121,-59,-8177,-34,-2,1,0,0
333126,-59,-8178,-35,-2,1,0,0
333131,-56,-8177,-33,-2,0,0,0
333136,-54,-8176,-30,-1,0,0,0
333141,-52,-8176,-27,-1,0,0,0
333146,-49,-8177,-19,-1,0,0,0
333151,-44,-8176,-10,-1,0,0,0
333156,-39,-8176,-6,-1,0,0,0
333161,-36,-8173,-6,-1,0,0,0
333166,-34,-8172,-3,-1,0,0,0
333171,-38,-8170,1,-1,0,-1,0
333176,-40,-8170,9,-1,0,-1,0
333181,-47,-8170,13,-1,-1,-1,0
333186,-61,-8173,17,-1,-2,-1,0
333191,-81,-8176,24,-1,-3,-1,0
333196,-107,-8174,33,-1,-3,-1,0
333202,-135,-8176,43,-1,-4,-1,0
333207,-166,-8176,58,-1,-4,-1,0
333212,-196,-8179,66,-1,-4,-1,0
333218,-223,-8181,77,-1,-4,-1,0
333223,-248,-8183,87,-1,-3,-1,0
333228,-267,-8187,94,-1,-2,-1,0
333234,-277,-8186,101,-1,-1,-1,0
333239,-278,-8186,110,-1,0,-1,0
333244,-271,-8189,119,-1,0,-1,0
333248,-253,-8189,136,-1,2,-1,0
333252,-224,-8188,149,-1,2,-1,0
333256,-191,-8187,160,-1,3,-1,0
333262,-157,-8187,163,-1,3,-1,0
333266,-123,-8189,165,-1,4,-1,0
333272,-95,-8186,168,-1,4,-1,0
333277,-67,-8186,171,-2,5,-1,0
333282,-39,-8185,171,-2,5,-1,0
333287,-14,-8186,178,-2,5,-1,0
333292,6,-8186,177,-2,4,-1,0
333297,20,-8187,177,-2,2,-1,0
333302,25,-8188,182,-2,1,-1,0
333306,26,-8186,181,-2,2,-1,0
333312,25,-8185,176,-2,2,-1,0
333316,26,-8186,167,-2,4,-1,0
333321,15,-8186,162,-2,5,-1,0
333327,7,-8185,156,-2,6,-1,0
333332,1,-8183,147,-2,7,-1,0
333337,-5,-8183,148,-2,5,-1,0
333343,-23,-8184,134,-2,4,-1,0
333347,-45,-8183,117,-2,3,-1,0
333352,-67,-8178,106,-2,3,-1,0
333358,-90,-8179,97,-2,3,-1,0
333364,-113,-8179,92,-2,3,-1,0
333369,-126,-8176,95,-2,3,-1,0
333374,-133,-8176,101,-2,3,-1,0
333380,-131,-8176,110,-2,3,-1,0
333385,-118,-8177,106,-2,3,-1,0
333390,-97,-8173,98,-2,3,-1,0
333395,-75,-8173,90,-2,4,-1,0
333400,-49,-8172,75,-2,5,-1,0
333406,-17,-8171,69,-2,5,-1,0
333411,16,-8170,67,-2,6,-1,0
333415,51,-8171,73,-2,6,-1,0
333419,86,-8171,81,-2,5,-1,0
333423,122,-8170,90,-2,5,-1,0
333427,150,-8171,102,-2,4,-1,0
333431,174,-8171,108,-2,4,-1,0
333436,191,-8175,109,-2,3,-1,0
333441,197,-8177,111,-2,3,-1,0
333446,198,-8179,110,-2,2,-1,0
333451,193,-8178,112,-2,1,-1,0
333456,180,-8178,119,-2,1,-1,0
333461,160,-8178,129,-2,0,-1,0
333466,134,-8181,143,-2,0,0,0
333471,114,-8180,153,-2,0,0,0
333476,95,-8180,165,-2,0,0,0
333481,75,-8179,171,-2,0,0,0
333486,58,-8180,177,-2,1,0,0
333491,43,-8180,177,-2,2,0,0
333496,34,-8179,178,-2,2,0,0
333501,33,-8180,180,-2,3,0,0
333506,33,-8179,185,-2,3,0,0
333511,37,-8179,189,-2,3,0,0
333516,46,-8179,188,-2,3,0,0
333521,56,-8179,182,-2,2,0,0
333526,71,-8180,177,-2,1,0,0
333531,80,-8179,168,-2,0,0,0
333536,86,-8179,160,-2,-1,0,0
333542,87,-8177,151,-2,-2,0,0
333546,86,-8175,148,-2,-3,0,0
333551,84,-8174,150,-2,-4,0,0
333556,79,-8176,155,-2,-4,0,0
333561,66,-8177,162,-2,-5,0,0
333566,49,-8179,173,-2,-5,0,0
333571,30,-8178,180,-2,-5,0,0
333576,13,-8177,183,-2,-5,0,0
333581,-6,-8177,187,-2,-5,0,0
333587,-22,-8177,188,-2,-5,0,0
333592,-34,-8178,190,-2,-5,0,0
333597,-42,-8180,194,-2,-4,0,0
333602,-44,-8180,200,-2,-4,0,0
333607,-49,-8179,204,-2,-3,0,0
333613,-43,-8176,202,-2,-3,0,0
333618,-35,-8176,197,-2,-3,0,0
333624,-26,-8177,188,-2,-3,0,0
333628,-17,-8175,176,-2,-3,0,0
333634,-9,-8177,165,-2,-4,0,0
333639,-4,-8179,154,-2,-4,0,0
333644,-5,-8180,145,-2,-4,0,0
333648,-12,-8179,133,-2,-4,0,0
333654,-19,-8182,119,-2,-4,0,0
333659,-29,-8182,112,-2,-3,0,0
333664,-40,-8181,100,-2,-3,0,0
333669,-49,-8183,90,-2,-3,0,0
333674,-58,-8184,82,-2,-2,0,0
333680,-64,-8182,76,-2,-2,0,0
333684,-68,-8182,75,-2,-1,0,0
333688,-72,-8181,72,-2,-1,0,0
333692,-73,-8183,72,-2,-1,0,0
333696,-73,-8182,73,-2,0,0,0
333701,-73,-8180,73,-2,0,0,0
333706,-71,-8179,77,-2,0,0,0
333711,-61,-8177,82,-2,1,0,0
333716,-49,-8175,86,-2,1,0,0
333721,-41,-8175,85,-2,1,0,0
333726,-31,-8176,82,-2,1,0,0
333731,-25,-8176,76,-2,1,0,0
333736,-18,-8177,72,-2,1,0,0
333741,-10,-8179,69,-2,1,0,0
333746,-4,-8180,68,-2,1,0,0
333751,1,-8179,65,-2,0,0,0
333756,5,-8179,62,-2,0,0,0
333761,5,-8180,64,-2,0,0,0
333766,2,-8181,63,-2,0,0,0
333771,-1,-8180,66,-2,0,0,0
333776,-5,-8179,70,-2,0,0,0
333781,-7,-8178,79,-2,0,0,0
333786,-8,-8177,84,-2,0,0,0
333791,-9,-8177,90,-2,0,0,0
333796,-7,-8176,96,-2,0,0,0
333801,-5,-8177,101,-2,0,0,0
333806,4,-8178,103,-2,0,0,0
333811,11,-8178,107,-2,0,0,0
333816,16,-8180,110,-2,-1,0,0
333821,18,-8180,105,-2,-1,0,0
333826,16,-8183,103,-2,-1,0,0
333831,13,-8185,104,-2,-1,0,0
333836,9,-8184,105,-2,-1,0,0
333841,4,-8181,107,-2,-1,0,0
333846,0,-8178,108,-2,-1,0,0
333851,-4,-8177,106,-2,-2,0,0
333856,-8,-8178,103,-2,-2,0,0
333861,-9,-8176,105,-2,-1,0,0
333866,-9,-8177,104,-2,-1,0,0
333871,-3,-8180,110,-2,-1,0,0
333876,6,-8180,119,-2,-1,0,0
333881,15,-8179,131,-2,-2,0,0
333886,28,-8179,140,-2,-2,0,0
333891,47,-8181,146,-2,-3,0,0
333896,70,-8184,150,-2,-4,0,0
333901,88,-8184,149,-2,-5,0,0
333906,105,-8182,145,-2,-5,0,0
333911,115,-8181,148,-2,-5,0,0
333916,119,-8181,150,-2,-5,0,0
333921,113,-8180,144,-2,-5,0,0
333926,100,-8180,143,-2,-5,0,0
333931,82,-8179,139,-2,-5,0,0
333936,62,-8180,129,-2,-4,0,5
333941,45,-8179,123,-2,-3,0,5
333946,32,-8177,118,-2,-2,0,5
333950,23,-8175,111,-2,-1,0,5
333956,17,-8176,108,-2,0,0,5
333961,13,-8175,104,-2,1,0,5
333965,9,-8174,101,-2,1,0,5
333970,8,-8173,101,-2,1,0,5
333976,10,-8175,106,-2,1,0,5
333981,12,-8179,111,-2,2,0,5
333986,17,-8180,113,-2,2,0,5
333991,24,-8181,114,-2,1,0,5
333996,29,-8182,115,-2,0,0,5
334001,29,-8181,115,-2,-1,0,5
334006,23,-8181,119,-2,-2,0,5
334011,12,-8179,125,-2,-3,0,5
334015,-6,-8178,127,-2,-3,0,5
334020,-26,-8178,130,-2,-3,0,5
334025,-50,-8180,131,-2,-4,0,5
334030,-76,-8181,132,-2,-4,0,5
334036,-109,-8183,131,-2,-4,0,5
334041,-141,-8183,133,-2,-5,0,5
334046,-175,-8181,143,-2,-4,0,5
334050,-208,-8181,155,-2,-4,0,5
334055,-237,-8181,169,-2,-3,0,5
334060,-260,-8183,186,-2,-2,0,5
334065,-276,-8182,202,-2,-2,0,5
334070,-287,-8185,219,-2,-1,0,5
334076,-293,-8184,233,-2,-1,0,5
334081,-291,-8184,245,-2,-1,0,5
334086,-286,-8187,255,-2,-2,0,5
334090,-279,-8187,268,-2,-2,-1,5
334095,-271,-8190,280,-2,-2,-1,5
334100,-263,-8188,291,-2,-2,-1,5
334106,-253,-8188,299,-2,-2,-1,5
334110,-241,-8188,305,-3,-1,-1,5
334115,-232,-8184,308,-3,-1,-1,5
334121,-221,-8184,303,-3,-1,-1,5
334126,-214,-8184,299,-3,-1,-1,5
334130,-204,-8185,288,-3,-1,-1,5
334135,-193,-8186,280,-3,-2,-1,5
334140,-181,-8186,266,-3,-1,-1,5
334146,-166,-8185,250,-3,-1,-1,5
334150,-145,-8185,240,-3,-2,-1,5
334155,-122,-8184,236,-3,-2,-1,5
334160,-98,-8181,220,-3,-3,-1,5
334165,-78,-8180,219,-3,-4,-1,5
334170,-67,-8178,219,-3,-5,-1,5
334175,-56,-8176,212,-3,-6,-1,5
334180,-57,-8175,210,-3,-6,-1,5
334185,-60,-8173,202,-3,-7,-1,5
334190,-67,-8171,196,-3,-8,-1,5
334196,-74,-8171,187,-3,-9,-1,5
334200,-86,-8171,168,-3,-9,-1,5
334205,-95,-8172,152,-3,-9,-1,5
334210,-105,-8170,128,-3,-8,-1,5
334215,-111,-8172,104,-3,-8,-1,5
334220,-118,-8171,76,-3,-7,-1,5
334225,-121,-8171,39,-3,-7,-1,5
334230,-119,-8172,-4,-3,-6,-1,5
334235,-114,-8174,-46,-2,-6,-1,5
334240,-103,-8173,-89,-2,-6,-1,5
334245,-93,-8171,-125,-2,-5,-1,5
334250,-82,-8167,-157,-2,-5,-1,5
334255,-67,-8164,-181,-2,-4,-1,5
334260,-48,-8161,-193,-2,-3,-1,5
334265,-31,-8163,-201,-2,-2,-1,5
334270,-14,-8165,-202,-2,-1,-1,5
334275,2,-8164,-200,-2,-1,-1,5
334280,17,-8163,-197,-2,0,-1,5
334285,30,-8163,-193,-2,0,-1,5
334290,43,-8166,-180,-2,1,-1,5
334295,52,-8170,-166,-2,1,-1,5
334300,58,-8171,-151,-2,1,-1,5
334305,61,-8171,-136,-1,2,-1,5
334310,64,-8172,-119,-1,3,-1,5
334315,66,-8175,-106,-1,3,-1,5
334320,69,-8175,-104,-1,4,-1,5
334325,76,-8174,-105,-1,5,-1,5
334330,81,-8176,-112,-1,5,-1,5
334335,85,-8174,-121,-1,6,-1,5
334340,90,-8174,-124,-1,6,-1,5
334345,89,-8173,-122,-1,6,-1,5
334350,88,-8174,-117,-1,6,-1,5
334355,79,-8174,-115,-1,7,-1,5
334360,65,-8173,-110,-1,7,0,5
334365,49,-8174,-103,-1,7,0,5
334370,31,-8174,-93,-1,8,0,5
334375,13,-8174,-82,-1,8,0,5
334380,-5,-8175,-69,-1,9,0,5
334385,-23,-8175,-46,-1,10,0,5
334390,-37,-8174,-19,-1,12,0,5
334395,-50,-8173,9,-1,13,0,5
334400,-62,-8174,41,-1,14,0,5
334405,-76,-8175,74,-1,16,0,5
334410,-97,-8176,104,-1,18,0,5
334415,-121,-8177,132,-1,21,0,5
334420,-140,-8179,155,-1,24,0,5
334425,-159,-8180,168,-1,27,0,5
334430,-191,-8183,183,-1,29,0,5
334435,-234,-8181,200,-1,34,0,5
334440,-275,-8180,215,-1,40,0,5
334445,-322,-8181,230,-1,47,0,5
334450,-363,-8177,249,-2,54,0,5
334455,-323,-8175,254,-2,57,0,5
334460,-277,-8175,255,-1,55,0,5
334465,-264,-8180,255,-2,54,0,5
334470,-242,-8184,237,-2,58,0,5
334475,-249,-8187,254,-2,68,0,5
334480,-276,-8186,292,-2,78,0,5
334485,-314,-8183,342,-3,87,0,5
334490,-369,-8183,398,-3,93,0,5
334495,-408,-8184,436,-3,96,0,5
334500,-439,-8184,456,-3,98,0,5
334505,-456,-8184,465,-3,101,1,5
334510,-451,-8186,463,-3,104,0,5
334515,-444,-8188,470,-3,109,0,5
334520,-444,-8187,485,-3,113,0,5
334525,-447,-8190,510,-4,117,0,5
334530,-471,-8194,526,-4,120,0,5
334535,-533,-8196,481,-3,126,0,5
334540,-571,-8200,473,-3,131,0,5
334545,-587,-8195,397,-3,132,-1,5
334550,-604,-8192,302,-4,130,-1,5
334555,-592,-8191,259,-3,128,-1,5
334560,-568,-8188,144,-3,126,-1,5
334565,-513,-8190,86,-3,121,-1,5
334570,-445,-8189,1,-3,116,-1,5
334575,-345,-8189,-63,-3,109,-1,5
334580,-220,-8186,-84,-3,102,-1,5
334586,-77,-8183,-105,-3,94,-1,5
334591,100,-8182,-91,-3,84,-1,5
334596,287,-8178,-79,-2,71,-1,5
334601,482,-8174,-61,-2,53,-1,5
334606,694,-8167,-51,-1,28,-1,5
334610,925,-8161,-72,-1,-5,-2,5
334615,1200,-8156,-112,0,-45,-2,5
334620,1607,-8147,-180,0,-93,-2,5
334625,2004,-8140,-234,1,-147,-1,5
334630,2346,-8137,-164,2,-208,0,5
334635,2704,-8138,-66,2,-275,-1,5
334640,3058,-8147,137,2,-346,-1,5
334645,3445,-8129,446,2,-423,0,5
334650,4007,-8104,767,2,-506,-1,5
334655,4608,-8044,1202,4,-599,-2,5
334660,5229,-8013,1661,6,-710,-3,5
334665,5883,-8026,2086,9,-839,-5,5
334670,6442,-8051,2597,11,-976,-6,5
334675,6892,-8049,3163,13,-1101,-7,5
334680,7277,-8037,3839,14,-1223,-9,5
334685,7680,-8032,4713,16,-1347,-10,5
334690,7718,-8011,5787,19,-1431,-13,5
334695,7493,-8037,7039,21,-1431,-17,5
334700,7008,-8056,8373,23,-1431,-21,5
334705,6133,-8116,9517,23,-1431,-24,5
334710,4918,-8176,10498,23,-1431,-25,5
334715,3639,-8238,11338,22,-1415,-26,5
334720,2494,-8253,11789,22,-1275,-25,5
334725,1462,-8251,11488,20,-1131,-21,5
334730,770,-8233,10721,15,-987,-17,5
334734,272,-8264,9792,11,-842,-13,5
334739,-247,-8264,8877,8,-689,-11,5
334744,-922,-8255,8225,6,-536,-11,5
334750,-1481,-8246,7388,5,-391,-11,5
334755,-1772,-8229,6217,6,-267,-9,5
334760,-1839,-8216,5030,8,-170,-6,5
334765,-1846,-8203,3975,10,-87,-4,5
334769,-1915,-8239,3090,8,-10,1,5
334775,-2000,-8266,2338,4,46,2,5
334780,-1937,-8242,1565,0,81,-1,5
334785,-1594,-8244,949,-2,105,-2,5
334790,-1182,-8256,414,-3,124,-1,5
334795,-1097,-8242,-61,-4,134,3,5
334800,-1072,-8217,-192,-5,139,4,5
334805,-875,-8202,-113,-6,149,2,5
334809,-557,-8212,167,-7,172,2,5
334814,-450,-8207,353,-8,199,4,5
334820,-328,-8201,490,-9,224,5,5
334825,-198,-8199,636,-10,251,5,5
334830,-184,-8193,748,-9,278,6,5
334835,-120,-8186,835,-9,304,6,5
334840,-80,-8182,933,-9,334,6,5
334844,-123,-8177,966,-9,366,6,5
334850,-118,-8178,984,-9,398,6,5
334854,-171,-8183,952,-10,434,6,5
334860,-280,-8180,886,-11,470,6,5
334865,-360,-8186,868,-12,508,7,5
334869,-461,-8188,862,-13,552,7,5
334875,-600,-8187,935,-14,603,8,5
334880,-703,-8193,1135,-15,663,8,5
334884,-791,-8196,1390,-16,732,9,5
334889,-878,-8196,1732,-17,806,10,5
334894,-933,-8198,2155,-19,880,10,5
334899,-983,-8208,2584,-20,954,10,5
