millis,ax,ay,az,gx,gy,gz,label
2827678,95,-8273,-118,-1,0,0,0
2827683,92,-8273,-119,-1,0,0,0
2827688,89,-8272,-118,-1,0,0,0
2827693,88,-8272,-116,-1,0,0,0
2827698,90,-8271,-118,-1,0,0,0
2827703,92,-8270,-121,-1,0,0,0
2827708,97,-8271,-124,-1,1,0,0
2827713,102,-8270,-130,-1,0,0,0
2827718,105,-8271,-137,-1,0,0,0
2827723,103,-8270,-139,-1,0,0,0
2827728,100,-8269,-138,-1,0,0,0
2827733,95,-8270,-135,-1,0,0,0
2827738,87,-8271,-131,-1,0,0,0
2827743,79,-8273,-125,-1,0,0,0
2827748,72,-8274,-118,-1,0,0,0
2827753,65,-8273,-113,-1,0,0,0
2827758,61,-8274,-111,-1,0,0,0
2827763,58,-8276,-108,-1,0,0,0
2827768,52,-8278,-108,-1,0,0,0
2827773,42,-8278,-111,-1,0,0,0
2827778,33,-8276,-109,-1,0,0,0
2827783,25,-8276,-108,-1,0,0,0
2827788,19,-8276,-105,-1,0,0,0
2827793,10,-8277,-106,-1,0,0,0
2827798,4,-8278,-102,-1,0,0,0
2827803,4,-8278,-101,-1,0,0,0
2827808,5,-8275,-100,-1,0,0,0
2827813,6,-8276,-93,-1,0,0,0
2827818,9,-8278,-83,-1,0,0,0
2827823,12,-8278,-72,-1,0,0,0
2827828,14,-8280,-60,-1,0,0,0
2827833,12,-8278,-46,-1,0,0,0
2827838,9,-8278,-33,-1,0,0,0
2827843,3,-8275,-30,-1,0,-1,0
2827848,-1,-8275,-30,-1,0,-1,0
2827853,-6,-8277,-32,-1,0,-1,0
2827858,-7,-8273,-37,-1,0,0,0
2827863,-4,-8273,-41,-1,1,-1,0
2827868,0,-8274,-51,-1,1,0,0
2827873,10,-8277,-54,-1,1,-1,0
2827878,22,-8278,-57,-1,1,-1,0
2827883,35,-8280,-59,-1,1,-1,0
2827888,46,-8277,-65,-1,1,-1,0
2827893,55,-8277,-69,-1,1,-1,0
2827898,63,-8275,-77,-1,1,-1,0
2827903,71,-8273,-78,-1,1,-1,0
2827908,78,-8270,-86,-1,1,-1,0
2827913,86,-8268,-92,-1,1,-1,0
2827918,90,-8267,-100,-1,1,-1,0
2827923,93,-8266,-110,-1,1,0,0
2827928,94,-8263,-120,-1,1,0,0
2827933,96,-8261,-134,-1,1,0,0
2827938,100,-8261,-146,-1,0,0,0
2827943,100,-8263,-160,-1,0,0,0
2827948,100,-8266,-176,-1,0,0,0
2827953,100,-8269,-187,-1,0,0,0
2827958,102,-8271,-196,-1,0,0,0
2827963,103,-8270,-206,-1,0,0,0
2827968,103,-8270,-218,-1,0,0,0
2827973,103,-8274,-230,-1,0,0,0
2827978,103,-8274,-237,-1,-1,0,0
2827983,103,-8274,-243,-1,-1,0,0
2827988,104,-8272,-246,-1,-1,0,0
2827993,103,-8272,-246,-1,-1,0,0
2827998,105,-8270,-237,-1,-1,0,0
2828003,110,-8267,-234,-1,-1,0,0
2828008,113,-8265,-225,-1,-1,0,0
2828013,113,-8265,-219,-1,-1,0,0
2828018,111,-8265,-210,-1,0,0,0
2828023,106,-8264,-203,-1,0,0,0
2828028,102,-8267,-192,-1,0,0,0
2828033,101,-8267,-191,-1,0,0,0
2828038,98,-8269,-192,-1,0,0,0
2828043,97,-8271,-199,-1,0,0,0
2828048,101,-8272,-212,-1,0,0,0
2828053,108,-8274,-225,0,0,0,0
2828058,112,-8273,-236,0,0,0,0
2828063,112,-8273,-244,0,0,0,0
2828068,111,-8272,-251,0,0,0,0
2828073,108,-8271,-256,0,-1,0,0
2828078,106,-8273,-258,0,-1,0,0
2828083,101,-8275,-255,0,-1,0,0
2828088,93,-8275,-253,0,-1,0,0
2828093,87,-8274,-250,0,-1,0,0
2828098,82,-8273,-244,0,-1,0,0
2828103,76,-8272,-246,0,-1,0,0
2828108,70,-8272,-244,0,-1,0,0
2828113,64,-8271,-237,0,-2,0,0
2828118,59,-8271,-231,0,-2,0,0
2828123,50,-8272,-226,0,-2,0,0
2828128,41,-8273,-220,0,-2,0,0
2828133,34,-8271,-209,0,-2,0,0
2828138,29,-8273,-204,0,-2,0,0
2828143,26,-8272,-197,0,-2,0,0
2828148,22,-8271,-193,0,-1,0,0
2828153,17,-8273,-194,0,-1,0,0
2828158,13,-8273,-196,0,-1,0,0
2828163,11,-8271,-200,0,-1,0,0
2828168,9,-8269,-204,0,-1,0,0
2828173,4,-8270,-210,0,-1,0,0
2828178,5,-8271,-212,0,-1,0,0
2828183,2,-8270,-217,0,-1,0,0
2828188,0,-8270,-225,0,-1,0,0
2828193,-6,-8270,-226,0,-1,0,0
2828198,-13,-8270,-222,0,-1,0,0
2828203,-18,-8268,-217,0,-2,0,0
2828208,-22,-8269,-209,0,-2,0,0
2828213,-24,-8268,-201,0,-2,0,0
2828218,-23,-8269,-196,0,-2,0,0
2828223,-21,-8270,-186,0,-2,0,0
2828228,-14,-8269,-176,0,-3,0,0
2828233,-7,-8271,-160,0,-3,0,0
2828238,0,-8273,-150,0,-3,-1,0
2828243,6,-8273,-138,0,-3,0,0
2828248,11,-8275,-130,0,-3,-1,0
2828253,14,-8277,-126,0,-3,-1,0
2828258,16,-8276,-126,0,-4,-1,0
2828263,15,-8274,-126,0,-4,-1,0
2828268,14,-8275,-125,0,-4,-1,0
2828273,11,-8274,-126,0,-4,-1,0
2828278,8,-8275,-128,0,-4,-1,0
2828283,0,-8273,-117,0,-4,-1,0
2828288,-7,-8271,-102,0,-4,-1,0
2828293,-15,-8270,-86,0,-5,-1,0
2828298,-25,-8271,-69,0,-5,-1,0
2828303,-33,-8271,-46,0,-5,-1,0
2828308,-41,-8272,-36,0,-4,-1,0
2828313,-47,-8270,-23,0,-4,-1,0
2828318,-51,-8270,-8,0,-4,-1,0
2828323,-54,-8270,3,0,-4,-1,0
2828328,-59,-8272,16,0,-3,-1,0
2828333,-66,-8275,20,0,-3,-1,0
2828338,-76,-8276,29,0,-3,-1,0
2828343,-87,-8275,28,0,-2,-1,0
2828348,-97,-8272,34,0,-2,-1,0
2828353,-110,-8271,29,0,-2,-1,0
2828358,-122,-8269,21,0,-1,-1,0
2828363,-130,-8267,14,0,-1,-1,0
2828368,-133,-8267,11,0,-1,-1,0
2828373,-132,-8266,-1,-1,0,-1,0
2828378,-129,-8268,-11,-1,0,-1,0
2828383,-121,-8270,-18,-1,0,-1,0
2828388,-112,-8272,-24,-1,0,-2,0
2828393,-107,-8273,-29,-1,0,-2,0
2828398,-103,-8272,-38,-1,0,-2,0
2828403,-102,-8274,-46,-1,0,-2,0
2828408,-102,-8274,-57,-1,0,-2,0
2828413,-102,-8276,-73,0,0,-2,0
2828418,-102,-8278,-93,0,0,-2,0
2828423,-100,-8281,-111,0,0,-2,0
2828428,-93,-8280,-127,0,0,-2,0
2828433,-89,-8276,-144,0,0,-2,0
2828438,-81,-8274,-154,0,0,-2,0
2828443,-75,-8274,-162,0,0,-2,0
2828448,-69,-8271,-164,0,0,-2,0
2828453,-58,-8270,-171,0,0,-2,0
2828458,-51,-8270,-177,0,-1,-2,0
2828463,-43,-8270,-188,0,-1,-2,0
2828468,-37,-8272,-205,0,-1,-2,0
2828473,-27,-8273,-221,0,-1,-2,0
2828478,-16,-8273,-236,0,-1,-2,0
2828483,-3,-8271,-248,0,-1,-2,0
2828488,17,-8268,-262,0,-1,-2,0
2828493,40,-8268,-275,0,-1,-2,0
2828498,67,-8271,-285,0,-2,-2,0
2828503,93,-8276,-291,0,-2,-2,0
2828508,123,-8276,-292,0,-2,-2,0
2828513,153,-8276,-294,0,-3,-2,0
2828518,181,-8274,-288,0,-3,-2,0
2828523,209,-8271,-276,1,-4,-2,0
2828528,233,-8269,-267,1,-5,-2,0
2828533,254,-8266,-250,1,-5,-2,0
2828538,269,-8265,-232,1,-6,-2,0
2828543,276,-8265,-212,1,-7,-2,0
2828548,275,-8265,-202,1,-7,-2,0
2828553,267,-8265,-186,1,-8,-2,0
2828558,258,-8266,-172,1,-8,-1,0
2828563,249,-8267,-159,1,-8,-1,0
2828568,241,-8266,-145,1,-8,-1,0
2828573,238,-8265,-129,1,-7,-1,0
2828578,240,-8266,-106,1,-6,-1,0
2828583,246,-8267,-84,1,-5,-1,0
2828588,254,-8267,-61,1,-5,-1,0
2828593,265,-8267,-41,1,-4,-1,0
2828598,273,-8266,-30,1,-4,-1,0
2828603,280,-8268,-26,1,-4,-1,0
2828608,284,-8266,-24,1,-4,-1,0
2828613,288,-8264,-33,1,-4,-1,0
2828618,284,-8263,-38,1,-4,-1,0
2828623,274,-8267,-48,1,-4,-1,0
2828628,263,-8270,-54,1,-4,-1,0
2828633,249,-8267,-53,0,-4,-1,0
2828638,236,-8266,-46,0,-3,-1,0
2828643,223,-8264,-41,0,-3,-1,0
2828648,213,-8266,-39,0,-3,-1,0
2828653,207,-8269,-45,0,-3,0,0
2828658,205,-8271,-51,1,-3,0,0
2828663,208,-8272,-58,1,-3,0,0
2828668,214,-8273,-67,1,-3,0,0
2828673,219,-8273,-79,1,-3,0,0
2828678,221,-8276,-84,1,-4,0,0
2828683,211,-8276,-84,1,-4,0,0
2828688,193,-8272,-80,0,-5,-1,0
2828693,167,-8270,-67,1,-5,0,0
2828698,137,-8270,-57,1,-5,-1,0
2828703,108,-8270,-38,1,-5,0,0
2828708,80,-8269,-14,1,-5,0,0
2828713,55,-8270,6,1,-5,-1,0
2828718,37,-8270,23,1,-4,-1,0
2828723,23,-8270,35,0,-4,-1,0
2828728,13,-8271,43,0,-4,-1,0
2828733,4,-8275,46,0,-4,-1,0
2828738,-3,-8278,48,0,-4,-1,0
2828743,-12,-8281,50,0,-3,-1,0
2828748,-27,-8282,50,0,-3,-1,0
2828753,-38,-8283,54,0,-3,-1,0
2828758,-48,-8283,57,0,-3,-1,0
2828763,-58,-8283,51,0,-3,-1,0
2828768,-60,-8283,50,0,-3,-1,0
2828773,-62,-8282,45,0,-3,-1,0
2828778,-57,-8282,43,0,-2,-1,0
2828783,-46,-8283,42,0,-2,-1,0
2828788,-33,-8281,46,0,-2,-1,0
2828793,-19,-8280,59,0,-2,-1,0
2828798,-9,-8278,69,0,-2,-1,0
2828803,-2,-8277,88,0,-2,-1,0
2828808,2,-8278,101,0,-2,-1,0
2828813,1,-8278,113,0,-3,-1,0
2828818,-3,-8278,114,0,-3,-1,0
2828823,-4,-8280,116,0,-2,-1,0
2828828,-2,-8282,114,0,-2,-1,0
2828833,7,-8283,113,0,-2,-1,0
2828838,22,-8285,113,0,-1,-1,0
2828843,42,-8286,105,0,-1,-1,0
2828848,65,-8283,108,0,-1,-1,0
2828853,89,-8283,102,-1,-1,-1,0
2828858,110,-8283,95,-1,-1,-1,0
2828863,133,-8284,91,-1,-1,-1,0
2828868,151,-8284,93,-1,-1,-1,0
2828873,163,-8285,90,-1,-1,-1,0
2828878,174,-8284,93,-1,-1,-1,0
2828883,184,-8283,99,-1,-1,-1,0
2828888,192,-8282,99,-1,-1,-1,0
2828893,200,-8282,100,-1,-1,-1,0
2828898,210,-8283,99,-1,-1,-1,0
2828903,217,-8286,91,-1,-1,-1,0
2828908,228,-8283,87,-1,0,-1,0
2828913,245,-8281,79,-1,0,-1,0
2828918,265,-8281,75,-1,0,-1,0
2828923,282,-8281,65,-1,0,-1,0
2828928,297,-8280,61,-1,0,-1,0
2828933,307,-8279,57,-1,0,-1,0
2828938,311,-8280,51,-1,0,-1,0
2828943,314,-8279,42,-1,0,-1,0
2828948,319,-8277,27,-1,0,0,0
2828953,321,-8279,7,-1,0,0,0
2828958,322,-8279,-15,-1,0,0,0
2828963,324,-8279,-36,-1,0,0,0
2828968,324,-8278,-53,-1,0,0,0
2828973,326,-8277,-67,-1,0,0,0
2828978,329,-8276,-82,-1,0,0,0
2828983,330,-8277,-88,-1,0,0,0
2828988,330,-8276,-90,-1,0,0,0
2828993,328,-8272,-90,-1,-1,0,0
2828998,326,-8271,-96,-1,-1,0,0
2829003,318,-8275,-110,-1,-1,0,0
2829008,307,-8278,-128,-1,-1,0,0
2829013,297,-8278,-140,-1,0,0,0
2829018,286,-8278,-150,-1,-1,0,0
2829023,271,-8275,-165,0,-1,0,0
2829028,260,-8274,-173,0,-1,0,0
2829033,245,-8274,-171,0,-1,0,0
2829038,230,-8272,-166,0,-1,0,0
2829043,214,-8272,-166,0,-1,0,0
2829048,201,-8272,-162,0,-1,0,0
2829053,187,-8272,-158,0,-1,0,0
2829058,173,-8275,-158,0,-1,0,0
2829063,158,-8276,-158,0,-1,0,0
2829068,144,-8280,-149,0,-1,0,0
2829073,127,-8280,-141,0,-1,0,0
2829078,113,-8281,-130,0,-1,0,0
2829083,101,-8282,-121,0,-1,0,0
2829088,87,-8279,-107,0,-1,0,0
2829093,81,-8276,-93,0,-1,0,0
2829098,72,-8278,-82,0,-1,0,0
2829103,61,-8280,-75,0,-1,0,0
2829108,50,-8279,-66,0,-1,0,0
2829113,39,-8279,-52,0,-1,0,0
2829118,31,-8280,-42,0,-1,0,0
2829123,22,-8275,-30,0,-1,0,0
2829128,13,-8275,-22,0,-1,0,0
2829133,6,-8276,-9,0,-1,0,0
2829138,2,-8275,-1,0,-1,0,0
2829143,2,-8276,5,0,-1,0,0
2829148,5,-8277,8,0,-1,0,0
2829153,3,-8279,15,0,-1,0,0
2829158,3,-8277,24,0,-1,0,0
2829163,7,-8277,36,0,0,0,0
2829168,11,-8276,47,0,-1,0,0
2829173,18,-8274,61,0,-1,0,0
2829178,21,-8273,73,0,-1,0,0
2829183,21,-8271,88,0,-1,0,0
2829188,24,-8273,101,-1,-1,0,0
2829193,28,-8272,116,-1,-1,0,0
2829198,29,-8272,125,-1,-1,0,0
2829203,27,-8272,136,-1,-1,0,0
2829208,30,-8271,142,-1,-1,0,0
2829213,31,-8271,145,-1,-1,0,0
2829218,36,-8271,149,-1,-1,0,0
2829223,41,-8271,153,-1,0,0,0
2829228,44,-8275,156,-1,0,0,0
2829233,47,-8276,157,-1,0,0,0
2829238,49,-8275,152,-1,0,0,0
2829243,51,-8273,155,-1,0,0,0
2829248,50,-8273,151,-1,0,0,0
2829253,51,-8274,147,-1,0,-1,0
2829258,55,-8275,143,-1,0,-1,0
2829263,56,-8276,135,-1,0,0,0
2829268,60,-8275,137,-1,0,0,0
2829273,62,-8274,135,-1,0,0,0
2829278,66,-8274,135,-1,0,0,0
2829283,71,-8273,129,-1,0,0,0
2829288,80,-8274,119,-1,0,-1,0
2829293,88,-8274,104,-1,0,0,0
2829298,92,-8275,93,-2,0,0,0
2829303,92,-8277,74,-2,0,-1,0
2829308,90,-8277,49,-1,0,-1,0
2829313,83,-8278,24,-1,0,-1,0
2829318,73,-8280,1,-1,0,-1,0
2829323,69,-8278,-20,-1,0,-1,0
2829328,62,-8275,-40,-1,1,0,0
2829333,58,-8272,-60,-1,1,0,0
2829338,55,-8273,-81,-1,1,-1,0
2829343,55,-8274,-94,-1,1,0,0
2829348,55,-8273,-103,-1,0,-1,0
2829353,54,-8274,-109,-1,0,0,0
2829358,54,-8279,-115,-1,0,-1,0
2829363,51,-8282,-120,-1,0,-1,0
2829368,51,-8280,-126,-1,0,-1,0
2829373,47,-8280,-140,-1,1,-1,0
2829378,47,-8280,-155,-1,1,-1,0
2829383,48,-8278,-171,-1,1,-1,0
2829388,49,-8277,-188,-1,1,-1,0
2829393,51,-8277,-204,-1,1,-1,0
2829398,52,-8275,-217,-1,1,-1,0
2829403,57,-8276,-233,-1,0,-1,0
2829408,65,-8274,-246,-1,0,-1,0
2829413,74,-8274,-252,-1,0,-1,0
2829418,83,-8273,-257,-1,0,-1,0
2829423,93,-8275,-263,0,0,-1,0
2829428,100,-8276,-266,0,-1,-1,0
2829433,106,-8278,-268,0,-1,-1,0
2829438,110,-8281,-266,0,-1,-1,0
2829443,111,-8282,-255,0,-1,-1,0
2829448,115,-8280,-245,0,-1,-1,0
2829453,119,-8279,-237,0,-1,0,0
2829458,127,-8278,-234,0,-1,-1,0
2829463,134,-8277,-232,0,-1,0,0
2829468,141,-8277,-224,0,-1,0,0
2829473,150,-8277,-220,0,-1,0,0
2829478,155,-8277,-217,0,-1,0,0
2829483,158,-8278,-210,0,-1,0,0
2829488,157,-8278,-197,0,-1,0,0
2829493,154,-8280,-186,0,-1,0,0
2829498,153,-8279,-172,0,-1,0,0
2829503,150,-8278,-165,0,-1,0,0
2829508,146,-8277,-156,0,-1,0,0
2829513,142,-8274,-144,0,-1,0,0
2829518,137,-8276,-130,0,-1,0,0
2829523,132,-8278,-115,0,-1,0,0
2829528,126,-8278,-110,0,-1,0,0
2829533,121,-8274,-96,0,-1,0,0
2829538,112,-8274,-88,0,-1,0,0
2829543,106,-8277,-85,0,-1,0,0
2829548,100,-8279,-84,0,-1,0,0
2829553,94,-8280,-85,0,-1,0,0
2829558,88,-8277,-82,0,-1,0,0
2829563,81,-8278,-74,0,-1,0,0
2829568,75,-8278,-70,0,-1,0,0
2829573,66,-8278,-63,0,-1,0,0
2829578,61,-8278,-51,0,-1,0,0
2829583,58,-8277,-40,0,-1,0,0
2829588,58,-8277,-25,0,-1,0,0
2829593,62,-8278,-9,0,-1,0,0
2829598,68,-8278,7,0,-1,0,0
2829603,75,-8278,18,0,-1,0,0
2829608,83,-8281,28,0,-1,0,0
2829613,90,-8282,37,0,-1,0,0
2829618,95,-8278,45,0,-1,0,0
2829623,101,-8278,58,0,-1,0,0
2829628,104,-8277,70,0,-1,0,0
2829633,104,-8274,90,0,-1,0,0
2829638,104,-8273,107,0,-1,0,0
2829643,107,-8273,121,0,-1,0,0
2829648,109,-8276,134,0,-1,0,0
2829653,108,-8279,140,0,-1,0,0
2829658,108,-8280,148,0,-1,0,0
2829663,109,-8283,153,0,-1,0,0
2829668,113,-8284,157,0,-1,0,0
2829673,116,-8281,156,0,-1,0,0
2829678,115,-8280,150,0,-1,0,0
2829683,111,-8282,148,-1,-1,0,0
2829688,104,-8285,139,-1,-1,0,0
2829693,97,-8283,135,-1,-1,0,0
2829698,89,-8280,124,-1,-1,0,0
2829703,80,-8279,111,-1,-1,0,0
2829708,75,-8281,103,-1,0,0,0
2829713,74,-8281,101,-1,0,0,0
2829718,74,-8281,100,-1,0,0,0
2829723,73,-8277,102,-1,0,0,0
2829728,69,-8276,102,-1,0,0,0
2829733,64,-8276,98,-1,0,0,0
2829738,54,-8278,89,-1,0,0,0
2829743,45,-8281,79,-1,0,0,0
2829748,37,-8280,61,-1,0,0,0
2829753,28,-8280,46,-1,0,-1,0
2829758,24,-8277,27,-1,0,0,0
2829763,21,-8275,11,-1,0,-1,0
2829768,21,-8275,-2,-1,0,-1,0
2829773,23,-8276,-10,-1,0,0,0
2829778,27,-8277,-17,-1,0,-1,0
2829783,28,-8279,-21,-1,0,-1,0
2829788,29,-8280,-21,-1,0,-1,0
2829793,28,-8280,-26,-1,0,-1,0
2829798,31,-8278,-36,-1,0,-1,0
2829803,36,-8279,-45,-1,0,-1,0
2829808,42,-8277,-55,-1,0,-1,0
2829813,50,-8276,-62,-1,0,-1,0
2829818,58,-8272,-72,-1,0,-1,0
2829823,64,-8271,-85,-1,0,-1,0
2829828,72,-8272,-90,-1,0,-1,0
2829833,77,-8270,-93,-1,0,-1,0
2829838,79,-8269,-99,-1,0,-1,0
2829843,78,-8270,-102,-1,0,-1,0
2829848,74,-8271,-101,0,0,-1,0
2829853,73,-8271,-108,0,-1,-1,0
2829858,73,-8273,-109,0,0,-1,0
2829863,72,-8272,-109,0,0,-1,0
2829868,73,-8270,-115,0,0,-1,0
2829873,80,-8273,-125,0,0,-1,0
2829878,90,-8275,-131,0,0,-1,0
2829883,98,-8277,-138,0,-1,-1,0
2829888,101,-8278,-138,0,-1,-1,0
2829893,104,-8281,-140,0,-1,-1,0
2829898,102,-8281,-137,0,-1,-1,0
2829903,104,-8278,-134,0,-1,-1,0
2829908,105,-8278,-128,0,-1,-1,0
2829913,105,-8277,-121,0,-1,-1,0
2829918,106,-8277,-106,0,-1,-1,0
2829923,108,-8276,-92,0,-1,-1,0
2829928,116,-8275,-75,0,-1,-1,0
2829933,123,-8273,-60,0,-1,-1,0
2829938,125,-8274,-44,0,-1,-1,0
2829943,120,-8274,-34,0,-1,0,0
2829948,116,-8274,-24,0,-1,-1,0
2829953,113,-8273,-21,0,-1,0,0
2829958,110,-8272,-27,0,-1,0,0
2829963,106,-8273,-32,0,-1,0,0
2829968,106,-8274,-38,0,-1,0,0
2829973,105,-8273,-48,0,-1,0,0
2829978,107,-8272,-56,0,-1,0,0
2829983,110,-8270,-56,0,-1,0,0
2829988,114,-8270,-54,0,-1,0,0
2829993,117,-8271,-47,0,-1,0,0
2829998,117,-8268,-35,0,-1,0,0
2830003,112,-8268,-20,0,-1,0,0
2830008,108,-8268,-7,0,-1,0,0
2830013,105,-8268,3,0,-1,0,0
2830018,100,-8270,17,0,-2,0,0
2830023,97,-8271,26,0,-1,0,0
2830028,93,-8271,30,0,-1,0,0
2830033,92,-8272,37,0,-1,0,0
2830038,92,-8274,46,0,-1,0,0
2830043,92,-8274,56,0,-1,0,0
2830048,91,-8270,65,0,-2,0,0
2830053,87,-8268,71,0,-2,0,0
2830058,81,-8272,71,0,-2,0,0
2830063,73,-8269,68,0,-2,0,0
2830068,68,-8268,70,0,-2,0,0
2830073,64,-8269,74,0,-1,0,0
2830078,60,-8270,76,-1,-1,-1,0
2830083,58,-8271,77,-1,-1,-1,0
2830088,57,-8272,80,-1,-1,0,0
2830093,56,-8269,79,-1,-1,0,0
2830098,61,-8270,77,-1,-1,0,0
2830103,70,-8272,72,-1,-1,0,0
2830108,77,-8275,68,-1,-1,0,0
2830113,82,-8276,62,-1,-1,-1,0
2830118,87,-8277,59,-1,-1,0,0
2830123,90,-8276,59,-1,-1,-1,0
2830128,93,-8279,55,-1,0,-1,0
2830133,92,-8278,53,-1,0,-1,0
2830138,91,-8279,51,-1,0,0,0
2830143,89,-8277,49,-1,0,0,0
2830148,88,-8280,50,-1,0,0,0
2830153,87,-8282,46,-1,0,0,0
2830158,88,-8282,41,-1,0,0,0
2830163,91,-8281,32,-1,0,0,0
2830168,95,-8283,16,-1,0,0,0
2830173,101,-8282,3,-1,0,0,0
2830178,107,-8282,-7,-1,0,0,0
2830183,113,-8282,-18,-1,0,0,0
2830188,113,-8279,-30,-1,0,0,0
2830193,111,-8279,-40,-1,0,0,0
2830198,109,-8279,-43,-1,0,0,0
2830203,106,-8278,-52,-1,0,0,0
2830208,102,-8278,-61,-1,-1,0,0
2830213,97,-8276,-73,-1,-1,0,0
2830218,94,-8276,-85,0,-1,0,0
2830223,91,-8278,-96,0,-1,0,0
2830228,88,-8279,-96,0,0,0,0
2830233,87,-8279,-90,0,-1,0,0
2830238,86,-8277,-86,0,-1,0,0
2830243,84,-8275,-81,0,-1,0,0
2830248,81,-8277,-73,0,-1,0,0
2830253,80,-8278,-64,0,-1,0,0
2830258,79,-8279,-60,0,-1,0,0
2830263,79,-8280,-56,0,-1,0,0
2830268,81,-8279,-55,0,-1,0,0
2830273,83,-8279,-57,0,-1,0,0
2830278,88,-8278,-59,0,-1,0,0
2830283,91,-8277,-64,0,-1,0,0
2830288,95,-8279,-66,0,-1,0,0
2830292,95,-8278,-66,0,-1,0,0
2830298,95,-8277,-66,0,-1,0,0
2830303,91,-8273,-62,0,-1,0,0
2830308,87,-8273,-57,0,-1,0,0
2830313,83,-8274,-47,0,-1,-1,0
2830318,76,-8278,-41,0,-1,0,0
2830323,72,-8277,-35,0,-1,0,0
2830327,69,-8274,-23,0,-1,0,0
2830332,68,-8274,-14,0,-1,0,0
2830338,69,-8277,-5,0,-1,0,0
2830343,71,-8281,0,0,-1,0,0
2830347,74,-8282,0,0,-1,0,0
2830352,80,-8280,-6,0,-2,0,0
2830358,81,-8276,-10,0,-2,0,0
2830363,83,-8274,-14,0,-1,0,0
2830368,88,-8274,-14,0,-1,0,0
2830373,91,-8274,-16,0,-1,0,0
2830378,93,-8273,-12,0,-1,0,0
2830383,97,-8272,-4,0,-1,0,0
2830388,103,-8272,2,0,-1,0,0
2830393,107,-8273,1,0,-1,0,0
2830397,109,-8269,-6,0,-2,0,0
2830403,111,-8266,-8,0,-2,0,0
2830408,117,-8265,-10,0,-2,0,0
2830412,122,-8263,-16,0,-2,0,0
2830418,129,-8263,-16,0,-2,0,0
2830422,135,-8266,-15,0,-2,0,0
2830427,138,-8267,-12,0,-2,0,0
2830433,141,-8268,-9,0,-2,0,0
2830437,146,-8267,2,0,-2,0,0
2830443,152,-8266,12,0,-2,0,0
2830447,157,-8268,15,0,-2,0,0
2830453,163,-8270,16,0,-2,0,0
2830457,170,-8268,12,0,-2,0,0
2830462,171,-8269,9,0,-2,0,0
2830468,168,-8270,1,0,-2,0,0
2830472,166,-8271,-7,0,-2,0,0
2830477,166,-8270,-12,0,-2,0,0
2830483,162,-8269,-13,0,-2,0,0
2830488,157,-8270,-11,0,-2,0,0
2830492,147,-8270,-5,0,-2,0,0
2830498,134,-8271,-6,0,-2,0,0
2830503,120,-8270,-5,0,-2,0,0
2830508,106,-8271,-2,0,-2,0,0
2830512,93,-8270,-2,0,-2,0,0
2830517,83,-8269,1,0,-2,0,0
2830523,73,-8268,1,0,-2,0,0
2830527,65,-8269,5,0,-2,0,0
2830532,49,-8268,3,0,-1,0,0
2830538,34,-8269,-14,0,0,0,0
2830542,45,-8266,-8,0,0,0,0
2830548,40,-8270,-12,0,-1,0,0
2830553,35,-8272,-11,0,-2,0,0
2830558,30,-8275,-10,0,-2,0,0
2830563,31,-8274,-11,0,-1,0,0
2830568,35,-8273,-5,0,-1,0,0
2830572,36,-8273,4,0,-1,0,0
2830578,38,-8270,2,0,-1,0,0
2830582,30,-8269,1,0,-2,0,0
2830588,29,-8269,-3,0,-2,0,0
2830593,28,-8271,-8,0,-2,0,0
2830597,25,-8274,-11,0,-2,0,0
2830602,27,-8275,-18,0,-2,0,0
2830608,33,-8271,-21,0,-2,0,0
2830613,34,-8273,-21,0,-2,0,0
2830617,37,-8273,-22,0,-2,0,0
2830622,36,-8274,-15,0,-2,0,0
2830627,36,-8276,-17,0,-1,0,0
2830632,34,-8278,-29,0,-1,0,0
2830638,37,-8279,-30,0,-1,0,0
2830642,41,-8279,-32,0,-1,0,0
2830647,41,-8280,-31,0,-2,0,0
2830652,41,-8280,-28,0,-2,0,0
2830657,37,-8279,-25,0,-2,0,0
2830662,38,-8278,-18,0,-2,0,0
2830667,33,-8280,-21,0,-2,0,0
2830672,32,-8282,-20,0,-2,0,0
2830677,31,-8282,-25,0,-2,0,0
2830682,26,-8282,-35,0,-2,0,0
2830687,16,-8283,-42,0,-2,0,0
2830692,2,-8284,-48,0,-3,0,0
2830697,-9,-8284,-45,0,-3,0,0
2830703,-18,-8285,-42,0,-3,0,0
2830708,-27,-8285,-36,0,-3,0,0
2830712,-34,-8284,-24,0,-3,0,0
2830717,-40,-8285,-12,0,-3,0,0
2830722,-43,-8286,0,0,-3,0,0
2830727,-44,-8285,13,0,-3,0,0
2830733,-46,-8285,32,0,-2,0,0
2830738,-50,-8285,46,0,-2,0,0
2830742,-54,-8285,59,0,-2,-1,0
2830747,-57,-8283,68,0,-2,0,0
2830752,-60,-8281,74,0,-2,0,0
2830757,-58,-8281,72,0,-2,-1,0
2830762,-56,-8283,75,0,-1,-1,0
2830767,-52,-8282,80,0,-1,-1,0
2830772,-45,-8281,74,0,-1,-1,0
2830777,-36,-8282,72,0,-1,-1,0
2830782,-25,-8285,67,0,-1,-1,0
2830787,-17,-8286,64,0,-1,-1,0
2830792,-6,-8282,73,0,-1,-1,0
2830797,2,-8280,80,0,-1,-1,0
2830802,3,-8282,85,0,-1,-1,0
2830807,-1,-8281,86,0,-2,-1,0
2830812,-8,-8282,79,0,-1,-1,0
2830817,-16,-8281,72,0,-1,-1,0
2830822,-28,-8281,67,0,-1,-1,0
2830827,-40,-8282,60,0,-1,-1,0
2830832,-49,-8281,52,0,-1,-1,0
2830837,-58,-8282,41,0,0,-1,0
2830842,-68,-8282,41,-1,0,-1,0
2830847,-75,-8284,37,0,0,-1,0
2830852,-85,-8282,34,-1,0,-1,0
2830857,-93,-8281,35,-1,0,-1,0
2830862,-99,-8280,33,0,0,-1,0
2830867,-102,-8281,31,0,-1,-1,0
2830872,-102,-8281,30,0,-1,-1,0
2830877,-101,-8284,26,-1,-1,-1,0
2830882,-98,-8286,29,-1,-1,-1,0
2830887,-92,-8284,38,-1,-1,-1,0
2830892,-82,-8280,50,-1,-1,-1,0
2830897,-69,-8278,56,-1,0,-1,0
2830902,-52,-8278,68,-1,0,-1,0
2830907,-29,-8280,75,-1,0,-1,0
2830912,-7,-8282,81,-1,0,-1,0
2830917,13,-8283,88,-1,0,-1,0
2830922,31,-8282,92,-1,0,-1,0
2830927,47,-8284,96,-1,0,-1,0
2830932,63,-8283,104,-1,0,-1,0
2830937,75,-8281,114,-1,0,-1,0
2830942,85,-8283,116,-1,0,-1,0
2830947,94,-8283,114,-1,0,-1,0
2830952,103,-8279,115,-1,0,-1,0
2830957,111,-8277,117,-1,0,-1,0
2830962,117,-8274,111,-1,0,-1,0
2830967,123,-8279,104,-1,0,-1,0
2830972,127,-8278,93,-1,0,-1,0
2830977,127,-8278,80,-1,0,-1,0
2830982,128,-8277,66,-1,0,-1,0
2830987,125,-8278,53,-1,0,-1,0
2830992,122,-8277,40,-1,0,-1,0
2830997,119,-8276,31,-1,0,-1,0
2831002,112,-8276,24,-1,0,-1,0
2831007,101,-8279,20,-1,0,-1,0
2831012,91,-8277,26,-1,0,-1,0
2831017,84,-8274,35,-1,0,-1,0
2831022,82,-8274,46,-1,0,-1,0
2831027,86,-8273,48,-1,0,-1,0
2831032,92,-8277,48,-1,0,-1,0
2831037,96,-8278,50,-1,0,-1,0
2831042,100,-8277,44,-1,0,-1,0
2831047,108,-8274,40,-1,0,-1,0
2831052,110,-8272,39,-1,0,-1,0
2831057,111,-8269,27,-1,0,-1,0
2831062,108,-8269,16,-1,0,-1,0
2831067,103,-8270,2,-1,0,-1,0
2831072,98,-8271,-9,-1,0,-1,0
2831077,95,-8271,-18,-1,0,-1,0
2831082,91,-8270,-21,-1,0,-1,0
2831087,94,-8271,-21,-1,0,-1,0
2831092,99,-8273,-14,-1,0,-1,0
2831097,109,-8273,-5,-1,0,-1,0
2831102,118,-8275,5,-1,0,-1,0
2831107,128,-8273,17,-1,0,-1,0
2831112,133,-8271,17,-1,0,-1,0
2831117,135,-8271,11,-1,0,-1,0
2831122,133,-8272,5,-1,0,-1,0
2831127,130,-8269,-4,-1,0,-1,0
2831132,126,-8268,-19,-1,0,-1,0
2831137,126,-8269,-36,-1,0,-1,0
2831142,126,-8271,-49,-1,0,-1,0
2831147,124,-8271,-63,-1,0,-1,0
2831152,122,-8270,-77,-1,0,-1,0
2831157,122,-8273,-82,-1,-1,-1,0
2831162,121,-8274,-78,-1,-1,-1,0
2831167,118,-8274,-82,-1,-1,-1,0
2831172,111,-8274,-80,-1,-1,-1,0
2831177,99,-8276,-77,-1,-1,-1,0
2831182,87,-8275,-72,-1,-1,-1,0
2831187,75,-8274,-66,0,-1,-1,0
2831192,71,-8275,-61,0,-1,-1,0
2831197,65,-8276,-58,0,-1,-1,0
2831202,66,-8279,-51,0,-1,-1,0
2831207,65,-8279,-42,-1,-1,-1,0
2831212,70,-8277,-32,-1,0,-1,0
2831217,79,-8275,-25,-1,0,-1,0
2831222,85,-8271,-19,0,0,-1,0
2831227,92,-8271,-16,0,0,-1,0
2831232,92,-8273,-15,0,0,-1,0
2831237,90,-8274,-17,0,-1,-1,0
2831242,86,-8273,-25,0,0,-1,0
2831247,80,-8273,-33,0,-1,-1,0
2831252,73,-8272,-42,0,-1,-1,0
2831257,68,-8275,-54,0,-1,-1,0
2831262,65,-8275,-60,0,0,-1,0
2831267,66,-8275,-66,0,-1,-1,0
2831272,66,-8272,-76,0,-1,-1,0
2831277,66,-8275,-77,0,-1,-1,0
2831282,66,-8274,-76,0,-1,-1,0
2831287,67,-8276,-75,0,-1,-1,0
2831292,70,-8278,-66,0,-1,-1,0
2831297,73,-8277,-57,0,-1,-1,0
2831302,78,-8273,-52,0,-1,-1,0
2831307,85,-8272,-48,0,0,-1,0
2831312,92,-8272,-46,0,0,-1,0
2831317,99,-8268,-48,0,0,-1,0
2831322,104,-8268,-52,0,0,-1,0
2831327,109,-8272,-60,0,0,-1,0
2831332,112,-8275,-59,0,0,-1,0
2831337,116,-8278,-63,0,-1,-1,0
2831342,122,-8278,-65,0,-1,-1,0
2831347,123,-8279,-66,0,-1,-1,0
2831352,127,-8279,-69,0,-1,-1,0
2831357,127,-8276,-77,0,-1,-1,0
2831362,130,-8274,-77,0,-1,0,0
2831367,136,-8275,-70,0,-1,-1,0
2831372,144,-8275,-60,0,-1,0,0
2831377,149,-8273,-52,0,-1,0,0
2831382,151,-8272,-40,0,-1,0,0
2831387,150,-8272,-25,0,-1,0,0
2831392,149,-8274,-12,0,-1,0,0
2831397,149,-8274,0,0,-1,0,0
2831402,144,-8272,18,0,-1,0,0
2831407,138,-8272,30,0,-1,0,0
2831412,134,-8273,42,0,-1,0,0
2831417,134,-8273,55,0,0,0,0
2831422,136,-8274,61,0,-1,0,0
2831427,137,-8274,71,0,-1,0,0
2831432,136,-8275,76,0,-1,0,0
2831437,130,-8276,82,0,-1,0,0
2831442,122,-8278,89,0,-1,0,0
2831447,116,-8276,88,0,-1,0,0
2831452,110,-8275,90,0,-1,0,0
2831457,105,-8274,89,0,-1,0,0
2831462,96,-8275,83,0,-1,0,0
2831467,85,-8276,82,0,0,0,0
2831472,74,-8277,78,0,0,0,0
2831477,67,-8280,76,0,0,0,0
2831482,62,-8281,75,0,0,0,0
2831487,58,-8280,75,0,0,0,0
2831492,57,-8280,73,0,0,0,0
2831497,51,-8278,78,0,-1,0,0
2831502,46,-8275,87,0,0,0,0
2831507,42,-8276,94,0,0,0,0
2831512,35,-8277,103,0,0,0,0
2831517,26,-8279,112,0,0,0,0
2831522,17,-8280,122,0,0,0,0
2831527,12,-8279,123,0,0,0,0
2831532,11,-8279,132,0,0,0,0
2831537,15,-8280,141,-1,0,0,0
2831542,20,-8279,147,-1,1,0,0
2831547,29,-8277,148,-1,1,-1,0
2831552,36,-8277,150,-1,1,-1,0
2831557,41,-8278,150,-1,2,-1,0
2831562,31,-8279,147,-1,2,-1,0
2831567,-25,-8275,113,-1,3,-1,0
2831572,-109,-8274,91,-1,8,-1,0
2831577,-161,-8275,54,-1,14,-1,0
2831582,-223,-8281,22,-1,18,-1,0
2831587,-238,-8284,12,-1,18,-1,0
2831592,-234,-8285,-2,-1,19,-1,0
2831597,-200,-8282,9,-1,19,-1,0
2831602,-154,-8279,13,-1,22,-1,0
2831607,-101,-8274,26,-1,25,-1,0
2831612,-39,-8269,49,-1,27,-1,0
2831617,3,-8268,63,-1,26,-1,0
2831622,52,-8271,84,-1,22,-1,0
2831627,82,-8273,102,-1,18,-1,0
2831632,108,-8271,125,-1,14,-1,0
2831637,145,-8270,143,-1,11,-1,0
2831642,174,-8270,157,-1,9,-1,0
2831647,206,-8269,175,-1,8,-1,0
2831652,229,-8268,188,-1,7,-1,0
2831657,240,-8268,194,-1,6,-1,0
2831662,248,-8269,191,-1,4,-1,0
2831667,248,-8270,196,-1,2,-1,0
2831672,233,-8272,203,-1,-1,-1,0
2831677,213,-8275,206,-1,-2,-1,0
2831682,194,-8277,204,-1,-2,-1,0
2831687,168,-8279,203,-1,-1,-1,0
2831692,149,-8281,195,-1,-1,-1,0
2831697,131,-8282,192,-2,0,-1,0
2831702,116,-8286,189,-2,0,-1,0
2831707,107,-8286,180,-2,-1,-1,0
2831712,100,-8285,172,-2,0,-1,0
2831717,95,-8285,168,-2,0,-1,0
2831722,95,-8284,168,-2,0,-1,0
2831727,93,-8283,164,-2,0,-1,0
2831732,92,-8284,154,-2,0,-1,0
2831737,92,-8284,140,-2,0,-1,0
2831742,93,-8285,117,-2,0,-1,0
2831747,91,-8283,101,-2,0,-1,0
2831752,94,-8283,79,-2,0,-1,0
2831757,96,-8281,58,-2,1,-1,0
2831762,101,-8278,44,-2,1,-1,0
2831767,109,-8277,30,-2,1,-1,0
2831772,115,-8278,16,-2,1,-1,0
2831777,123,-8277,7,-2,1,-1,0
2831782,126,-8274,-4,-2,1,-1,0
2831787,130,-8273,-20,-2,2,-1,0
2831792,134,-8275,-34,-2,2,-1,0
2831797,135,-8277,-46,-2,2,-1,0
2831802,137,-8279,-45,-2,2,-1,0
2831807,135,-8279,-45,-2,2,-1,0
2831812,136,-8278,-49,-2,1,-1,0
2831817,133,-8278,-53,-2,1,-1,0
2831822,132,-8277,-54,-2,1,-1,0
2831827,128,-8275,-55,-2,1,-1,0
2831832,124,-8275,-56,-2,1,-1,0
2831837,117,-8277,-59,-2,1,-1,0
2831842,111,-8276,-70,-2,1,-1,0
2831847,107,-8279,-79,-2,1,-1,0
2831852,105,-8281,-93,-2,1,-1,0
2831857,103,-8279,-99,-2,1,-1,0
2831862,102,-8277,-105,-2,1,-1,0
2831867,103,-8277,-110,-2,1,-1,0
2831872,106,-8277,-114,-2,1,-1,0
2831877,112,-8276,-112,-2,1,-1,0
2831882,116,-8272,-105,-2,1,-1,0
2831887,121,-8268,-105,-2,0,-1,0
2831892,126,-8267,-102,-2,0,-1,0
2831897,123,-8266,-103,-2,1,-1,0
2831902,123,-8269,-100,-2,1,-1,0
2831907,121,-8270,-97,-2,1,-1,0
2831912,119,-8269,-97,-2,1,-1,0
2831917,117,-8270,-107,-2,1,-1,0
2831922,118,-8271,-122,-1,1,0,0
2831927,117,-8271,-134,-1,1,-1,0
2831932,116,-8272,-145,-1,1,-1,0
2831937,116,-8273,-154,-1,1,-1,0
2831942,114,-8274,-160,-1,1,-1,0
2831947,113,-8276,-167,-1,0,-1,0
2831952,112,-8280,-175,-1,0,-1,0
2831957,106,-8281,-179,-1,0,-1,0
2831962,101,-8280,-184,-1,-1,-1,0
2831967,95,-8278,-188,-1,-1,-1,0
2831972,87,-8276,-189,-1,-1,-1,0
2831977,80,-8277,-195,-1,-1,-1,0
2831982,70,-8276,-201,-1,-1,-1,0
2831987,63,-8278,-208,-1,-1,-1,0
2831992,55,-8280,-215,-1,-1,-1,0
2831997,50,-8278,-217,-1,-1,-1,0
2832002,42,-8277,-221,-1,-1,-1,0
2832007,36,-8279,-225,-1,-1,-1,0
2832012,28,-8283,-213,-1,-1,-1,0
2832017,26,-8284,-203,-1,-1,-1,0
2832022,22,-8279,-192,-1,-1,-1,0
2832027,13,-8276,-180,-1,-1,-1,0
2832032,7,-8275,-173,-1,-1,-1,0
2832037,3,-8276,-163,-1,-1,-1,0
2832042,-1,-8276,-154,-1,-1,-1,0
2832047,1,-8277,-146,-1,-1,-1,0
2832052,5,-8277,-145,-1,-1,-1,0
2832057,12,-8279,-153,-1,-1,-1,0
2832062,22,-8280,-160,-1,0,-1,0
2832067,36,-8282,-171,-1,0,-1,0
2832072,51,-8279,-181,-1,0,-1,0
2832077,71,-8281,-192,-1,0,-1,0
2832082,95,-8279,-204,-1,0,-1,0
2832087,115,-8278,-214,0,0,-1,0
2832092,139,-8276,-223,0,-1,-1,0
2832097,153,-8276,-228,0,-1,-1,0
2832102,160,-8274,-224,0,-1,-1,0
2832107,165,-8275,-214,0,-1,-1,0
2832112,169,-8274,-195,0,-2,-1,0
2832117,173,-8274,-175,0,-2,-1,0
2832122,177,-8274,-155,0,-2,-1,0
2832127,178,-8275,-135,0,-2,-1,0
2832132,178,-8277,-116,0,-2,-1,0
2832137,178,-8278,-101,0,-2,-1,0
2832142,177,-8279,-89,0,-1,-1,0
2832147,182,-8276,-82,0,-1,-1,0
2832152,185,-8278,-76,0,-1,-1,0
2832157,191,-8279,-73,0,-1,-1,0
2832162,196,-8278,-71,0,-1,-1,0
2832167,201,-8277,-71,0,-1,-1,0
2832172,205,-8278,-77,0,-1,0,0
2832177,212,-8277,-82,0,-1,-1,0
2832182,216,-8279,-86,0,-1,-1,0
2832187,216,-8282,-90,0,-1,0,0
2832192,211,-8282,-89,0,-1,0,0
2832197,206,-8278,-83,0,-1,0,0
2832202,203,-8274,-84,0,-1,0,0
2832207,198,-8272,-80,0,-1,0,0
2832212,191,-8271,-78,0,-1,0,0
2832217,185,-8274,-72,0,-1,0,0
2832222,181,-8273,-71,0,-1,0,0
2832227,178,-8274,-72,0,-1,0,0
2832232,177,-8274,-71,0,-1,0,0
2832237,180,-8273,-73,0,-1,0,0
2832242,183,-8274,-79,0,-1,0,0
2832247,182,-8274,-87,0,-1,0,0
2832252,177,-8274,-91,0,-1,0,0
2832257,170,-8274,-97,0,-1,0,0
2832262,160,-8275,-108,0,-1,0,0
2832267,150,-8277,-111,0,-1,0,0
2832272,136,-8276,-115,0,-2,0,0
2832277,121,-8274,-115,0,-2,0,0
2832282,109,-8273,-114,0,-2,0,0
2832287,100,-8276,-116,0,-1,0,0
2832292,91,-8276,-122,0,-1,0,0
2832297,81,-8275,-120,0,-1,0,0
2832302,76,-8274,-121,0,-1,0,0
2832307,69,-8272,-120,0,-1,0,0
2832312,65,-8270,-126,0,-1,0,0
2832317,61,-8268,-126,0,-1,0,0
2832322,60,-8267,-123,0,-1,0,0
2832327,57,-8269,-124,0,-1,0,0
2832332,55,-8271,-126,0,-1,0,0
2832337,51,-8270,-130,0,-1,0,0
2832342,46,-8270,-129,0,-1,0,0
2832347,46,-8269,-130,0,-1,0,0
2832352,46,-8271,-132,0,-1,0,0
2832357,51,-8273,-125,0,-1,0,0
2832362,59,-8276,-121,0,-1,0,0
2832367,72,-8274,-114,0,-1,0,0
2832372,88,-8275,-114,0,-1,0,0
2832377,99,-8275,-114,0,-1,-1,0
2832382,108,-8276,-113,0,-1,0,0
2832387,116,-8275,-112,0,-1,0,0
2832392,121,-8276,-110,0,-1,0,0
2832397,126,-8278,-116,0,-1,-1,0
2832402,129,-8276,-115,0,-1,0,0
2832407,131,-8276,-111,0,-1,0,0
2832412,134,-8277,-107,0,-1,0,0
2832417,137,-8276,-100,0,-1,0,0
2832422,141,-8278,-88,0,-1,0,0
2832427,144,-8279,-81,0,-1,0,0
2832432,149,-8282,-70,0,-1,0,0
2832437,153,-8282,-58,0,-1,0,0
2832442,158,-8281,-52,0,-1,0,0
2832447,162,-8282,-50,0,-1,0,0
2832452,163,-8282,-47,0,-2,0,0
2832457,165,-8282,-40,0,-2,0,0
2832462,168,-8285,-40,0,-1,0,0
2832467,177,-8282,-37,0,-1,0,0
2832472,189,-8281,-34,0,-1,0,0
2832477,198,-8277,-28,0,-1,0,0
2832482,207,-8277,-20,0,-1,0,0
2832487,216,-8275,-8,0,-1,0,0
2832492,223,-8275,0,0,-1,0,0
2832497,224,-8273,14,0,-1,0,0
2832502,221,-8273,21,0,-1,0,0
2832507,213,-8272,27,0,-2,0,0
2832512,207,-8270,32,0,-1,0,0
2832517,197,-8273,39,0,-1,0,0
2832522,191,-8278,45,0,-1,0,0
2832527,188,-8279,48,0,-1,0,0
2832532,192,-8279,50,-1,-1,0,0
2832537,201,-8280,53,-1,-1,0,0
2832542,206,-8279,55,-1,-1,0,0
2832547,213,-8280,53,-1,-2,0,0
2832552,216,-8281,53,-1,-3,0,0
2832557,214,-8277,51,-1,-3,0,0
2832562,211,-8276,51,-1,-4,0,0
2832567,202,-8276,57,-1,-5,0,0
2832572,183,-8275,63,-1,-6,0,0
2832577,160,-8275,65,-1,-6,0,0
2832582,128,-8274,63,-1,-6,0,0
2832587,98,-8272,62,-1,-6,0,0
2832592,64,-8272,56,-1,-5,0,0
2832597,25,-8272,42,-1,-4,0,0
2832602,-4,-8272,31,-1,-2,0,0
2832607,-38,-8272,15,-1,0,0,0
2832612,-64,-8273,-5,-1,1,0,0
2832617,-91,-8276,-25,-1,2,0,0
2832622,-107,-8280,-45,-1,5,0,0
2832627,-112,-8279,-60,-1,7,0,0
2832632,-103,-8281,-66,-1,8,0,0
2832637,-85,-8279,-69,-1,8,0,0
2832642,-68,-8278,-64,-1,7,0,0
2832647,-55,-8276,-60,-1,7,0,0
2832652,-44,-8277,-61,-1,6,0,0
2832657,-34,-8279,-65,-1,5,0,0
2832662,-22,-8277,-72,-1,4,0,0
2832667,-8,-8272,-79,-1,4,0,0
2832672,10,-8272,-84,-1,5,0,0
2832677,28,-8272,-90,-1,7,0,0
2832682,47,-8273,-95,-1,9,0,0
2832687,67,-8274,-103,-1,11,0,0
2832692,83,-8272,-107,-1,13,0,0
2832697,107,-8270,-115,-1,15,0,0
2832702,140,-8268,-122,-1,15,0,0
2832707,191,-8266,-136,-1,14,0,0
2832712,251,-8266,-176,-1,10,0,0
2832717,309,-8270,-222,-1,5,0,0
2832722,358,-8271,-268,0,0,1,0
2832727,392,-8274,-303,0,-3,1,0
2832732,416,-8275,-319,-1,-4,1,0
2832737,435,-8274,-309,-1,-2,1,0
2832742,449,-8271,-271,-1,0,1,0
2832747,466,-8267,-218,-1,3,1,0
2832752,483,-8265,-149,-1,5,1,0
2832757,493,-8263,-85,-1,6,2,0
2832762,498,-8260,-26,-1,7,2,0
2832767,488,-8260,22,-1,8,1,0
2832772,468,-8261,59,-1,8,2,0
2832777,433,-8263,94,-1,7,2,0
2832782,389,-8262,114,-1,6,2,0
2832787,334,-8262,126,-1,4,2,0
2832792,277,-8265,134,-1,2,2,0
2832797,220,-8266,126,-1,1,2,0
2832802,174,-8268,107,-1,0,2,0
2832807,159,-8269,98,-1,-1,2,0
2832812,141,-8270,72,-1,-3,2,0
2832817,126,-8269,43,-1,-3,2,0
2832822,117,-8268,9,-1,0,2,0
2832827,115,-8268,-42,-1,2,2,0
2832832,106,-8266,-84,-1,4,2,0
2832837,91,-8267,-132,-1,6,2,0
2832842,72,-8266,-176,-1,7,2,0
2832847,48,-8266,-208,-1,9,2,0
2832852,24,-8266,-246,-1,11,2,0
2832857,3,-8266,-286,-1,13,2,0
2832862,-13,-8265,-326,-1,14,2,0
2832867,-27,-8265,-367,0,15,2,0
2832872,-32,-8264,-408,0,15,2,0
2832877,-37,-8264,-443,0,13,2,0
2832882,-50,-8263,-473,0,10,2,0
2832887,-61,-8264,-496,0,6,2,0
2832892,-72,-8263,-507,0,3,2,0
2832897,-85,-8264,-507,0,1,2,0
2832902,-99,-8268,-503,0,-1,2,0
2832907,-106,-8273,-494,0,-1,1,0
2832912,-113,-8272,-473,0,0,1,0
2832917,-120,-8272,-439,1,1,1,0
2832922,-140,-8269,-392,1,1,1,0
2832927,-164,-8267,-341,1,0,1,0
2832932,-193,-8266,-288,1,0,1,0
2832937,-226,-8266,-238,1,0,1,0
2832942,-250,-8266,-195,1,1,1,0
2832947,-259,-8266,-159,1,3,1,0
2832952,-257,-8270,-138,1,5,1,0
2832957,-256,-8271,-117,1,8,1,0
2832962,-254,-8271,-102,0,10,1,0
2832967,-262,-8270,-85,0,13,0,0
2832972,-285,-8271,-66,0,15,0,0
2832977,-315,-8269,-42,0,17,0,0
2832982,-349,-8271,-18,0,21,0,0
2832987,-386,-8274,-3,0,26,0,0
2832992,-410,-8274,7,0,32,0,0
2832997,-425,-8272,11,0,38,0,0
2833002,-435,-8270,12,0,43,0,0
2833007,-444,-8270,6,0,46,0,0
2833012,-458,-8271,-8,0,46,0,0
2833017,-477,-8273,-17,0,45,-1,0
2833022,-493,-8274,-29,0,44,-1,0
2833027,-499,-8274,-27,-1,41,-1,0
2833032,-502,-8276,-19,-1,37,-1,0
2833037,-498,-8277,-3,-1,31,-1,0
2833042,-488,-8276,10,0,23,-1,0
2833047,-478,-8275,26,0,14,-2,0
2833052,-465,-8273,32,0,6,-2,0
2833057,-450,-8273,23,0,0,-2,0
2833062,-434,-8272,6,0,-5,-2,0
2833067,-416,-8274,-16,0,-9,-2,0
2833072,-400,-8274,-41,0,-12,-2,0
2833077,-382,-8274,-57,0,-14,-2,0
2833082,-360,-8274,-67,0,-15,-3,0
2833087,-336,-8274,-62,0,-16,-3,0
2833092,-305,-8277,-54,0,-16,-3,0
2833097,-272,-8278,-43,0,-16,-3,0
2833102,-229,-8277,-41,0,-15,-3,0
2833107,-179,-8275,-40,0,-13,-3,0
2833112,-120,-8276,-42,0,-11,-3,0
2833117,-65,-8277,-43,0,-9,-3,0
2833122,-20,-8277,-38,0,-8,-3,0
2833127,14,-8275,-22,-1,-5,-3,0
2833132,37,-8273,6,-1,-3,-2,0
2833137,58,-8272,41,-1,-1,-2,0
2833142,77,-8272,73,-1,0,-2,0
2833147,92,-8278,97,-1,0,-2,0
2833152,98,-8298,96,-1,-1,-2,0
2833157,86,-8323,63,-1,-2,-2,0
2833162,100,-8350,35,-1,-4,-2,0
2833167,177,-8367,42,0,-3,-3,0
2833172,292,-8365,62,0,0,-3,0
2833177,405,-8353,87,0,1,-3,0
2833182,474,-8341,94,0,-1,-4,0
2833187,487,-8336,87,1,-6,-4,0
2833192,455,-8329,55,1,-9,-4,0
2833197,410,-8316,7,1,-10,-4,0
2833202,380,-8295,-33,2,-9,-4,0
2833207,379,-8272,-54,2,-5,-5,0
2833212,406,-8250,-59,2,-2,-5,0
2833217,433,-8254,-48,3,0,-5,0
2833222,542,-8343,53,3,1,-6,0
2833227,468,-8335,-23,3,-1,-5,0
2833232,385,-8364,-39,3,-9,-5,0
2833237,287,-8398,-47,3,-8,-5,0
2833242,287,-8417,-35,3,0,-6,0
2833247,325,-8434,21,4,6,-6,0
2833252,392,-8458,34,4,7,-6,0
2833257,447,-8488,79,4,4,-6,0
2833262,466,-8518,85,4,2,-7,0
2833267,444,-8546,84,4,0,-7,0
2833272,419,-8566,56,5,-1,-7,0
2833277,391,-8577,40,5,0,-7,0
2833282,389,-8576,6,5,2,-7,0
2833287,413,-8570,-8,5,4,-7,0
2833292,436,-8564,5,5,5,-7,0
2833297,448,-8559,20,6,5,-8,0
2833302,440,-8561,54,6,4,-8,0
2833307,416,-8568,71,6,3,-8,0
2833312,388,-8583,73,6,3,-8,0
2833317,365,-8597,79,6,3,-8,0
2833322,347,-8606,94,6,5,-8,0
2833327,335,-8606,110,6,6,-9,0
2833332,331,-8599,145,6,7,-9,0
2833337,329,-8584,175,6,7,-9,0
2833342,331,-8567,182,6,6,-9,0
2833347,330,-8540,189,6,5,-9,0
2833352,321,-8505,184,6,4,-9,0
2833357,312,-8460,180,6,3,-10,0
2833362,297,-8409,186,6,3,-10,0
2833367,276,-8351,187,7,3,-10,0
2833372,255,-8290,185,7,2,-10,0
2833377,235,-8226,184,7,3,-11,0
2833382,213,-8158,171,7,3,-11,0
2833387,188,-8092,163,7,3,-11,0
2833392,155,-8026,172,7,3,-11,0
2833397,119,-7961,181,7,4,-12,0
2833402,88,-7896,207,7,4,-12,0
2833407,67,-7833,232,7,5,-12,0
2833412,54,-7774,247,7,5,-13,0
2833417,51,-7726,256,6,6,-13,0
2833422,54,-7692,249,6,8,-13,0
2833427,63,-7666,235,6,9,-14,0
2833432,78,-7650,228,6,10,-14,0
2833437,99,-7649,220,6,10,-14,0
2833442,129,-7662,212,6,9,-14,0
2833447,175,-7691,211,6,9,-14,0
2833452,227,-7731,204,6,8,-14,0
2833457,282,-7778,197,6,6,-14,0
2833462,332,-7826,200,6,3,-14,0
2833467,374,-7869,198,6,1,-14,0
2833472,411,-7902,209,6,-1,-14,0
2833477,439,-7923,221,6,-2,-14,0
2833482,458,-7928,231,6,-4,-14,0
2833487,468,-7920,239,6,-4,-14,0
2833492,464,-7908,242,6,-3,-14,0
2833497,450,-7898,238,6,-2,-13,0
2833502,435,-7890,242,6,1,-13,0
2833507,424,-7894,244,6,3,-13,0
2833512,425,-7905,234,5,6,-13,0
2833517,438,-7924,227,5,7,-13,0
2833522,465,-7949,227,5,9,-13,0
2833527,498,-7974,227,5,9,-13,0
2833532,527,-8001,236,5,9,-13,0
2833537,553,-8030,246,5,8,-12,0
2833542,575,-8068,257,5,7,-12,0
2833547,593,-8102,259,4,6,-12,0
2833552,614,-8130,260,4,5,-12,0
2833557,632,-8151,264,4,4,-11,0
2833562,646,-8166,272,4,4,-11,0
2833567,660,-8184,281,4,4,-11,0
2833572,676,-8200,277,4,4,-10,0
2833577,698,-8220,273,4,4,-10,0
2833582,724,-8241,267,3,5,-10,0
2833587,706,-9404,205,3,6,-9,0
2833592,848,-9358,278,4,4,-10,0
2833597,602,-9074,2,1,-19,-4,0
2833602,429,-8924,45,0,-32,-4,0
2833607,331,-8754,51,0,5,-5,0
2833612,468,-8993,137,0,34,-5,0
2833617,641,-8837,274,0,38,-5,0
2833622,699,-8881,202,-1,18,-3,0
2833627,751,-8852,326,-1,2,-3,0
2833632,710,-8786,225,-1,7,-2,0
2833637,730,-8743,220,-1,10,-1,0
2833642,764,-8696,169,-1,13,-1,0
2833647,798,-8668,160,-1,11,0,0
2833652,839,-8645,179,-1,8,0,0
2833657,871,-8625,218,-1,8,1,0
2833662,886,-8609,251,-1,8,1,0
2833667,908,-8600,230,-2,6,1,0
2833672,889,-8599,242,-2,5,2,0
2833677,859,-8608,219,-2,5,2,0
2833682,820,-8621,213,-2,5,3,0
2833687,792,-8629,239,-2,6,3,0
2833692,772,-8630,257,-2,7,3,0
2833697,763,-8626,277,-2,5,3,0
2833702,767,-8613,296,-2,4,4,0
2833707,749,-8598,281,-3,3,4,0
2833712,728,-8575,263,-3,1,4,0
2833717,695,-8543,254,-3,1,4,0
2833722,645,-8505,221,-3,0,5,0
2833727,608,-8457,209,-3,0,5,0
2833732,573,-8408,211,-3,1,5,0
2833737,544,-8361,207,-3,2,5,0
2833742,528,-8321,221,-3,3,5,0
2833747,503,-8292,225,-3,4,5,0
2833752,479,-8269,219,-3,5,5,0
2833757,455,-8255,216,-3,6,6,0
2833762,433,-8242,206,-3,7,6,0
2833767,424,-8227,187,-3,7,6,0
2833772,416,-8209,177,-3,7,6,0
2833777,415,-8185,173,-4,6,6,0
2833782,411,-8156,168,-3,5,6,0
2833787,397,-8123,166,-3,4,6,0
2833792,384,-8091,148,-3,4,6,0
2833797,368,-8059,123,-3,4,6,0
2833802,356,-8035,107,-3,4,5,0
2833807,339,-8017,80,-3,5,5,0
2833812,330,-8011,61,-3,5,5,0
2833817,338,-8015,62,-3,5,5,0
2833822,341,-8029,58,-3,5,5,0
2833827,358,-8049,61,-3,4,5,0
2833832,384,-8077,83,-3,3,5,0
2833837,391,-8102,106,-2,1,5,0
2833842,392,-8125,138,-2,-1,5,0
2833847,384,-8136,171,-2,-3,5,0
2833852,367,-8142,192,-2,-4,4,0
2833857,361,-8138,210,-2,-5,4,0
2833862,355,-8128,216,-2,-4,4,0
2833867,349,-8115,219,-2,-3,4,0
2833872,343,-8100,220,-3,-1,4,0
2833877,335,-8084,230,-2,1,4,0
2833882,334,-8075,242,-3,3,3,0
2833887,338,-8072,241,-3,4,3,0
2833892,358,-8074,232,-2,4,3,0
2833897,385,-8081,221,-2,4,3,0
2833902,420,-8092,214,-2,4,3,0
2833907,455,-8095,214,-2,3,3,0
2833912,479,-8099,216,-2,2,2,0
2833917,501,-8104,216,-2,1,2,0
2833922,513,-8110,212,-2,0,2,0
2833927,525,-8120,193,-2,0,2,0
2833932,547,-8127,187,-2,0,2,0
2833937,563,-8133,184,-2,1,2,0
2833942,585,-8140,185,-2,1,2,0
2833947,614,-8145,201,-2,1,1,0
2833952,632,-8149,218,-1,2,1,0
2833957,659,-8152,227,-1,1,1,0
2833962,679,-8152,225,-1,0,1,0
2833967,693,-8147,216,-1,0,1,0
2833972,706,-8139,208,-1,-1,1,0
2833977,712,-8125,208,-1,-2,1,0
2833982,711,-8104,210,-1,-3,0,0
2833987,710,-8076,212,-1,-4,0,0
2833992,733,-8816,226,-1,-5,0,0
2833997,701,-8927,247,0,-13,0,0
2834002,1087,-8593,346,0,-28,0,0
2834007,1176,-8875,365,-1,-15,0,0
2834012,1061,-8715,369,-1,-8,0,0
2834017,1148,-8799,425,-1,-4,-2,0
2834022,1116,-8724,456,-1,2,-3,0
2834027,1114,-8633,514,-1,0,-3,0
2834032,1023,-8565,548,-1,-1,-3,0
2834037,990,-8513,538,0,-2,-3,0
2834042,908,-8477,520,0,0,-2,0
2834047,811,-8450,485,0,-4,-2,0
2834052,800,-8429,413,0,-4,-2,0
2834057,752,-8412,357,0,-2,-2,0
2834062,729,-8394,303,0,-4,-2,0
2834067,751,-8379,240,-1,-2,-2,0
2834072,737,-8367,224,-1,-1,-2,0
2834077,750,-8355,206,-1,-3,-2,0
2834082,779,-8340,193,-1,-3,-2,0
2834087,784,-8331,237,-1,-4,-2,0
2834092,803,-8321,246,-1,-6,-2,0
2834097,815,-8311,247,0,-7,-2,0
2834102,808,-8305,272,0,-8,-1,0
2834107,811,-8298,255,0,-9,-1,0
2834112,813,-8294,252,0,-9,-1,0
2834117,803,-8293,255,0,-8,-1,0
2834122,809,-8290,227,0,-8,-1,0
2834127,823,-8294,238,-1,-6,-1,0
2834132,832,-8294,255,-1,-7,-1,0
2834137,857,-8293,276,-1,-8,-1,0
2834142,867,-8294,346,-1,-10,-1,0
2834147,872,-8290,413,-1,-13,-1,0
2834152,877,-8287,474,-1,-16,-1,0
2834157,861,-8287,544,-1,-18,-1,0
2834162,847,-8283,593,-1,-22,-1,0
2834167,832,-8280,642,-1,-24,-1,0
2834172,810,-8281,645,-1,-27,-1,0
2834177,795,-8286,633,-1,-31,-1,0
2834182,755,-8293,628,-1,-32,-1,0
2834187,720,-8295,596,-1,-31,0,0
2834192,688,-8291,576,-2,-27,0,0
2834197,643,-8291,568,-2,-19,0,0
2834202,638,-8286,571,-2,-11,0,0
2834207,640,-8282,584,-2,-3,0,0
2834212,654,-8281,589,-2,2,0,0
2834217,689,-8281,574,-2,3,-1,0
2834222,703,-8282,551,-2,3,0,0
2834227,704,-8285,520,-2,2,0,0
2834232,694,-8288,481,-3,2,0,0
2834237,673,-8288,432,-3,3,0,0
2834242,646,-8286,381,-3,4,0,0
2834247,619,-8284,330,-2,5,0,0
2834252,595,-8284,269,-2,7,0,0
2834257,589,-8286,206,-2,8,0,0
2834262,587,-8287,145,-2,9,0,0
2834267,591,-8289,92,-2,9,0,0
2834272,601,-8293,38,-2,10,0,0
2834277,613,-8293,-4,-2,11,0,0
2834282,611,-8293,-22,-2,14,0,0
2834287,627,-8292,-30,-2,17,0,0
2834292,657,-8291,-18,-2,19,0,0
2834297,670,-8291,8,-2,21,0,0
2834302,691,-8289,36,-2,20,0,0
2834307,708,-8288,69,-2,19,0,0
2834312,703,-8288,78,-2,17,0,0
2834317,709,-8285,73,-2,14,0,0
2834322,704,-8283,73,-1,12,0,0
2834326,686,-8284,63,-1,10,0,0
2834332,692,-8285,38,-1,8,0,0
2834337,693,-8284,22,-1,6,0,0
2834342,691,-8284,8,-1,4,0,0
2834347,701,-8282,-13,-1,2,0,0
2834352,708,-8281,-17,-1,1,0,0
2834357,718,-8281,-17,-1,1,0,0
2834362,721,-8279,-17,-1,0,0,0
2834367,721,-8279,-8,-1,1,0,0
2834372,716,-8281,0,-1,1,0,0
2834377,710,-8282,16,-1,0,0,0
2834382,697,-8280,37,-1,0,0,0
2834387,675,-8279,51,-1,0,0,0
2834392,654,-8280,65,-1,-1,0,0
2834397,635,-8278,70,-1,-1,0,0
2834402,615,-8277,74,-1,-1,0,0
2834407,598,-8277,76,-1,0,0,0
2834412,580,-8277,69,-1,0,0,0
2834417,571,-8278,67,-1,1,0,0
2834422,567,-8279,73,-1,1,0,0
2834427,557,-8278,77,-1,1,0,0
2834432,557,-8281,90,-1,0,0,0
2834437,554,-8282,108,-1,0,0,0
2834442,542,-8283,131,-1,0,0,0
2834447,528,-8285,152,-1,0,0,0
2834452,510,-8284,164,-1,1,0,0
2834457,487,-8284,174,-1,2,0,0
2834461,462,-8283,176,-1,4,0,0
2834467,435,-8286,174,-1,5,0,0
2834472,402,-8287,164,-1,7,0,0
2834476,364,-8288,160,-1,9,0,0
2834482,329,-8289,156,-1,12,0,0
2834487,287,-8289,157,-1,15,0,0
2834492,253,-8286,162,-1,17,0,0
2834496,230,-8285,165,-1,19,-1,0
2834502,208,-8284,166,-1,21,-1,0
2834507,221,-8280,177,-1,21,-1,0
2834512,261,-8274,182,-1,18,-1,0
2834517,306,-8274,184,-1,8,-1,0
2834522,337,-8274,197,-1,-3,-1,0
2834526,338,-8277,202,-1,-10,-1,0
2834531,331,-8280,211,-1,-12,-1,0
2834536,321,-8281,227,-1,-10,-1,0
2834542,319,-8283,241,-1,-4,-1,0
2834547,326,-8283,265,-1,3,-1,0
2834551,356,-8280,284,-1,8,-1,0
2834557,390,-8281,291,-1,10,-2,0
2834562,413,-8284,295,-1,8,-2,0
2834567,433,-8282,282,-1,5,-2,0
2834571,437,-8284,273,-1,2,-2,0
2834577,429,-8287,257,-1,0,-2,0
2834582,421,-8286,239,-1,-1,-2,0
2834587,414,-8287,228,-1,0,-2,0
2834592,410,-8289,222,-1,1,-2,0
2834596,422,-8288,225,-1,2,-2,0
2834602,435,-8289,233,-1,3,-2,0
2834607,451,-8289,248,-1,3,-2,0
2834612,467,-8288,261,-1,3,-2,0
2834616,476,-8286,277,-1,4,-2,0
2834622,490,-8285,281,-1,4,-2,0
2834627,511,-8286,278,-1,5,-2,0
2834631,535,-8288,273,-1,6,-2,0
2834636,569,-8286,258,-1,7,-2,0
2834641,615,-8285,246,-1,6,-2,0
2834647,655,-8284,236,-1,4,-2,0
2834651,698,-8285,222,-1,1,-1,0
2834657,728,-8283,203,-1,-1,-2,0
2834661,743,-8283,187,-1,-2,-2,0
2834667,751,-8283,169,-1,-3,-1,0
2834671,750,-8285,143,-1,-3,-1,0
2834676,744,-8283,117,-1,-4,-1,0
2834681,735,-8283,85,-1,-5,-1,0
2834686,720,-8284,61,-1,-6,-1,0
2834691,708,-8286,39,-1,-6,-1,0
2834696,706,-8285,18,-1,-4,-1,0
2834701,725,-8283,3,-1,-3,-1,0
2834706,758,-8280,-7,-1,-3,-1,0
2834711,801,-8281,-10,-1,-5,-1,0
2834717,832,-8281,-10,-1,-9,-1,0
2834721,853,-8282,-5,-1,-12,-1,0
2834726,864,-8283,5,-1,-15,-1,0
2834731,859,-8277,17,-1,-16,-1,0
2834736,853,-8274,32,-1,-17,-1,0
2834741,842,-8276,43,0,-17,-1,0
2834747,822,-8278,54,0,-16,0,0
2834751,801,-8281,56,0,-14,0,0
2834757,782,-8281,58,0,-12,0,0
2834761,757,-8282,61,-1,-9,0,0
2834767,735,-8281,66,-1,-7,0,0
2834771,718,-8283,75,-1,-4,0,0
2834776,703,-8284,101,-1,-2,0,0
2834781,694,-8285,123,-1,-1,0,0
2834786,692,-8285,142,-1,0,0,0
2834792,684,-8283,157,-1,0,0,0
2834796,680,-8283,166,-1,0,0,0
2834802,676,-8283,171,-1,0,0,0
2834807,668,-8283,179,-1,-1,0,0
2834811,665,-8282,177,-1,-1,0,0
2834816,653,-8282,173,-1,-2,0,0
2834821,637,-8283,164,-1,-2,0,0
2834826,624,-8285,148,-1,-3,0,0
2834831,604,-8283,135,-1,-3,0,0
2834836,587,-8280,125,-1,-3,0,0
2834841,578,-8281,114,-1,-3,0,0
2834846,562,-8283,109,-1,-3,0,0
2834851,552,-8285,106,-1,-2,0,0
2834856,551,-8286,96,-1,-2,0,0
2834861,552,-8283,94,-1,-2,0,0
2834866,555,-8283,90,-1,-1,0,0
2834871,563,-8284,86,0,-1,0,0
2834876,566,-8283,89,0,-2,0,0
2834881,567,-8283,87,0,-2,0,0
2834886,570,-8280,90,0,-3,0,0
2834891,566,-8284,99,0,-3,0,0
2834896,564,-8283,107,0,-4,0,0
2834901,563,-8283,110,0,-4,0,0
2834906,556,-8285,113,0,-5,0,0
2834911,554,-8283,117,0,-5,0,0
2834916,554,-8281,118,0,-5,0,0
2834921,552,-8281,122,0,-5,0,0
2834926,556,-8281,132,0,-5,0,0
2834931,559,-8280,144,0,-4,0,0
2834936,556,-8283,149,0,-4,0,0
2834941,554,-8287,153,0,-4,-1,0
2834946,550,-8288,154,0,-4,-1,0
2834951,550,-8286,153,0,-4,0,0
2834956,555,-8284,153,0,-4,0,0
2834961,560,-8285,154,0,-4,-1,0
2834966,564,-8285,150,0,-4,0,0
2834971,568,-8286,144,0,-4,0,0
2834976,571,-8286,150,0,-4,-1,0
2834981,577,-8289,150,0,-4,0,0
2834986,583,-8290,150,0,-3,0,0
2834991,583,-8287,153,0,-3,0,0
2834996,584,-8289,157,0,-3,0,0
2835001,586,-8291,159,0,-2,-1,0
2835006,582,-8289,169,0,-2,0,0
2835011,577,-8290,169,0,-2,-1,0
2835016,574,-8291,171,0,-2,0,0
2835021,567,-8293,171,0,-2,-1,0
2835026,560,-8292,165,0,-1,0,0
2835031,553,-8291,164,0,-1,-1,0
2835036,551,-8292,167,0,0,-1,0
2835041,554,-8290,168,0,1,0,0
2835046,555,-8289,174,-1,1,0,0
2835051,559,-8289,175,0,1,-1,0
2835056,566,-8290,180,0,2,-1,0
2835061,566,-8290,180,-1,2,-1,0
2835066,569,-8291,180,-1,2,-1,0
2835071,577,-8286,177,-1,1,-1,0
2835076,579,-8286,173,-1,1,-1,0
2835081,576,-8284,168,-1,1,0,0
2835086,579,-8283,157,0,1,-1,0
2835091,582,-8280,146,0,1,-1,0
2835096,585,-8283,138,0,1,-1,0
2835101,594,-8282,130,0,1,0,0
2835106,600,-8280,120,0,1,0,0
2835111,605,-8278,112,0,1,0,0
2835116,615,-8278,105,0,2,0,0
2835121,622,-8279,109,0,2,0,0
2835126,636,-8279,116,0,3,0,0
2835131,649,-8278,128,-1,3,0,0
2835136,660,-8277,143,-1,3,0,0
2835141,674,-8276,160,0,3,0,0
2835146,688,-8276,175,0,2,0,0
2835151,697,-8276,184,0,1,0,0
2835156,705,-8273,187,0,0,0,0
2835161,710,-8273,183,0,1,0,0
2835166,716,-8276,175,0,1,0,0
2835171,725,-8276,166,0,2,0,0
2835176,736,-8277,153,0,3,0,0
2835181,744,-8278,139,0,4,0,0
2835186,758,-8277,126,0,4,0,0
2835191,768,-8279,119,0,3,0,0
2835196,773,-8278,116,0,3,0,0
2835201,777,-8276,109,0,2,0,0
2835206,776,-8275,103,0,1,0,0
2835211,777,-8274,97,0,1,0,0
2835216,782,-8272,89,0,0,1,0
2835221,779,-8269,81,0,0,1,0
2835226,776,-8268,68,0,0,1,0
2835231,776,-8269,51,0,1,1,0
2835236,776,-8270,44,0,3,1,0
2835241,780,-8271,31,0,5,1,0
2835246,787,-8272,22,0,7,1,0
2835251,792,-8272,14,0,8,1,0
2835256,796,-8272,1,0,8,1,0
2835261,803,-8272,-6,0,8,1,0
2835266,810,-8271,-15,0,7,1,0
2835271,820,-8272,-23,0,5,1,0
2835276,827,-8275,-31,0,4,2,7
2835281,836,-8276,-26,0,4,2,7
2835286,844,-8281,-19,0,4,2,7
2835291,856,-8279,-18,0,5,2,7
2835296,868,-8278,-9,1,6,2,7
2835301,881,-8277,-3,1,6,2,7
2835306,882,-8278,0,1,6,2,7
2835311,874,-8278,1,1,6,2,7
2835316,864,-8280,0,1,7,2,7
2835321,850,-8278,-1,1,8,2,7
2835326,843,-8279,0,1,10,2,7
2835331,851,-8279,4,1,10,3,7
2835336,856,-8280,20,1,10,3,7
2835341,857,-8281,32,1,9,3,7
2835346,857,-8281,50,1,9,3,7
2835351,840,-8280,74,1,8,3,7
2835356,815,-8277,95,1,8,3,7
2835361,782,-8277,109,1,8,3,7
2835366,727,-8279,127,1,7,3,7
2835371,665,-8278,129,1,8,3,7
2835376,595,-8279,121,1,8,3,7
2835381,522,-8281,111,1,10,3,7
2835386,448,-8284,99,1,11,3,7
2835391,378,-8286,94,1,12,2,7
2835396,308,-8285,97,1,13,2,7
2835401,237,-8284,106,1,14,2,7
2835406,155,-8285,127,1,13,2,7
2835411,58,-8286,157,1,12,1,7
2835416,-42,-8287,192,1,10,1,7
2835421,-147,-8289,235,1,9,1,7
2835426,-264,-8289,273,1,8,0,7
2835431,-375,-8288,301,1,6,0,7
2835436,-484,-8289,303,1,6,0,7
2835441,-585,-8292,278,1,5,-1,7
2835446,-688,-8295,238,1,5,-1,7
2835451,-786,-8298,188,1,5,-2,7
2835456,-882,-8300,131,1,5,-2,7
2835461,-987,-8300,89,1,5,-3,7
2835466,-1097,-8304,51,1,5,-4,7
2835471,-1210,-8306,24,1,5,-4,7
2835476,-1326,-8307,5,1,4,-5,7
2835481,-1444,-8305,-20,1,2,-6,7
2835486,-1558,-8307,-46,2,-1,-7,7
2835491,-1668,-8309,-64,2,-5,-7,7
2835496,-1781,-8309,-85,2,-10,-8,7
2835501,-1892,-8309,-96,2,-13,-9,7
2835506,-1991,-8310,-93,2,-15,-10,7
2835511,-2072,-8311,-62,2,-15,-11,7
2835516,-2129,-8307,-13,2,-14,-11,7
2835521,-2165,-8300,50,2,-13,-12,7
2835526,-2181,-8293,119,2,-13,-13,7
2835531,-2176,-8287,186,2,-12,-14,7
2835536,-2160,-8279,266,2,-13,-15,7
2835541,-2146,-8274,353,1,-14,-16,7
2835546,-2128,-8269,439,1,-16,-17,7
2835551,-2115,-8263,524,1,-16,-17,7
2835556,-2104,-8256,598,1,-16,-18,7
2835561,-2083,-8248,669,1,-13,-19,7
2835566,-2056,-8242,740,0,-10,-20,7
2835571,-2003,-8233,796,0,-6,-20,7
2835576,-1915,-8227,840,0,-3,-21,7
2835581,-1812,-8220,879,-1,-2,-22,7
2835586,-1702,-8210,908,-1,-2,-22,7
2835591,-1588,-8199,927,-1,-1,-23,7
2835596,-1467,-8188,937,-1,1,-23,7
2835601,-1332,-8176,939,-2,2,-24,7
2835606,-1173,-8164,935,-2,3,-24,7
2835611,-988,-8153,927,-2,3,-24,7
2835616,-786,-8143,912,-2,2,-24,7
2835621,-581,-8129,906,-3,3,-25,7
2835626,-370,-8117,906,-3,5,-25,7
2835631,-157,-8104,906,-3,7,-25,7
2835636,50,-8091,908,-3,9,-25,7
2835641,250,-8082,906,-3,12,-25,7
2835646,443,-8071,891,-3,15,-25,7
2835651,625,-8061,869,-3,19,-25,7
2835656,800,-8051,841,-4,22,-24,7
2835661,969,-8045,816,-4,26,-24,7
2835666,1140,-8036,775,-4,29,-24,7
2835671,1315,-8033,732,-4,32,-23,7
2835676,1503,-8030,683,-4,34,-23,7
2835681,1701,-8027,637,-4,34,-22,7
2835686,1906,-8022,587,-4,32,-22,7
2835691,2104,-8020,527,-4,30,-21,7
2835696,2287,-8018,463,-3,27,-21,7
2835701,2449,-8017,397,-3,26,-20,7
2835706,2593,-8018,332,-3,24,-19,7
2835711,2715,-8019,265,-2,23,-18,7
2835716,2825,-8022,203,-2,20,-18,7
2835721,2923,-8023,153,-2,16,-17,7
2835726,3007,-8029,123,-2,11,-16,7
2835731,3077,-8032,103,-1,6,-16,7
2835736,3132,-8039,101,-1,3,-15,7
2835741,3176,-8050,124,-1,1,-14,7
2835746,3211,-8059,158,-2,1,-14,7
2835751,3244,-8067,211,-2,1,-13,7
2835756,3270,-8073,277,-2,1,-12,7
2835761,3299,-8082,349,-3,1,-12,7
2835766,3361,-8088,448,-3,0,-12,7
2835771,3464,-8092,577,-3,-1,-11,7
2835776,3578,-8094,719,-3,-2,-11,7
2835781,3668,-8096,878,-4,-5,-11,7
2835786,3706,-8103,1034,-4,-9,-11,7
2835791,3690,-8108,1186,-4,-12,-10,7
2835796,3626,-8112,1338,-5,-14,-10,7
2835801,3523,-8119,1485,-5,-15,-9,7
2835806,3407,-8128,1623,-6,-16,-9,7
2835811,3308,-8132,1757,-7,-16,-8,7
2835816,3233,-8137,1885,-7,-16,-7,7
2835821,3194,-8139,2014,-8,-15,-6,7
2835826,3182,-8138,2125,-9,-13,-6,7
2835831,3185,-8136,2227,-10,-11,-6,7
2835836,3205,-8135,2354,-11,-8,-5,7
2835841,3230,-8135,2482,-12,-6,-5,7
2835846,3247,-8134,2594,-13,-4,-5,7
2835851,3245,-8131,2691,-14,-3,-4,7
2835856,3224,-8126,2775,-15,-2,-4,7
2835861,3186,-8120,2839,-16,-1,-4,7
2835866,3147,-8114,2885,-17,1,-3,7
2835871,3120,-8103,2918,-18,4,-2,7
2835876,3120,-8097,2938,-18,6,-2,7
2835881,3155,-8089,2937,-18,7,-1,7
2835886,3208,-8078,2916,-19,8,0,7
2835891,3234,-8068,2880,-20,7,0,7
2835896,3205,-8058,2830,-20,5,0,7
2835901,3122,-8053,2772,-21,2,-1,7
2835906,3016,-8048,2743,-22,2,-1,7
2835911,2922,-8045,2722,-23,3,0,7
2835916,3086,-8001,2486,-24,4,2,7
2835921,3603,-7995,2046,-22,10,7,7
2835926,4065,-7979,1870,-21,11,10,7
2835931,4487,-7954,1648,-21,5,10,7
2835936,4950,-7931,1365,-21,5,10,7
2835941,5390,-7915,1143,-21,8,9,7
2835946,5662,-7901,873,-22,7,9,7
2835951,5753,-7887,588,-22,0,9,7
2835956,5715,-7880,302,-23,-7,10,7
2835961,5543,-7876,27,-23,-7,12,7
2835966,5318,-7873,-238,-23,-3,14,7
2835971,5174,-7870,-479,-23,3,16,7
2835976,5116,-7864,-691,-22,11,18,7
2835981,5160,-7856,-896,-22,18,20,7
2835986,5318,-7843,-1115,-21,23,21,7
2835991,5532,-7827,-1349,-20,26,22,7
2835996,5746,-7808,-1583,-19,26,23,7
2836001,5913,-7789,-1825,-18,21,24,7
2836006,5997,-7778,-2106,-17,15,24,7
2836011,5996,-7769,-2515,-17,9,25,7
2836016,5910,-7767,-2818,-16,4,26,7
2836021,5722,-7756,-3199,-16,0,27,7
2836026,5478,-7748,-3574,-14,-3,28,7
2836031,5237,-7739,-3786,-12,-6,29,7
2836036,5010,-7733,-4083,-12,-8,31,7
2836041,4807,-7725,-4244,-11,-10,32,7
2836046,4671,-7722,-4354,-9,-11,33,7
2836051,4584,-7715,-4420,-8,-12,34,7
2836056,4519,-7702,-4377,-7,-14,35,7
2836061,4430,-7688,-4349,-5,-17,35,7
2836066,4276,-7675,-4293,-4,-20,35,7
2836071,4055,-7665,-4242,-2,-23,36,7
2836076,3794,-7655,-4211,-1,-25,36,7
2836081,3537,-7646,-4168,0,-26,37,7
2836086,3298,-7638,-4148,1,-25,38,7
2836091,2925,-7628,-4266,2,-26,38,7
2836096,2549,-7626,-4355,4,-30,37,7
2836101,2244,-7630,-4465,6,-32,37,7
2836106,1911,-7637,-4666,7,-30,37,7
2836111,1543,-7635,-4758,7,-28,37,7
2836116,1232,-7636,-4844,8,-24,37,7
2836121,999,-7633,-4850,9,-21,37,7
2836126,784,-7631,-4802,11,-21,36,7
2836131,562,-7632,-4773,13,-21,36,7
2836136,338,-7629,-4742,14,-22,35,7
2836141,113,-7630,-4753,16,-23,34,7
2836146,-117,-7633,-4771,17,-24,33,7
2836151,-299,-7639,-4782,18,-26,32,7
2836156,-437,-7645,-4776,18,-26,32,7
2836161,-851,-7640,-4744,19,-26,32,7
2836166,-1355,-7644,-4648,20,-30,28,7
2836171,-1717,-7665,-4520,22,-31,26,7
2836176,-2131,-7672,-4475,23,-33,26,7
2836181,-2636,-7681,-4338,24,-37,27,7
2836186,-3044,-7693,-4159,25,-38,26,7
2836191,-3241,-7703,-3969,26,-36,26,7
2836196,-3318,-7711,-3713,27,-32,25,7
2836201,-3306,-7718,-3437,28,-30,24,7
2836206,-3149,-7719,-3151,29,-29,22,7
2836211,-3021,-7725,-2864,29,-31,21,7
2836216,-3004,-7734,-2607,30,-36,19,7
2836221,-3035,-7745,-2392,31,-42,16,7
2836226,-3161,-7756,-2240,31,-49,15,7
2836231,-3417,-7772,-2110,31,-55,14,7
2836236,-3701,-7781,-1963,32,-60,13,7
2836241,-3948,-7789,-1821,32,-61,12,7
2836246,-4095,-7798,-1670,32,-60,12,7
2836251,-4114,-7807,-1470,33,-59,11,7
2836256,-4083,-7818,-1194,32,-57,10,7
2836261,-4000,-7821,-865,32,-55,7,7
2836266,-3867,-7822,-560,31,-52,5,7
2836271,-3797,-7826,-276,31,-50,3,7
2836276,-3793,-7836,2,32,-51,2,7
2836281,-3841,-7847,267,32,-52,0,7
2836286,-3934,-7857,473,31,-52,-1,7
2836291,-4014,-7865,632,31,-52,-1,7
2836296,-4060,-7873,777,31,-51,-2,7
2836301,-4030,-7882,904,30,-48,-3,7
2836306,-3895,-7884,972,30,-43,-4,7
2836311,-3680,-7882,997,30,-39,-5,7
2836316,-3433,-7886,1040,30,-35,-6,7
2836321,-3212,-7897,1119,29,-32,-7,7
2836326,-3066,-7906,1271,28,-29,-9,7
2836331,-3004,-7910,1494,26,-26,-11,7
2836336,-3036,-7910,1755,25,-23,-12,7
2836341,-3113,-7918,2046,25,-25,-12,7
2836346,-3186,-7921,2348,25,-28,-12,7
2836351,-3221,-7926,2598,25,-33,-12,7
2836356,-3171,-7929,2767,24,-37,-13,7
2836361,-3054,-7936,2879,24,-38,-14,7
2836366,-2916,-7943,2954,22,-36,-15,7
2836371,-2766,-7947,3002,21,-32,-16,7
2836376,-2645,-7950,3056,20,-25,-18,7
2836381,-2572,-7951,3120,19,-19,-19,7
2836386,-2519,-7946,3144,19,-16,-20,7
2836391,-2487,-7949,3167,18,-16,-20,7
2836396,-2472,-7959,3204,18,-19,-20,7
2836401,-2422,-7960,3168,17,-21,-21,7
2836406,-2365,-7970,3251,16,-22,-21,7
2836411,-2282,-7979,3424,14,-19,-22,7
2836416,-2166,-7981,3544,12,-13,-22,7
2836421,-2101,-7981,3747,10,-9,-22,7
2836426,-2045,-7979,3965,9,-7,-23,7
2836431,-1957,-7974,4184,8,-3,-23,7
2836436,-1879,-7973,4430,7,0,-23,7
2836441,-1791,-7971,4644,6,3,-24,7
2836446,-1695,-7970,4841,5,6,-24,7
2836451,-1598,-7966,5025,3,11,-25,7
2836456,-1472,-7960,5116,2,18,-25,7
2836461,-1358,-7955,5259,1,26,-26,7
2836466,-1243,-7952,5431,0,35,-27,7
2836471,-1082,-7950,5512,-1,44,-27,7
2836476,-917,-7950,5579,-2,50,-28,7
2836481,-761,-7949,5630,-3,51,-28,7
2836486,-626,-7948,5624,-4,50,-28,7
2836491,-513,-7947,5601,-5,47,-28,7
2836496,-419,-7944,5540,-6,45,-28,7
2836501,-327,-7938,5451,-8,45,-28,7
2836506,-219,-7930,5376,-9,47,-28,7
2836511,-100,-7925,5304,-10,51,-28,7
2836516,28,-7914,5247,-11,56,-28,7
2836521,172,-7907,5212,-12,59,-29,7
2836526,321,-7897,5197,-13,62,-29,7
2836531,454,-7886,5208,-14,64,-29,7
2836536,578,-7872,5217,-15,64,-29,7
2836541,687,-7860,5224,-16,64,-29,7
2836546,775,-7848,5217,-17,63,-29,7
2836551,824,-7846,5155,-17,62,-29,7
2836556,813,-7836,4964,-18,60,-29,7
2836561,817,-7825,4829,-19,58,-29,7
2836566,920,-7823,4748,-20,63,-29,7
2836571,1083,-7815,4657,-21,68,-28,7
2836576,1258,-7803,4576,-22,68,-27,7
2836581,1412,-7791,4534,-23,66,-26,7
2836586,1561,-7776,4496,-23,64,-27,7
2836591,1781,-7758,4437,-24,64,-27,7
2836596,2023,-7745,4357,-24,65,-27,7
2836601,2213,-7736,4246,-24,65,-27,7
2836606,2321,-7727,4104,-25,63,-27,7
2836611,2363,-7721,3932,-25,62,-27,7
2836616,2359,-7719,3746,-26,65,-27,7
2836621,2322,-7719,3560,-27,69,-26,7
2836626,2279,-7720,3384,-27,71,-26,7
2836631,2259,-7722,3229,-28,73,-26,7
2836636,2269,-7721,3080,-28,74,-25,7
2836641,2321,-7716,2942,-28,74,-25,7
2836646,2421,-7708,2817,-28,73,-24,7
2836651,2531,-7701,2671,-28,71,-24,7
2836656,2599,-7695,2509,-28,68,-24,7
2836661,2629,-7692,2352,-28,63,-25,7
2836666,2633,-7692,2196,-28,61,-25,7
2836671,2621,-7689,2033,-28,60,-25,7
2836676,2768,-7670,1719,-28,60,-24,7
2836681,3046,-7663,1280,-26,63,-20,7
2836686,3275,-7665,1050,-23,63,-18,7
2836691,3528,-7669,799,-22,58,-18,7
2836696,3830,-7680,534,-21,55,-18,7
2836701,4123,-7710,266,-20,54,-19,7
2836706,4319,-7731,-115,-21,50,-19,7
2836711,4395,-7744,-571,-21,42,-19,7
2836716,4395,-7768,-1055,-21,38,-18,7
2836721,4334,-7797,-1487,-20,39,-17,7
2836726,4264,-7825,-1844,-20,39,-16,7
2836731,4265,-7851,-2137,-19,39,-14,7
2836736,4322,-7874,-2347,-19,38,-13,7
2836741,4447,-7893,-2483,-18,35,-11,7
2836746,4649,-7906,-2558,-16,32,-10,7
2836751,4876,-7918,-2592,-15,29,-9,7
2836756,5092,-7929,-2618,-14,24,-9,7
2836761,5276,-7941,-2644,-13,18,-8,7
2836766,5397,-7953,-2693,-11,12,-7,7
2836771,5447,-7970,-2752,-10,7,-6,7
2836776,5435,-7993,-2845,-9,2,-5,7
2836781,5363,-8013,-2957,-8,0,-4,7
2836786,5271,-8034,-3030,-8,0,-3,7
2836791,5194,-8053,-3068,-7,1,-1,7
2836796,5148,-8065,-3033,-6,3,0,7
2836801,5158,-8074,-2951,-6,4,2,7
2836806,5214,-8078,-2830,-5,4,3,7
2836811,5300,-8079,-2683,-4,3,4,7
2836816,5417,-8082,-2541,-3,2,5,7
2836821,5522,-8084,-2400,-2,1,6,7
2836826,5613,-8083,-2276,-2,0,7,7
2836831,5684,-8083,-2161,-1,0,8,7
2836836,5726,-8081,-2039,-1,1,10,7
2836841,5755,-8081,-1909,-1,0,11,7
2836846,5776,-8081,-1760,0,0,12,7
2836851,5806,-8079,-1599,0,-1,14,7
2836856,5867,-8075,-1427,0,-1,16,7
2836861,5958,-8067,-1249,0,-1,17,7
2836866,6067,-8052,-1060,0,-1,19,7
2836871,6193,-8036,-858,0,-1,20,7
2836876,6318,-8021,-639,0,-1,22,7
2836881,6422,-8005,-411,0,-1,23,7
2836886,6491,-7987,-182,-1,0,24,7
2836891,6511,-7965,46,-1,1,26,7
2836896,6486,-7940,272,-1,2,27,7
2836901,6405,-7914,464,-1,3,28,7
2836906,6281,-7890,630,-2,3,30,7
2836911,6105,-7868,764,-2,3,31,7
2836916,5891,-7845,864,-2,2,32,7
2836921,5641,-7823,933,-2,2,33,7
2836926,5362,-7802,985,-3,1,34,7
2836931,5048,-7784,1013,-3,0,34,7
2836936,4692,-7767,1013,-3,0,35,7
2836941,4318,-7749,998,-3,0,35,7
2836946,3952,-7733,963,-4,2,36,7
2836951,3575,-7721,907,-4,4,36,7
2836956,3173,-7714,841,-4,4,36,7
2836961,2729,-7717,765,-4,3,36,7
2836966,2290,-7723,658,-4,2,34,7
2836971,1951,-7758,536,-4,3,32,7
2836976,1671,-7812,412,-4,4,31,7
2836981,1417,-7814,248,-5,2,31,7
2836986,1070,-7812,101,-4,0,33,7
2836991,590,-7814,-18,-4,-2,33,7
2836996,99,-7815,-51,-4,-3,33,7
2837001,-577,-7812,-117,-4,-2,32,7
2837006,-1401,-7825,-202,-3,-9,28,7
2837011,-1942,-7839,-275,-2,-15,26,7
2837016,-2611,-7872,-360,-2,-16,26,7
2837021,-3403,-7912,-445,-2,-24,27,7
2837026,-3876,-7948,-550,-1,-29,26,7
2837031,-4115,-7983,-575,-1,-27,25,7
2837036,-4205,-8017,-564,-1,-23,23,7
2837041,-4153,-8049,-475,-2,-19,21,7
2837046,-3980,-8073,-339,-2,-17,18,7
2837051,-3891,-8094,-184,-2,-15,16,7
2837056,-3979,-8116,-28,-2,-17,14,7
2837061,-4084,-8139,69,-1,-21,12,7
2837066,-4324,-8162,137,-1,-22,11,7
2837071,-4642,-8191,128,0,-26,10,7
2837076,-4782,-8216,37,0,-27,9,7
2837081,-4863,-8241,-31,0,-25,9,7
2837086,-4833,-8265,-90,-1,-21,8,7
2837091,-4585,-8278,-105,-2,-15,6,7
2837096,-4290,-8287,-27,-2,-8,5,7
2837101,-3910,-8295,37,-2,-4,3,7
2837106,-3529,-8293,157,-2,-2,1,7
2837111,-3333,-8289,341,-2,-5,0,7
2837116,-3170,-8287,401,-1,-10,0,7
2837121,-2994,-8290,408,-1,-12,-1,7
2837126,-2952,-8295,410,-1,-13,-1,7
2837131,-2868,-8303,299,-1,-14,-1,7
2837136,-2732,-8303,215,-2,-13,-1,7
2837141,-2563,-8306,152,-2,-8,-1,7
2837146,-2306,-8304,117,-2,-1,-2,7
2837151,-1955,-8300,137,-3,5,-2,7
2837156,-1580,-8297,165,-3,8,-3,7
2837161,-1264,-8293,216,-3,7,-3,7
2837166,-977,-8289,248,-2,5,-4,7
2837171,-723,-8286,232,-2,3,-4,7
2837176,-571,-8287,193,-2,2,-4,7
2837181,-456,-8286,106,-2,0,-4,7
2837186,-360,-8285,-2,-2,-1,-4,7
2837191,-311,-8289,-102,-2,-1,-4,7
2837196,-243,-8290,-196,-2,-1,-3,7
2837201,-125,-8287,-267,-2,0,-3,7
2837206,-3,-8286,-302,-2,0,-3,7
2837211,159,-8283,-311,-2,-1,-2,7
2837216,351,-8276,-303,-2,-2,-2,7
2837221,512,-8271,-289,-1,-3,-2,7
2837226,668,-8269,-283,-1,-5,-2,7
2837231,787,-8269,-287,-1,-6,-2,7
2837236,845,-8269,-299,0,-7,-2,7
2837241,879,-8270,-332,0,-8,-2,7
2837246,867,-8269,-370,0,-8,-2,7
2837251,835,-8266,-398,0,-8,-1,7
2837256,819,-8266,-421,0,-7,-1,7
2837261,791,-8265,-424,0,-7,-1,7
2837266,784,-8267,-414,0,-6,0,7
2837271,805,-8266,-394,0,-5,0,7
2837276,825,-8266,-356,0,-5,0,0
2837281,852,-8266,-311,0,-5,0,0
2837286,874,-8265,-267,0,-6,0,0
2837291,863,-8263,-227,0,-8,0,0
2837296,830,-8263,-197,1,-9,0,0
2837301,778,-8266,-176,1,-10,0,0
2837306,712,-8269,-163,1,-11,0,0
2837311,648,-8272,-166,1,-11,0,0
2837316,595,-8275,-164,1,-11,1,0
2837321,553,-8274,-155,1,-11,1,0
2837326,527,-8276,-149,1,-11,1,0
2837331,520,-8276,-138,1,-11,1,0
2837336,513,-8278,-123,1,-11,1,0
2837341,509,-8277,-106,1,-11,1,0
2837346,492,-8278,-84,1,-11,1,0
2837351,456,-8275,-60,1,-11,0,0
2837356,402,-8274,-49,1,-12,0,0
2837361,328,-8274,-40,1,-12,0,0
2837366,243,-8274,-36,1,-11,0,0
2837371,159,-8277,-36,1,-10,0,0
2837376,90,-8279,-31,1,-8,0,0
2837381,40,-8279,-19,1,-7,0,0
2837386,11,-8280,-3,1,-6,0,0
2837391,1,-8278,16,1,-5,0,0
2837396,-2,-8279,31,1,-4,0,0
2837401,2,-8279,42,1,-3,0,0
2837406,14,-8279,62,1,-3,0,0
2837411,13,-8281,71,1,-4,0,0
2837416,4,-8283,81,1,-5,-1,0
2837421,-5,-8286,83,1,-5,-1,0
2837426,-23,-8285,76,1,-5,-1,0
2837431,-31,-8287,71,1,-5,-1,0
2837436,-29,-8287,60,1,-5,-1,0
2837441,-24,-8290,51,1,-5,-1,0
2837446,-3,-8290,49,1,-5,-1,0
2837451,20,-8288,47,1,-5,-1,0
2837456,44,-8286,46,1,-5,-1,0
2837461,67,-8286,52,1,-6,-1,0
2837466,81,-8286,59,1,-7,-1,0
2837471,85,-8286,73,1,-7,-1,0
2837476,86,-8286,88,1,-7,-1,0
2837481,77,-8285,107,1,-7,-1,0
2837486,59,-8284,133,1,-7,-1,0
2837491,49,-8284,166,1,-6,-2,0
2837496,44,-8285,203,1,-5,-1,0
2837501,47,-8283,238,1,-5,-1,0
2837506,64,-8281,262,0,-4,-1,0
2837511,85,-8284,282,0,-4,-2,0
2837516,110,-8285,295,0,-5,-2,0
2837521,136,-8286,300,0,-5,-2,0
2837526,149,-8284,290,0,-5,-2,0
2837531,163,-8278,273,0,-5,-2,0
2837536,173,-8278,255,0,-5,-2,0
2837541,176,-8278,239,0,-5,-2,0
2837546,183,-8278,221,0,-6,-2,0
2837551,191,-8279,200,0,-7,-2,0
2837556,193,-8283,190,0,-8,-2,0
2837561,202,-8282,183,0,-9,-2,0
2837566,211,-8285,188,0,-9,-2,0
2837571,212,-8289,200,0,-10,-2,0
2837576,213,-8291,218,0,-10,-2,0
2837581,204,-8291,245,0,-10,-2,0
2837586,188,-8289,269,0,-9,-2,0
2837591,168,-8288,295,0,-9,-2,0
2837596,149,-8285,322,0,-8,-2,0
2837601,128,-8283,350,0,-8,-2,0
2837606,115,-8280,373,-1,-7,-2,0
2837611,105,-8276,400,-1,-5,-2,0
2837616,103,-8275,421,-1,-4,-2,0
2837621,116,-8274,438,-1,-2,-2,0
2837626,133,-8272,450,-1,-1,-2,0
2837631,157,-8272,455,-1,0,-2,0
2837636,186,-8271,449,-1,0,-2,0
2837641,210,-8271,438,-1,0,-2,0
2837646,232,-8272,418,-1,0,-2,0
2837651,254,-8272,393,-1,0,-2,0
2837656,271,-8274,358,-1,0,-2,0
2837661,291,-8277,321,-1,1,-2,0
2837666,314,-8280,285,-1,0,-2,0
2837671,344,-8282,249,-1,0,-2,0
2837676,394,-8284,207,-1,-1,-2,0
2837681,414,-8284,173,-1,-1,-2,0
2837686,415,-8284,146,-1,-2,-2,0
2837691,415,-8283,114,-1,-2,-2,0
2837696,430,-8280,91,-1,-2,-2,0
2837701,440,-8279,73,-1,-2,-2,0
2837706,446,-8278,56,-1,-2,-2,0
2837711,455,-8279,53,-1,-2,-2,0
2837716,470,-8280,53,-1,-2,-2,0
2837721,482,-8281,59,-1,-1,-2,0
2837726,489,-8280,65,-1,-1,-2,0
2837731,494,-8280,71,-1,0,-2,0
2837736,495,-8283,78,-1,0,-1,0
2837741,496,-8286,71,-1,0,-1,0
2837746,501,-8285,59,-1,0,-1,0
2837751,504,-8285,43,-1,0,-1,0
2837756,504,-8284,22,-1,0,-1,0
2837761,508,-8281,1,-1,0,-1,0
2837766,509,-8282,-17,-1,-1,-1,0
2837771,506,-8283,-32,-1,-1,-1,0
2837776,500,-8282,-41,-1,-1,-1,0
2837781,496,-8284,-37,-1,-1,-1,0
2837786,490,-8287,-28,-1,-1,-1,0
2837791,481,-8288,-19,-1,-1,-1,0
2837796,472,-8287,-15,-1,-2,-1,0
2837801,457,-8289,-9,-1,-2,-1,0
2837806,439,-8289,-1,-1,-2,-1,0
2837811,427,-8288,13,-1,-2,-1,0
2837816,411,-8287,27,-1,-2,-1,0
2837821,401,-8287,34,-1,-2,-1,0
2837826,390,-8284,34,-1,-2,-1,0
2837831,383,-8284,39,-1,-2,-1,0
2837836,383,-8285,39,-1,-2,-1,0
2837841,384,-8284,35,-1,-2,-1,0
2837846,375,-8285,34,-1,-3,-1,0
2837851,368,-8284,30,-1,-3,-1,0
2837856,355,-8283,31,-1,-3,-1,0
2837861,335,-8286,40,-1,-3,-1,0
2837866,316,-8285,52,-1,-2,-1,0
2837871,299,-8284,71,-1,-2,-1,0
2837876,287,-8285,89,-1,-1,-1,0
2837881,287,-8286,102,-1,-2,-1,0
2837886,290,-8287,110,-1,-2,-1,0
2837891,293,-8285,110,-1,-2,-1,0
2837896,303,-8283,109,-1,-3,-1,0
2837901,313,-8283,106,-1,-3,-1,0
2837906,316,-8283,107,-1,-3,-1,0
2837911,322,-8285,106,-1,-2,-1,0
2837916,319,-8285,108,-1,-2,-1,0
2837921,313,-8287,110,-1,-2,-1,0
2837926,310,-8288,114,-1,-3,-1,0
2837931,308,-8286,119,-1,-3,-1,0
2837936,310,-8286,119,-1,-4,-1,0
2837941,318,-8285,112,-1,-4,-1,0
2837946,328,-8286,102,-1,-4,-1,0
2837951,338,-8285,92,-1,-5,-1,0
2837956,349,-8285,81,-1,-5,-1,0
2837961,358,-8282,69,-1,-5,-1,0
2837966,369,-8281,67,-1,-5,-1,0
2837971,376,-8282,57,-1,-5,-1,0
2837976,384,-8283,47,-1,-4,-1,0
2837981,390,-8282,36,-1,-4,-1,0
2837986,397,-8281,22,-1,-4,-1,0
2837991,406,-8281,14,-1,-4,-1,0
2837996,421,-8279,4,-1,-3,-1,0
2838001,428,-8279,0,-1,-3,-1,0
2838006,428,-8280,-3,-1,-3,-1,0
2838011,421,-8280,5,-1,-2,-1,0
2838016,410,-8282,23,-1,-1,-1,0
2838021,397,-8284,41,-1,-1,-1,0
2838026,392,-8285,46,-1,-1,-1,0
2838031,386,-8283,47,0,-1,-1,0
2838036,385,-8283,39,0,-1,-1,0
2838041,391,-8281,22,0,-1,-1,0
2838046,399,-8282,1,0,-1,-1,0
2838051,405,-8283,-22,0,-2,-1,0
2838056,411,-8284,-45,0,-2,-1,0
2838061,409,-8285,-60,0,-2,-1,0
2838066,401,-8286,-72,0,-2,-1,0
2838071,399,-8287,-74,0,-2,-1,0
2838076,391,-8286,-66,0,-3,-1,0
2838081,384,-8285,-55,0,-4,-1,0
2838086,379,-8284,-44,0,-4,-1,0
2838091,373,-8287,-25,0,-5,-1,0
2838096,362,-8287,2,0,-5,-1,0
2838101,355,-8288,32,0,-5,-1,0
2838106,347,-8288,60,0,-4,-1,0
2838111,343,-8288,85,0,-3,-1,0
2838116,343,-8288,106,0,-3,-1,0
2838121,344,-8289,117,0,-3,-1,0
2838126,350,-8291,119,0,-3,-1,0
2838131,358,-8292,108,0,-4,-1,0
2838136,367,-8290,93,0,-4,-1,0
2838141,376,-8288,66,0,-4,-1,0
2838146,375,-8287,38,0,-4,-1,0
2838151,370,-8287,19,0,-5,-1,0
2838156,364,-8287,2,0,-5,-1,0
2838161,353,-8285,-2,0,-5,-1,0
2838166,340,-8285,-2,0,-5,-1,0
2838171,331,-8279,-1,0,-5,-1,0
2838176,325,-8279,1,0,-5,-1,0
2838181,327,-8280,1,0,-6,-1,0
2838186,332,-8276,-2,0,-6,-1,0
2838191,334,-8276,-5,0,-6,-1,0
2838196,333,-8277,-10,0,-7,-1,0
2838201,332,-8278,-10,0,-7,-1,0
2838206,327,-8276,-2,0,-6,-1,0
2838211,322,-8275,4,0,-6,-1,0
2838216,314,-8277,18,0,-6,-1,0
2838221,304,-8279,35,0,-6,-1,0
2838226,300,-8279,47,0,-6,-1,0
2838231,302,-8279,60,0,-6,-1,0
2838236,307,-8278,69,0,-6,-1,0
2838241,313,-8281,76,0,-7,-1,0
2838246,319,-8280,84,0,-7,-1,0
2838251,319,-8280,87,0,-7,-1,0
2838256,318,-8281,93,0,-7,-1,0
2838261,320,-8282,90,0,-7,-1,0
2838266,319,-8283,87,1,-7,-1,0
2838271,320,-8284,76,0,-8,-1,0
2838276,326,-8282,62,1,-8,-1,0
2838281,332,-8283,52,1,-8,-1,0
2838286,342,-8279,40,1,-9,-1,0
2838291,349,-8280,29,1,-9,-1,0
2838296,350,-8282,16,1,-9,-1,0
2838301,347,-8285,10,1,-10,-1,0
2838306,337,-8286,11,1,-10,-1,0
2838311,322,-8284,20,1,-10,-1,0
2838316,304,-8282,39,1,-10,-1,0
2838321,290,-8282,59,1,-10,-1,0
2838326,279,-8284,77,1,-9,-1,0
2838331,282,-8283,98,1,-9,-1,0
2838336,286,-8282,114,1,-8,-1,0
2838341,290,-8282,127,1,-8,-1,0
2838346,299,-8284,129,1,-8,-1,0
2838351,303,-8285,131,1,-8,-1,0
2838356,303,-8285,133,1,-8,-1,0
2838361,303,-8285,143,1,-8,-1,0
2838366,299,-8283,153,1,-9,-1,0
2838371,295,-8283,153,1,-10,-1,0
2838376,290,-8285,155,1,-10,-1,0
2838381,285,-8284,161,1,-11,-1,0
2838386,285,-8284,165,1,-11,-1,0
2838391,294,-8286,169,1,-11,-1,0
2838396,302,-8286,184,1,-11,-1,0
2838401,312,-8285,197,1,-11,-1,0
2838406,322,-8284,207,1,-11,-1,0
2838411,332,-8285,218,1,-11,-1,0
2838416,339,-8282,234,0,-11,-1,0
2838421,342,-8280,239,0,-10,-1,0
2838426,341,-8283,237,0,-10,-1,0
2838431,343,-8287,239,0,-9,-1,0
2838436,340,-8288,241,0,-8,-1,0
2838441,335,-8286,247,0,-7,-1,0
2838446,332,-8287,254,0,-7,-1,0
2838451,335,-8286,264,0,-6,-1,0
2838456,340,-8287,274,0,-6,-1,0
2838461,348,-8289,278,0,-6,-1,0
2838466,355,-8290,281,0,-6,-1,0
2838471,359,-8291,280,0,-6,-1,0
2838476,366,-8290,284,0,-5,-1,0
2838481,369,-8287,290,0,-5,-1,0
2838486,372,-8287,300,0,-4,-1,0
2838491,378,-8286,312,0,-4,-1,0
2838496,384,-8287,323,0,-3,-1,0
2838501,398,-8286,326,0,-3,-1,0
2838506,412,-8286,328,0,-3,-1,0
2838511,430,-8289,322,0,-2,-1,0
2838516,449,-8291,313,0,-2,-1,0
2838521,469,-8292,299,0,-2,-1,0
2838526,486,-8291,288,0,-2,-1,0
2838531,494,-8291,273,0,-2,-1,0
2838536,499,-8291,266,0,-2,-1,0
2838541,499,-8291,261,-1,-2,-1,0
2838546,502,-8292,264,-1,-3,-1,0
2838551,501,-8292,266,-1,-3,-1,0
2838556,501,-8291,271,-1,-4,-1,0
2838561,500,-8290,276,-1,-4,-1,0
2838566,495,-8291,284,-1,-5,-1,0
2838571,488,-8288,293,-1,-5,-1,0
2838576,486,-8288,304,-1,-4,-1,0
2838581,482,-8287,313,-1,-4,-1,0
2838586,476,-8287,316,-1,-4,-1,0
2838591,471,-8286,306,-1,-3,-1,0
2838596,466,-8285,294,-1,-3,-1,0
2838601,457,-8288,284,-1,-3,-1,0
2838606,451,-8286,271,-1,-2,-1,0
2838611,449,-8285,249,-1,-1,-1,0
2838616,452,-8284,219,-1,-1,-1,0
2838621,460,-8285,197,-1,-1,-1,0
2838626,466,-8286,177,-1,0,-1,0
2838631,471,-8285,154,-1,0,0,0
2838636,477,-8285,134,-1,-1,0,0
2838641,476,-8285,116,-1,-1,0,0
2838646,476,-8285,91,-1,-1,0,0
2838651,479,-8283,62,-1,-1,-1,0
2838656,457,-8281,77,-1,-1,0,0
2838661,428,-8282,101,-1,-1,0,0
2838666,412,-8282,117,-1,-1,0,0
2838671,395,-8282,140,-1,-2,0,0
2838676,380,-8283,153,-1,-2,0,0
2838681,378,-8283,161,-1,-2,0,0
2838686,384,-8281,156,-1,-2,0,0
2838691,385,-8280,146,-1,-1,0,0
2838696,378,-8279,135,-1,-1,-1,0
2838701,374,-8278,123,-1,-1,-1,0
2838706,369,-8281,116,-1,-1,-1,0
2838711,361,-8282,105,-1,-1,-1,0
2838716,355,-8284,90,-1,-2,-1,0
2838721,350,-8284,76,-1,-2,-1,0
2838726,344,-8285,70,0,-3,-1,0
2838731,346,-8287,64,0,-3,-1,0
2838736,351,-8285,60,0,-3,-1,0
2838741,356,-8285,61,0,-3,-1,0
2838746,363,-8284,65,0,-4,-1,0
2838751,368,-8282,70,0,-4,-1,0
2838756,375,-8281,74,0,-4,-1,0
2838761,381,-8279,72,0,-4,-1,0
2838766,383,-8281,64,0,-4,-1,0
2838771,386,-8282,56,0,-4,-1,0
2838776,386,-8283,46,0,-4,-1,0
2838781,381,-8282,41,0,-4,-1,0
2838786,381,-8281,39,0,-4,-1,0
2838791,381,-8279,40,0,-4,-1,0
2838796,384,-8278,42,0,-4,-1,0
2838801,392,-8278,49,0,-4,-1,0
2838806,400,-8279,54,0,-4,-1,0
2838811,407,-8280,55,0,-4,0,0
2838816,414,-8282,51,0,-5,-1,0
2838821,415,-8279,49,0,-5,-1,0
2838826,415,-8280,50,0,-5,-1,0
2838831,407,-8282,54,0,-5,-1,0
2838836,402,-8283,65,0,-6,-1,0
2838841,397,-8282,80,0,-6,-1,0
2838846,392,-8286,98,0,-6,-1,0
2838851,385,-8285,109,0,-7,0,0
2838856,384,-8283,115,0,-6,0,0
2838861,386,-8285,116,0,-6,-1,0
2838866,391,-8285,122,0,-6,-1,0
2838871,392,-8285,124,0,-6,-1,0
2838876,398,-8283,124,0,-5,-1,0
2838881,400,-8285,133,0,-5,-1,0
2838886,400,-8286,144,0,-6,-1,0
2838890,394,-8290,162,0,-6,-1,0
2838896,386,-8292,182,0,-6,-1,0
2838900,381,-8292,203,0,-7,-1,0
2838905,379,-8293,225,0,-7,-1,0
2838911,380,-8290,246,0,-7,-1,0
2838915,376,-8288,265,0,-8,-1,0
2838921,372,-8289,280,0,-8,-1,0
2838925,363,-8290,294,0,-7,-1,0
2838931,352,-8294,305,0,-7,-1,0
2838936,343,-8292,322,0,-6,-1,0
2838941,335,-8292,330,0,-5,-1,0
2838945,333,-8289,339,0,-5,-1,0
2838951,330,-8286,343,0,-5,-1,0
2838956,325,-8286,352,0,-4,-1,0
2838960,322,-8288,358,0,-4,-1,0
2838965,321,-8287,361,0,-3,-1,0
2838971,322,-8288,371,0,-2,-1,0
2838975,327,-8287,381,-1,-1,-1,0
2838980,333,-8285,389,-1,-2,-1,0
2838985,339,-8284,394,-1,-2,-1,0
2838991,346,-8284,401,-1,-2,-1,0
2838996,355,-8279,405,-1,-2,-1,0
2839001,363,-8278,404,-1,-2,-1,0
2839006,372,-8279,397,-1,-2,-1,0
2839011,382,-8282,380,-1,-2,-1,0
2839016,391,-8285,360,-1,-2,-1,0
2839021,400,-8284,337,-1,-2,-1,0
2839026,407,-8284,313,-1,-2,-1,0
2839031,412,-8284,294,-1,-2,-1,0
2839035,414,-8280,278,-1,-2,-1,0
2839040,414,-8283,269,-1,-2,-1,0
2839045,416,-8285,268,-1,-2,-1,0
2839050,415,-8282,267,-1,-2,-1,0
2839055,413,-8282,266,-1,-2,-1,0
2839060,411,-8283,268,-1,-2,-1,0
2839065,410,-8282,260,-1,-2,-1,0
2839071,408,-8283,251,-1,-2,-1,0
2839076,408,-8282,244,-1,-2,-1,0
2839080,409,-8281,240,-1,-2,-1,0
2839085,407,-8281,242,-1,-1,-1,0
2839091,406,-8282,238,-1,-1,-1,0
2839095,405,-8283,232,-1,-1,-1,0
2839100,407,-8283,226,-1,-1,-1,0
2839105,412,-8281,217,-1,-1,-1,0
2839110,417,-8282,203,-1,-1,-1,0
2839115,423,-8284,194,-1,-1,-1,0
2839121,425,-8286,179,-1,-1,-1,0
2839125,426,-8282,168,-1,-1,-1,0
2839130,427,-8282,161,-1,-1,-1,0
2839135,426,-8284,158,-1,-1,-1,0
2839140,422,-8285,151,-1,-1,-1,0
2839145,420,-8288,142,-1,-2,-1,0
2839150,416,-8287,132,-1,-2,-1,0
2839155,414,-8285,117,-1,-2,-1,0
2839160,416,-8288,104,-1,-2,-1,0
2839165,423,-8289,94,-1,-3,-1,0
2839170,435,-8289,87,-1,-3,-1,0
2839175,444,-8287,80,-1,-4,-1,0
2839180,451,-8288,82,-1,-5,-1,0
2839185,460,-8287,88,-1,-5,-1,0
2839190,463,-8288,99,-1,-5,-1,0
2839195,462,-8287,111,-1,-6,-1,0
2839200,454,-8287,114,-1,-6,-1,0
2839205,445,-8284,120,-1,-6,-1,0
2839210,435,-8285,122,-1,-5,-1,0
2839215,429,-8286,118,-1,-5,-1,0
2839220,426,-8286,109,-1,-5,-1,0
2839225,421,-8285,99,-1,-5,-1,0
2839230,423,-8286,84,-1,-5,-1,0
2839236,426,-8284,78,-1,-5,-1,0
2839240,430,-8283,77,-1,-5,-1,0
2839245,432,-8281,69,-1,-5,-1,0
2839250,431,-8281,72,-1,-4,-1,0
2839255,429,-8282,81,-1,-4,-1,0
2839260,421,-8283,93,-1,-4,-1,0
2839265,417,-8283,105,-1,-4,-1,0
2839270,409,-8281,121,0,-4,-1,0
2839276,405,-8279,130,0,-4,-1,0
2839280,406,-8278,134,0,-3,-1,0
2839285,405,-8279,138,0,-3,-1,0
2839291,396,-8281,139,0,-4,-1,0
2839295,388,-8283,141,0,-4,-1,0
2839300,380,-8283,152,-1,-5,-1,0
2839305,368,-8281,166,-1,-5,-1,0
2839310,351,-8281,182,-1,-6,-1,0
2839315,330,-8284,193,-1,-6,-1,0
2839320,316,-8284,214,-1,-7,-1,0
2839325,300,-8285,232,-1,-8,-1,0
2839330,288,-8284,247,-1,-8,-1,0
2839335,281,-8284,253,-1,-7,-1,0
2839340,276,-8285,259,-1,-6,-1,0
2839345,276,-8285,268,-1,-5,-1,0
2839350,273,-8284,276,-1,-4,-1,0
2839355,266,-8285,284,-1,-4,-1,0
2839360,253,-8288,290,-1,-4,-1,0
2839365,237,-8290,299,-1,-3,-1,0
2839370,222,-8291,303,-1,-3,-1,0
2839375,211,-8292,306,-1,-2,-1,0
2839380,199,-8292,307,-1,-2,-2,0
2839385,194,-8290,308,-1,-2,-2,0
2839390,199,-8286,302,-1,-2,-2,0
2839395,208,-8285,295,-1,-2,-2,0
2839400,218,-8283,295,-1,-2,-2,0
2839405,233,-8280,292,-1,-2,-2,0
2839410,249,-8282,283,-1,-1,-2,0
2839415,261,-8284,275,-1,-1,-2,0
2839420,278,-8285,271,-1,0,-2,0
2839425,300,-8285,263,-1,0,-2,0
2839430,321,-8284,255,-1,0,-2,0
2839435,345,-8285,253,-1,0,-2,0
2839440,374,-8287,257,-2,0,-2,0
2839445,411,-8287,257,-2,0,-2,0
2839450,454,-8288,266,-2,0,-2,0
2839455,498,-8287,271,-2,0,-2,0
2839460,543,-8288,281,-2,0,-2,0
2839465,589,-8287,295,-2,-1,-2,0
2839470,635,-8286,299,-2,-1,-1,0
2839475,681,-8285,297,-2,-1,-1,0
2839480,734,-8284,284,-2,-1,-1,0
2839485,782,-8283,263,-2,0,-1,0
2839490,827,-8283,244,-2,0,-1,0
2839495,870,-8282,212,-2,1,-1,0
2839500,911,-8282,185,-2,2,0,0
2839505,942,-8279,160,-2,3,0,0
2839510,968,-8280,132,-2,3,0,0
2839515,984,-8279,103,-2,3,0,0
2839520,997,-8277,73,-2,4,0,0
2839525,1010,-8276,42,-1,3,1,0
2839530,1023,-8277,6,-1,3,1,0
2839535,1037,-8276,-36,-1,2,1,0
2839540,1051,-8274,-70,-1,1,1,0
2839545,1055,-8271,-103,-1,0,1,0
2839550,1051,-8275,-132,-1,-1,1,0
2839555,1040,-8276,-151,-1,-1,2,0
2839560,1016,-8278,-168,-1,-2,2,0
2839565,979,-8280,-174,-1,-1,2,0
2839570,931,-8280,-168,-1,-2,2,0
2839575,873,-8278,-153,-1,-2,2,0
2839580,806,-8278,-136,-1,-2,2,0
2839585,736,-8279,-116,0,-2,2,0
2839590,667,-8278,-97,0,-2,2,0
2839595,595,-8276,-81,0,-3,2,0
2839600,525,-8276,-66,0,-3,2,0
2839605,457,-8277,-50,0,-3,2,0
2839610,393,-8279,-27,0,-4,2,0
2839615,328,-8278,4,0,-4,2,0
2839620,265,-8277,37,0,-5,2,0
2839625,205,-8280,73,0,-5,1,0
2839630,147,-8280,114,0,-6,1,0
2839635,79,-8280,151,0,-6,1,0
2839640,13,-8281,184,0,-6,1,0
2839645,-54,-8283,205,0,-6,1,0
2839650,-121,-8289,218,0,-5,0,0
2839655,-185,-8292,223,-1,-4,0,0
2839660,-246,-8293,229,-1,-3,0,0
2839665,-301,-8291,233,-1,-2,0,0
2839670,-354,-8293,232,-1,-1,-1,0
2839675,-400,-8293,229,-1,0,-1,0
2839680,-435,-8297,215,-1,0,-1,0
2839685,-455,-8300,203,-1,1,-1,0
2839690,-469,-8303,181,-1,1,-2,0
2839695,-470,-8304,154,-1,1,-2,0
2839700,-466,-8305,135,-1,1,-2,0
2839705,-443,-8309,105,-1,1,-3,0
2839710,-429,-8309,108,-1,1,-3,0
2839715,-435,-8307,116,-1,0,-3,0
2839720,-435,-8305,118,-1,0,-3,0
2839725,-437,-8303,130,-1,-1,-4,0
2839730,-434,-8301,129,-1,-1,-4,0
2839735,-427,-8298,139,-1,-1,-4,0
2839740,-405,-8298,136,-1,-1,-4,0
2839745,-378,-8297,142,-1,-1,-5,0
2839750,-351,-8297,153,-1,-1,-5,0
2839755,-322,-8295,163,-1,-1,-5,0
2839760,-297,-8295,183,-1,-1,-5,0
2839765,-276,-8293,189,-1,-1,-5,0
2839770,-259,-8291,186,-1,-1,-5,0
2839775,-241,-8293,170,-1,-1,-6,0
2839780,-223,-8292,146,-1,-1,-6,0
2839785,-197,-8293,113,-1,-1,-6,0
2839790,-160,-8294,85,-1,-1,-6,0
2839795,-118,-8292,57,-1,-1,-6,0
2839800,-70,-8291,32,-1,-1,-6,0
2839805,-14,-8288,14,-1,0,-6,0
2839810,46,-8284,-1,0,0,-6,0
2839815,107,-8279,-20,0,-1,-6,0
2839820,167,-8274,-34,0,-1,-6,0
2839825,223,-8272,-60,0,-1,-6,0
2839830,277,-8270,-88,0,-1,-6,0
2839835,329,-8272,-108,0,-1,-6,0
2839840,376,-8273,-127,0,-1,-6,0
2839845,422,-8270,-141,0,-1,-6,0
2839850,469,-8270,-142,0,-1,-6,0
2839855,523,-8266,-138,0,-1,-6,0
2839860,583,-8265,-126,0,-1,-6,0
2839865,648,-8263,-114,0,-1,-6,0
2839870,714,-8260,-101,0,-1,-6,0
2839875,779,-8259,-90,1,-2,-6,0
2839880,839,-8261,-83,1,-2,-6,0
2839885,897,-8263,-83,1,-3,-5,0
2839890,946,-8263,-84,1,-4,-5,0
2839895,986,-8261,-79,1,-4,-5,0
2839900,1019,-8260,-77,1,-5,-5,0
2839905,1053,-8259,-69,1,-5,-5,0
2839910,1086,-8257,-53,1,-5,-4,0
2839915,1117,-8256,-38,1,-5,-4,0
2839920,1153,-8254,-15,1,-5,-4,0
2839925,1193,-8255,8,1,-6,-4,0
2839930,1234,-8257,34,1,-6,-3,0
2839935,1278,-8259,58,1,-6,-3,0
2839940,1321,-8263,88,1,-6,-3,0
2839945,1354,-8264,116,1,-6,-3,0
2839950,1376,-8263,145,1,-5,-3,0
2839955,1386,-8262,175,1,-4,-2,0
2839960,1394,-8258,209,1,-3,-2,0
2839965,1397,-8257,235,1,-3,-2,0
2839970,1391,-8259,251,1,-3,-2,0
2839975,1386,-8263,268,1,-3,-1,0
2839980,1386,-8266,287,1,-3,-1,0
2839985,1387,-8267,301,1,-3,-1,0
2839990,1384,-8266,310,0,-4,-1,0
2839995,1377,-8265,322,0,-5,0,0
2840000,1367,-8264,325,0,-4,0,0
2840005,1354,-8263,331,0,-4,0,0
2840010,1336,-8266,334,0,-4,0,0
2840015,1313,-8270,336,0,-4,0,0
2840020,1280,-8271,341,0,-4,0,0
2840025,1241,-8272,346,0,-5,0,0
2840030,1198,-8274,351,0,-5,1,0
2840035,1156,-8276,354,0,-5,1,0
2840040,1117,-8272,351,0,-4,1,0
2840045,1081,-8271,345,0,-4,1,0
2840050,1044,-8270,339,0,-3,1,0
2840055,1007,-8273,328,0,-3,1,0
2840060,970,-8277,316,0,-3,1,0
2840065,929,-8279,309,0,-3,1,0
2840070,884,-8281,303,0,-4,1,0
2840075,838,-8282,302,0,-4,1,0
2840080,790,-8280,302,0,-4,1,0
2840085,747,-8279,311,0,-4,1,0
2840090,706,-8279,321,-1,-4,1,0
2840095,665,-8279,338,-1,-4,1,0
2840100,627,-8279,350,-1,-4,1,0
2840105,590,-8280,359,-1,-4,1,0
2840110,555,-8282,370,-1,-3,1,0
2840115,519,-8282,380,-1,-2,1,0
2840120,485,-8283,380,-1,-2,1,0
2840125,455,-8286,379,-1,-2,1,0
2840130,427,-8286,367,-1,-2,1,0
2840135,404,-8287,348,-1,-2,1,0
2840140,384,-8287,329,-1,-2,0,0
2840145,370,-8288,310,-1,-2,0,0
2840150,363,-8288,293,-1,-2,0,0
2840155,361,-8287,282,-1,-2,0,0
2840160,361,-8287,272,-1,-2,0,0
2840165,360,-8288,269,-1,-2,0,0
2840170,357,-8286,269,-1,-2,0,0
2840175,353,-8286,265,-1,-2,0,0
2840180,343,-8285,263,-1,-2,0,0
2840185,334,-8285,266,-1,-2,0,0
2840190,329,-8285,256,-1,-2,0,0
2840195,331,-8285,247,-1,-1,0,0
2840200,341,-8285,232,-1,0,0,0
2840205,361,-8283,213,-1,0,0,0
2840210,391,-8280,191,-1,1,0,0
2840215,422,-8282,169,-1,0,-1,0
2840220,448,-8286,144,-1,0,-1,0
2840225,477,-8286,124,-1,0,-1,0
2840230,505,-8287,107,-1,0,-1,0
2840235,532,-8287,84,-1,0,-1,0
2840240,552,-8286,61,-1,-1,-1,0
2840245,571,-8283,34,-1,0,0,0
2840250,592,-8282,11,-1,-1,0,0
2840255,614,-8281,-10,-1,-1,0,0
2840260,631,-8280,-33,-1,-1,0,0
2840265,649,-8279,-46,-1,-1,0,0
2840270,665,-8279,-55,0,-1,0,0
2840275,681,-8280,-63,0,-1,0,0
2840280,690,-8279,-67,0,-1,0,0
2840285,698,-8279,-72,0,-1,0,0
2840290,700,-8280,-70,0,-1,0,0
2840295,698,-8279,-68,0,-2,0,0
2840300,694,-8282,-63,0,-2,0,0
2840305,689,-8282,-65,0,-3,0,0
2840310,686,-8279,-64,0,-3,0,0
2840315,683,-8279,-61,0,-4,0,0
2840320,678,-8280,-60,0,-4,0,0
2840325,676,-8282,-59,0,-4,0,0
2840330,676,-8283,-61,0,-4,0,0
2840335,678,-8282,-64,1,-4,0,0
2840340,677,-8283,-72,1,-5,0,0
2840345,675,-8284,-82,1,-5,0,0
2840350,670,-8283,-86,1,-5,0,0
2840355,665,-8283,-87,1,-5,0,0
2840360,658,-8283,-82,1,-5,0,0
2840365,656,-8286,-73,1,-5,0,0
2840370,654,-8284,-63,1,-5,0,0
2840375,652,-8285,-42,1,-6,0,0
2840380,653,-8287,-17,1,-6,0,0
2840385,658,-8287,9,1,-7,0,0
2840390,663,-8288,35,1,-7,0,0
2840395,667,-8290,61,1,-8,0,0
2840400,667,-8291,88,1,-8,0,0
2840405,661,-8288,110,1,-8,0,0
2840410,653,-8286,128,1,-8,0,0
2840415,639,-8289,150,1,-8,0,0
2840420,625,-8291,163,1,-8,0,0
2840425,609,-8294,182,1,-8,0,0
2840430,590,-8295,195,1,-9,0,0
2840435,565,-8294,209,1,-10,0,0
2840440,542,-8292,218,1,-11,0,0
2840445,521,-8289,219,1,-12,0,0
2840450,499,-8290,222,1,-13,0,0
2840455,478,-8288,223,1,-14,0,0
2840460,461,-8286,220,1,-15,0,0
2840465,447,-8284,228,1,-15,0,0
2840470,436,-8283,240,1,-16,0,0
2840475,423,-8285,251,1,-17,0,0
2840480,410,-8288,264,1,-18,0,0
2840485,388,-8286,279,1,-18,0,0
2840490,370,-8289,290,1,-17,0,0
2840495,355,-8289,318,1,-16,-1,0
2840500,345,-8290,337,1,-14,-1,0
2840505,339,-8290,351,1,-13,-1,0
2840510,342,-8287,371,1,-12,-1,0
2840515,355,-8287,399,0,-11,-1,0
2840520,371,-8285,422,0,-11,-1,0
2840525,388,-8281,443,0,-11,-1,0
2840530,406,-8279,463,0,-11,-1,0
2840535,422,-8280,478,0,-10,-1,0
2840540,436,-8281,483,0,-9,-1,0
2840545,441,-8283,481,0,-7,-1,0
2840550,445,-8287,479,0,-6,-1,0
2840555,445,-8290,470,0,-4,-1,0
2840560,445,-8291,454,0,-3,-1,0
2840565,446,-8290,442,0,-2,-1,0
2840570,450,-8291,427,0,-1,-1,0
2840575,458,-8291,423,-1,-2,-1,0
2840580,459,-8291,420,-1,-2,-1,0
2840585,468,-8290,411,-1,-2,-1,0
2840590,476,-8291,404,-1,-2,-1,0
2840595,481,-8289,401,-1,-2,-1,0
2840600,484,-8288,396,-1,-3,-1,0
2840605,486,-8288,403,-1,-3,-1,0
2840610,491,-8286,412,-1,-3,-1,0
2840615,497,-8283,413,-1,-2,-1,0
2840620,500,-8284,418,-1,-2,-1,0
2840625,502,-8283,420,-1,0,-1,0
2840630,503,-8284,418,-1,1,-1,0
2840635,506,-8286,416,-1,3,-1,0
2840640,512,-8288,417,-1,4,-1,0
2840645,517,-8288,410,-1,5,-1,0
2840650,517,-8286,404,-1,6,-1,0
2840655,513,-8286,395,-1,8,-1,0
2840660,510,-8286,378,-1,9,-1,0
2840665,510,-8283,351,-1,10,-1,0
2840670,513,-8285,317,-1,12,-1,0
2840675,518,-8287,289,-1,13,-1,0
2840680,519,-8289,264,-1,13,-1,0
2840685,524,-8289,245,-2,13,-1,0
2840690,532,-8291,231,-1,14,-1,0
2840695,542,-8293,217,-1,13,-1,0
2840700,555,-8294,214,-2,13,-1,0
2840705,568,-8292,214,-1,11,-1,0
2840710,587,-8289,209,-1,10,-1,0
2840715,605,-8286,208,-1,9,-1,0
2840720,627,-8285,204,-1,7,-1,0
2840725,656,-8282,193,-1,6,-1,0
2840730,688,-8280,179,-1,4,-1,0
2840735,720,-8278,163,-1,2,-1,0
2840740,746,-8274,152,-1,-1,-1,0
2840745,757,-8272,142,-1,-3,-1,0
2840750,761,-8272,138,-1,-4,-1,0
2840755,750,-8271,142,-1,-5,-1,0
2840760,732,-8272,151,-1,-6,-1,0
2840765,702,-8276,159,-1,-7,-1,0
2840770,659,-8277,171,-1,-8,-1,0
2840775,621,-8280,178,-1,-9,-1,0
2840780,586,-8283,186,-1,-9,-1,0
2840785,552,-8281,191,-1,-9,-1,0
2840790,528,-8279,187,-1,-9,-1,0
2840795,514,-8277,181,-1,-8,-1,0
2840800,508,-8278,181,-1,-7,-1,0
2840805,503,-8279,182,-1,-6,-1,0
2840810,500,-8281,186,-1,-5,-1,0
2840815,501,-8283,184,-1,-4,-1,0
2840820,499,-8283,184,-1,-3,-1,0
2840825,502,-8281,190,-1,-3,-1,0
2840830,505,-8283,192,-1,-3,-1,0
2840835,508,-8285,192,-1,-4,-1,0
2840840,514,-8287,181,-1,-5,-1,0
2840845,518,-8286,168,-1,-6,-1,0
2840850,526,-8285,151,-1,-7,-1,0
2840855,532,-8285,130,-1,-7,-1,0
2840860,538,-8285,113,-1,-7,-1,0
2840865,544,-8283,96,-1,-7,-1,0
2840870,548,-8279,81,-1,-7,-1,0
2840875,552,-8281,69,-1,-7,-1,0
2840880,549,-8280,55,-1,-6,-1,0
2840885,550,-8281,45,-1,-5,-1,0
2840890,493,-8294,10,-1,-4,-1,0
2840895,435,-8302,51,-1,6,-1,0
2840900,450,-8311,77,-2,29,-1,0
2840905,437,-8321,74,-1,35,-2,0
2840910,545,-8328,205,-1,35,-2,0
2840915,554,-8335,218,-1,33,-2,0
2840920,571,-8333,282,-1,26,-1,0
2840925,549,-8329,314,-1,22,-1,0
2840930,564,-8317,289,-1,18,-2,0
2840935,554,-8308,310,-1,16,-1,0
2840940,538,-8299,306,-1,14,-1,0
2840945,555,-8288,276,-1,14,-1,0
2840950,545,-8283,248,-1,16,-1,0
2840955,556,-8284,210,-1,20,-1,0
2840960,568,-8286,161,-1,26,-1,0
2840965,565,-8288,114,-1,34,-1,0
2840970,582,-8289,56,-1,42,-1,0
2840975,604,-8291,1,-1,50,-1,0
2840980,616,-8291,-37,-1,57,-1,0
2840985,642,-8291,-78,-1,61,-1,0
2840990,670,-8288,-105,-1,65,-1,0
2840995,691,-8284,-126,-1,69,-1,0
2841000,724,-8282,-144,-1,72,-1,0
2841005,754,-8282,-141,-1,76,-1,0
2841010,778,-8282,-131,-1,81,-1,0
2841015,798,-8280,-113,-1,85,0,0
2841020,804,-8278,-90,-1,91,0,0
2841025,802,-8276,-71,-1,96,0,0
2841030,784,-8277,-48,-1,101,0,0
2841035,748,-8276,-33,-1,107,0,0
2841040,710,-8277,-24,-1,113,0,0
2841045,669,-8277,-15,-1,120,0,0
2841050,637,-8275,-1,-1,125,0,0
2841055,620,-8278,22,-1,129,0,0
2841060,608,-8279,56,-1,131,0,0
2841065,606,-8278,91,-1,131,0,0
2841070,610,-8277,142,-1,130,0,0
2841075,616,-8277,189,-1,128,0,0
2841080,622,-8277,235,-1,125,0,0
2841085,625,-8277,276,-1,123,0,0
2841090,621,-8275,304,-1,119,0,0
2841095,614,-8273,322,-1,116,0,0
2841100,605,-8276,327,-1,113,0,0
2841105,595,-8277,330,-1,110,0,0
2841110,594,-8280,329,-1,105,0,0
2841115,591,-8282,330,-1,100,0,0
2841120,585,-8283,331,-1,93,0,0
2841125,591,-8285,338,-1,86,0,0
2841130,599,-8284,349,-1,78,0,0
2841135,604,-8284,365,-1,70,0,0
2841140,613,-8283,381,-1,61,0,0
2841145,624,-8282,398,-1,51,0,0
2841150,625,-8284,411,-1,41,0,0
2841155,627,-8285,423,-1,30,0,0
2841160,622,-8283,435,-1,19,-1,0
2841165,610,-8284,445,-1,7,-1,0
2841170,592,-8286,450,0,-3,-1,0
2841175,565,-8286,443,0,-11,-1,0
2841180,535,-8291,434,0,-18,-1,0
2841185,503,-8294,435,-1,-21,-1,0
2841190,469,-8294,425,-1,-21,-1,0
2841195,445,-8293,423,-1,-18,-1,0
2841200,421,-8296,427,-1,-14,-1,0
2841205,404,-8296,441,-1,-9,-1,0
2841210,391,-8297,472,-1,-4,-1,0
2841215,390,-8297,518,-2,0,-1,0
2841220,399,-8298,563,-2,2,-1,0
2841225,424,-8297,607,-2,2,-1,0
2841230,460,-8295,634,-2,0,-1,0
2841235,495,-8292,628,-1,-4,-1,0
2841240,534,-8292,594,-1,-7,-1,0
2841245,572,-8292,536,-1,-9,-1,0
2841250,603,-8291,457,-1,-10,-1,0
2841255,629,-8293,371,-1,-11,-1,0
2841260,646,-8291,281,-2,-10,-1,0
2841265,654,-8288,206,-2,-9,-1,0
2841270,661,-8288,157,-2,-8,-1,0
2841275,659,-8285,128,-2,-8,-1,0
2841280,658,-8284,117,-2,-9,-1,0
2841285,655,-8281,127,-2,-11,-1,0
2841290,641,-8280,139,-2,-14,-1,0
2841295,616,-8282,155,-1,-16,-1,0
2841300,576,-8284,170,-1,-17,-1,0
2841305,527,-8282,183,-1,-17,-1,0
2841310,495,-8279,170,-1,-16,-1,0
2841315,506,-8276,90,-1,-14,-1,0
2841320,477,-8277,-11,0,-8,-1,0
2841325,460,-8282,-91,0,2,-1,0
2841330,494,-8287,-192,-1,13,-1,0
2841335,513,-8293,-243,-1,22,-1,0
2841340,496,-8297,-256,-2,31,-1,0
2841345,442,-8299,-231,-2,42,-1,0
2841350,363,-8303,-117,-2,57,-2,0
2841355,315,-8301,6,-2,73,-2,0
2841360,283,-8296,98,-2,86,-1,0
2841365,265,-8290,182,-2,97,-1,0
2841370,286,-8289,250,-2,104,-1,0
2841375,335,-8289,288,-2,109,-1,0
2841380,379,-8290,306,-2,112,-1,0
2841385,411,-8294,303,-2,114,-1,0
2841390,452,-8296,297,-3,115,-2,0
2841395,494,-8292,296,-3,115,-2,0
2841400,540,-8291,300,-3,114,-1,0
2841405,615,-8289,285,-2,111,-1,0
2841410,694,-8289,273,-2,106,-1,0
2841415,773,-8291,256,-2,97,-1,0
2841420,859,-8292,221,-2,88,-1,0
2841425,895,-8291,192,-2,81,-1,0
2841430,923,-8288,168,-2,75,-1,0
2841435,930,-8288,130,-2,71,-1,0
2841440,936,-8286,103,-2,69,-1,0
2841445,938,-8283,71,-2,67,0,0
2841450,948,-8284,48,-1,65,0,0
2841455,950,-8286,30,-1,64,0,0
2841460,937,-8288,23,-2,64,0,0
2841465,922,-8292,35,-2,66,0,0
2841470,904,-8291,70,-2,67,0,0
2841475,865,-8291,126,-2,68,0,0
2841480,835,-8287,196,-2,68,0,0
2841485,816,-8284,270,-2,67,0,0
2841490,805,-8282,351,-2,63,0,0
2841495,796,-8283,408,-2,56,0,0
2841500,787,-8284,443,-2,47,0,0
2841505,769,-8285,453,-2,37,0,0
2841510,745,-8286,428,-1,28,0,0
2841515,739,-8285,389,-1,22,0,0
2841520,742,-8286,355,-2,17,0,0
2841525,752,-8284,330,-2,7,0,0
2841530,746,-8283,310,-2,-1,0,0
2841535,719,-8282,306,-2,-5,0,0
2841540,706,-8282,314,-2,-6,0,0
2841545,713,-8283,330,-2,-7,0,0
2841550,727,-8284,359,-2,-7,0,0
2841555,736,-8283,381,-2,-8,0,0
2841560,745,-8282,392,-2,-8,0,0
2841565,737,-8280,401,-2,-6,0,0
2841570,720,-8279,398,-2,-4,0,0
2841575,703,-8278,379,-2,-1,0,0
2841580,681,-8279,354,-2,2,0,0
2841585,671,-8282,317,-2,3,0,0
2841590,662,-8285,276,-2,3,0,0
2841595,647,-8288,246,-2,2,0,0
2841600,634,-8289,223,-2,0,0,0
2841605,607,-8289,222,-2,0,0,0
2841610,570,-8287,223,-3,1,0,0
2841615,545,-8285,219,-3,3,0,0
2841620,514,-8283,222,-2,4,0,0
2841625,488,-8284,215,-2,5,0,0
2841630,468,-8285,197,-2,6,0,0
2841635,445,-8285,177,-2,6,0,0
2841640,425,-8285,150,-2,5,0,0
2841645,404,-8284,124,-2,5,0,0
2841650,379,-8284,108,-2,4,-1,0
2841655,359,-8284,90,-2,4,-1,0
2841660,349,-8285,69,-2,3,-1,0
2841665,352,-8283,54,-2,2,-1,0
2841670,373,-8284,54,-2,0,0,0
2841675,409,-8287,69,-2,-1,0,0
2841680,448,-8288,91,-2,-2,0,0
2841685,491,-8288,110,-2,-2,0,0
2841690,542,-8288,132,-2,0,0,0
2841695,596,-8288,156,-2,2,0,0
2841700,658,-8286,160,-2,3,0,0
2841705,716,-8284,160,-2,3,0,0
2841710,758,-8284,141,-2,3,0,0
2841715,791,-8286,113,-2,2,0,0
2841720,803,-8285,79,-2,1,0,0
2841725,792,-8285,43,-2,0,0,0
2841730,775,-8285,12,-2,0,0,0
2841735,752,-8283,-3,-2,1,0,0
2841740,722,-8283,-2,-2,1,0,0
2841745,687,-8281,1,-2,0,0,0
2841750,640,-8279,0,-2,-1,0,0
2841755,588,-8276,-7,-2,-2,0,0
2841760,540,-8278,-33,-2,-1,0,0
2841765,498,-8281,-57,-2,-1,0,0
2841770,464,-8283,-92,-2,-1,0,0
2841775,434,-8285,-120,-2,0,0,0
2841780,412,-8285,-129,-2,1,0,0
2841785,404,-8286,-125,-2,1,0,0
2841790,407,-8284,-91,-2,1,0,0
2841795,416,-8283,-50,-2,0,0,0
2841800,440,-8281,11,-2,-1,0,0
2841805,459,-8278,80,-2,-1,0,0
2841810,482,-8278,133,-2,-1,0,0
2841815,523,-8277,181,-2,-2,0,0
2841820,563,-8277,222,-2,-2,0,0
2841825,598,-8280,248,-2,-4,0,0
2841830,632,-8281,254,-2,-5,0,0
2841835,661,-8280,239,-2,-5,0,0
2841840,689,-8281,210,-2,-6,0,0
2841845,709,-8283,164,-2,-7,0,0
2841850,725,-8284,112,-2,-7,0,0
2841855,738,-8286,62,-2,-8,0,0
2841860,743,-8286,8,-2,-10,0,0
2841865,747,-8286,-44,-2,-12,0,0
2841870,747,-8287,-91,-2,-14,0,0
2841875,744,-8286,-127,-2,-17,0,0
2841880,738,-8287,-149,-2,-19,0,0
2841885,729,-8287,-161,-2,-21,0,0
2841890,718,-8287,-162,-1,-22,0,0
2841895,708,-8286,-161,-1,-23,0,0
2841900,698,-8284,-154,-1,-23,0,0
2841905,685,-8281,-154,-1,-24,0,0
2841910,666,-8280,-154,-1,-24,0,0
2841915,639,-8279,-164,-1,-24,0,0
2841920,608,-8281,-178,-1,-23,0,0
2841925,571,-8284,-188,-1,-23,0,0
2841930,536,-8287,-197,-1,-23,0,0
2841935,504,-8286,-208,-1,-25,0,0
2841940,480,-8286,-205,-1,-26,0,0
2841945,458,-8287,-191,-1,-28,0,0
2841950,441,-8288,-164,-1,-29,0,0
2841955,435,-8288,-124,-1,-29,0,0
2841960,435,-8288,-73,-1,-30,0,0
2841965,442,-8287,-22,-1,-31,0,0
2841970,459,-8286,18,-1,-32,0,0
2841975,481,-8284,48,0,-34,0,0
2841980,499,-8282,64,0,-36,0,0
2841985,516,-8281,63,0,-37,0,0
2841990,526,-8280,50,0,-37,0,0
2841995,531,-8278,34,0,-37,0,0
2842000,533,-8278,6,0,-36,0,0
2842005,530,-8282,-20,0,-35,0,0
2842010,524,-8286,-37,-1,-34,0,0
2842015,514,-8286,-42,-1,-31,0,0
2842020,507,-8288,-36,-1,-28,0,0
2842025,502,-8287,-26,-1,-26,0,0
2842030,498,-8287,-10,-1,-25,0,0
2842035,498,-8288,7,-1,-25,-1,0
2842040,501,-8285,17,0,-26,0,0
2842045,497,-8283,20,0,-29,0,0
2842050,489,-8283,12,0,-31,0,0
2842055,490,-8283,1,0,-34,-1,0
2842060,481,-8283,-22,0,-36,-1,0
2842065,470,-8284,-37,0,-38,-1,0
2842070,466,-8286,-50,0,-40,0,0
2842075,465,-8285,-56,0,-40,0,0
2842080,467,-8281,-39,0,-40,0,0
2842085,461,-8279,-20,0,-38,-1,0
2842090,454,-8276,3,0,-35,-1,0
2842095,447,-8274,23,0,-30,-1,0
2842100,442,-8276,32,0,-25,-1,0
2842105,456,-8280,38,0,-21,-1,0
2842110,471,-8282,35,0,-18,0,0
2842115,487,-8284,33,-1,-16,-1,0
2842120,500,-8285,37,-1,-15,-1,0
2842125,509,-8288,40,-1,-14,-1,0
2842130,523,-8288,49,-1,-16,-1,0
2842135,535,-8287,56,-1,-19,-1,0
2842140,548,-8288,76,-1,-24,-1,0
2842145,565,-8288,94,-1,-30,-1,0
2842150,577,-8287,115,0,-36,0,0
2842155,590,-8286,126,0,-40,0,0
2842160,596,-8285,120,0,-42,-1,0
2842165,594,-8287,112,0,-42,-1,0
2842170,582,-8287,95,0,-40,-1,0
2842175,546,-8287,73,-1,-35,-1,0
2842180,494,-8286,44,-1,-29,-1,0
2842185,423,-8284,9,-1,-22,-1,0
2842190,348,-8285,-26,-1,-13,-1,0
2842195,283,-8290,-61,-1,-5,-1,0
2842200,240,-8294,-89,-1,4,-1,0
2842205,228,-8296,-105,-1,11,0,0
2842210,245,-8295,-109,-1,17,0,0
2842215,282,-8295,-102,-1,22,0,0
2842220,321,-8294,-83,-1,27,0,0
2842225,360,-8293,-71,-1,34,-1,0
2842230,390,-8291,-66,-1,41,-1,0
2842235,409,-8291,-70,-1,48,-1,0
2842240,420,-8289,-82,-1,55,-1,0
2842245,423,-8286,-102,-1,60,-1,0
2842250,430,-8286,-124,-1,65,-1,0
2842255,442,-8286,-145,-1,68,0,0
2842260,462,-8287,-160,-1,68,0,0
2842265,493,-8286,-162,-1,68,0,0
2842270,532,-8286,-158,-1,65,0,0
2842275,576,-8284,-153,-1,60,0,0
2842280,619,-8284,-150,-1,54,0,0
2842285,653,-8285,-147,-1,48,0,0
2842290,671,-8285,-144,0,43,0,0
2842295,681,-8288,-142,0,39,0,0
2842300,681,-8290,-146,0,35,0,0
2842305,675,-8289,-146,0,33,0,0
2842310,668,-8286,-139,0,30,0,0
2842315,660,-8290,-121,0,27,0,0
2842320,662,-8288,-94,0,23,0,0
2842325,673,-8287,-60,0,17,0,0
2842330,685,-8286,-22,0,11,0,0
2842335,692,-8285,10,0,5,0,0
2842340,687,-8285,38,0,0,0,0
2842345,670,-8282,59,0,-4,0,0
2842350,641,-8278,64,0,-4,0,0
2842355,612,-8281,72,0,-4,0,0
2842360,583,-8281,73,0,-4,0,0
2842365,552,-8278,66,0,-4,0,0
2842370,520,-8275,60,0,-4,0,0
2842375,488,-8277,50,0,-3,0,0
2842380,462,-8281,49,0,-2,0,0
2842385,445,-8285,59,0,-1,0,0
2842390,434,-8287,78,0,0,-1,0
2842395,431,-8290,98,0,0,-1,0
2842400,430,-8290,118,0,0,-1,0
2842405,430,-8291,144,0,1,-1,0
2842410,431,-8291,163,0,1,-1,0
2842415,431,-8289,171,0,1,-1,0
2842420,429,-8291,167,0,2,-1,0
2842425,430,-8291,154,0,2,-1,0
2842430,430,-8290,132,0,3,-1,0
2842435,423,-8290,108,0,3,-1,0
2842440,419,-8290,81,0,4,-1,0
2842445,418,-8290,61,0,4,-1,0
2842450,421,-8290,42,0,5,-1,0
2842455,426,-8289,26,0,6,-1,0
2842460,434,-8286,22,-1,7,-1,0
2842465,450,-8286,24,-1,7,-1,0
2842470,464,-8286,21,0,7,-1,0
2842475,480,-8286,22,0,6,-1,0
2842480,498,-8286,12,0,5,-1,0
2842485,517,-8288,-6,0,4,-1,0
2842490,532,-8288,-23,0,4,-1,0
2842495,554,-8288,-41,0,4,-1,0
2842500,577,-8287,-53,0,3,-1,0
2842505,595,-8282,-67,0,2,-1,0
2842510,615,-8281,-71,0,1,-1,0
2842515,634,-8280,-66,0,0,-1,0
2842520,641,-8278,-54,0,-2,-1,0
2842525,645,-8280,-36,0,-2,-1,0
2842530,642,-8284,-22,0,-2,-1,0
2842535,635,-8284,-8,0,-2,-1,0
2842540,626,-8285,1,0,-3,-1,0
2842545,612,-8286,16,0,-3,-1,0
2842550,596,-8290,28,0,-3,-1,0
2842555,586,-8292,37,0,-3,-1,0
2842560,579,-8293,45,0,-4,-1,0
2842565,576,-8296,52,0,-4,-1,0
2842570,581,-8294,55,0,-5,-1,0
2842575,589,-8291,57,0,-5,-1,0
2842580,596,-8291,61,0,-6,-1,0
2842585,604,-8292,63,0,-6,-1,0
2842590,607,-8289,73,0,-6,-1,0
2842595,608,-8287,84,0,-5,-1,0
2842600,610,-8284,89,0,-4,-1,0
2842605,613,-8284,96,0,-3,-1,0
2842610,614,-8284,97,0,-3,-1,0
2842615,621,-8286,93,0,-2,0,0
2842620,625,-8284,89,0,-2,0,0
2842625,626,-8281,82,0,-3,0,0
2842630,623,-8282,69,0,-3,0,0
2842635,617,-8282,54,0,-3,0,0
2842640,611,-8280,36,0,-3,0,0
2842645,605,-8280,24,0,-2,0,0
2842650,603,-8280,14,0,-2,0,0
2842655,604,-8280,0,0,-1,0,0
2842660,605,-8280,-7,0,-1,0,0
2842665,605,-8282,-8,0,-1,0,0
2842670,605,-8283,-6,0,0,0,0
2842675,600,-8288,10,0,0,0,0
2842680,595,-8288,29,0,0,0,0
2842685,589,-8288,47,0,0,0,0
2842690,583,-8288,72,0,0,0,0
2842695,574,-8290,97,0,0,0,0
2842700,564,-8291,120,0,-1,0,0
2842705,549,-8293,134,0,-1,0,0
2842710,531,-8292,141,0,-2,0,0
2842715,513,-8292,144,0,-2,0,0
2842720,496,-8292,144,0,-2,0,0
2842725,478,-8292,144,-1,-3,0,0
2842730,464,-8292,141,-1,-3,0,0
2842735,451,-8294,138,-1,-3,0,0
2842740,438,-8293,136,-1,-3,-1,0
2842745,432,-8291,133,-1,-2,-1,0
2842750,433,-8288,130,-1,-1,-1,0
2842755,435,-8287,130,-1,0,-1,0
2842760,439,-8289,129,-1,0,-1,0
2842765,441,-8290,129,-1,1,-1,0
2842770,440,-8288,127,-1,0,-1,0
2842775,436,-8287,119,-1,0,-1,0
2842780,431,-8286,108,-1,1,-1,0
2842785,429,-8287,93,-1,1,-1,0
2842790,430,-8288,76,-1,1,-1,0
2842795,436,-8287,58,-1,1,-1,0
2842800,442,-8288,39,-1,2,-1,0
2842805,445,-8289,24,-1,2,-1,0
2842810,450,-8289,18,-1,1,-1,0
2842815,456,-8288,12,-1,1,-1,0
2842820,462,-8287,12,-1,2,-1,0
2842825,468,-8287,7,-1,2,-1,0
2842830,476,-8285,7,-1,2,-1,0
2842835,486,-8286,-4,-1,2,-1,0
2842840,494,-8290,-4,-1,2,-1,0
2842845,505,-8292,-2,-1,2,-1,0
2842850,513,-8293,-1,-1,1,-1,0
2842855,522,-8294,5,-1,1,-1,0
2842860,527,-8293,11,-1,1,-1,0
2842865,527,-8292,23,-1,2,-1,0
2842870,527,-8290,34,-1,2,-1,0
2842875,522,-8289,48,-1,3,-1,0
2842880,522,-8289,63,-1,4,-1,0
2842885,524,-8287,67,-1,5,-1,0
2842890,524,-8286,79,-1,5,-1,0
2842895,527,-8286,82,-1,6,-1,0
2842900,533,-8286,85,-1,6,-1,0
2842905,544,-8288,87,-1,6,-1,0
2842910,555,-8287,90,-1,6,-1,0
2842915,563,-8286,89,-1,5,-1,0
2842920,573,-8288,88,-1,4,-1,0
2842925,582,-8290,81,-1,4,-1,0
2842930,588,-8293,74,-1,3,-1,0
2842935,593,-8292,72,-1,3,-1,0
2842940,598,-8292,62,-1,2,-1,0
2842945,602,-8290,46,-1,2,-1,0
2842950,602,-8291,36,-1,2,-1,0
2842955,602,-8293,20,-1,2,-1,0
2842960,599,-8292,5,-1,2,-1,0
2842965,599,-8290,-5,-1,1,-1,0
2842970,598,-8289,-15,-1,1,-1,0
2842975,601,-8289,-22,-1,1,-1,0
2842980,602,-8288,-28,-1,1,-1,0
2842985,604,-8289,-36,-1,1,-1,0
2842990,608,-8289,-33,-1,1,-1,0
2842995,612,-8288,-31,-1,1,-1,0
2843000,618,-8288,-34,-1,1,-1,0
2843005,623,-8288,-38,-1,2,-1,0
2843010,628,-8285,-37,-1,2,-1,0
2843015,630,-8285,-41,-1,2,-1,0
2843020,631,-8283,-48,0,3,-1,0
2843025,635,-8282,-54,0,3,-1,0
2843030,639,-8284,-60,0,3,-1,0
2843035,643,-8285,-65,0,3,-1,0
2843040,656,-8287,-71,0,2,-1,0
2843045,672,-8289,-73,0,2,0,0
2843050,687,-8289,-76,0,1,0,0
2843055,699,-8287,-78,0,0,0,0
2843060,707,-8284,-84,0,0,0,0
2843065,715,-8282,-87,0,-1,0,0
2843070,717,-8281,-89,0,-1,0,0
2843075,717,-8278,-83,0,-1,0,0
2843080,711,-8280,-69,0,-2,0,0
2843085,703,-8281,-51,0,-2,0,0
2843090,695,-8283,-29,0,-2,0,0
2843095,687,-8280,-8,0,-2,0,0
2843100,681,-8280,20,0,-2,0,0
2843105,677,-8281,48,0,-1,0,0
2843110,674,-8281,71,0,-1,0,0
2843115,672,-8284,90,0,-1,0,0
2843120,670,-8283,105,0,-1,0,0
2843125,670,-8281,114,0,0,0,0
2843130,665,-8279,121,0,-1,0,0
2843135,661,-8277,124,0,-1,0,0
2843140,652,-8279,128,0,-1,0,0
2843145,643,-8282,132,0,-1,0,0
2843150,631,-8282,133,0,-1,0,0
2843155,619,-8284,138,0,-1,0,0
2843160,608,-8286,142,-1,-1,0,0
2843165,598,-8284,151,-1,-1,0,0
2843170,583,-8284,156,-1,-1,0,0
2843175,569,-8285,156,-1,0,0,0
2843180,555,-8286,161,-1,0,0,0
2843185,541,-8287,167,-1,0,0,0
2843190,525,-8292,167,-1,1,0,0
2843195,506,-8292,167,-1,1,0,0
2843200,490,-8292,165,-1,1,0,0
2843205,477,-8294,159,-1,1,0,0
2843210,458,-8295,152,-1,1,0,0
2843215,441,-8295,144,-1,1,0,0
2843220,430,-8295,137,-1,1,0,0
2843225,421,-8294,127,-1,1,0,0
2843230,417,-8293,117,-1,1,0,0
2843235,415,-8291,103,-1,1,0,0
2843240,415,-8290,94,-1,1,0,0
2843245,416,-8289,86,-1,2,0,0
2843250,421,-8289,81,-1,2,-1,0
2843255,427,-8290,80,-1,3,0,0
2843260,431,-8290,82,-1,4,0,0
2843265,438,-8290,87,-1,4,-1,0
2843270,448,-8290,91,-1,5,-1,0
2843275,465,-8290,97,-1,6,-1,0
2843280,481,-8291,103,-1,6,-1,0
2843285,504,-8286,114,-1,7,-1,0
2843290,529,-8284,119,-1,7,0,0
2843295,553,-8285,123,-1,7,0,0
2843300,574,-8288,124,-1,7,0,0
2843305,593,-8290,123,-1,7,-1,0
2843310,606,-8292,117,-1,7,-1,0
2843315,613,-8292,112,-1,8,0,0
2843320,617,-8292,108,-1,8,0,0
2843325,625,-8293,103,-1,8,0,0
2843330,636,-8291,99,-1,8,0,0
2843335,647,-8287,90,-1,7,0,0
2843340,658,-8285,81,-1,7,0,0
2843345,674,-8284,72,-1,6,0,0
2843350,684,-8283,61,-1,5,0,0
2843355,691,-8282,55,-1,5,0,0
2843360,696,-8281,41,-1,4,0,0
2843365,696,-8284,31,-1,4,0,0
2843370,691,-8284,18,-1,3,0,0
2843375,675,-8283,8,-1,4,0,0
2843380,656,-8283,-1,-1,4,0,0
2843385,628,-8280,-10,-1,5,0,0
2843390,602,-8281,-18,-1,6,0,0
2843395,572,-8283,-30,-1,7,0,0
2843400,541,-8281,-47,-1,8,0,0
2843405,509,-8280,-58,-1,8,0,0
2843410,473,-8282,-73,-1,8,0,0
2843415,435,-8282,-94,-1,8,0,0
2843420,398,-8284,-115,-1,8,0,0
2843425,356,-8286,-143,-1,7,0,0
2843430,309,-8287,-178,-1,7,-1,0
2843435,268,-8289,-218,-1,8,-1,0
2843440,225,-8290,-259,-1,8,-1,0
2843445,186,-8288,-298,0,9,-1,0
2843450,143,-8286,-344,0,10,-1,0
2843455,95,-8284,-392,0,10,-1,0
2843460,45,-8282,-434,0,10,-2,0
2843465,-8,-8282,-471,0,10,-2,0
2843470,-69,-8282,-511,0,9,-2,0
2843475,-134,-8282,-559,1,8,-3,7
2843480,-204,-8281,-605,1,6,-3,7
2843485,-275,-8283,-663,1,5,-3,7
2843490,-351,-8285,-723,2,5,-4,7
2843495,-434,-8285,-789,2,4,-4,7
2843500,-522,-8284,-858,2,4,-4,7
2843505,-612,-8285,-926,3,4,-5,7
2843510,-707,-8284,-988,3,4,-5,7
2843515,-806,-8286,-1045,3,4,-6,7
2843520,-903,-8287,-1096,4,4,-6,7
2843525,-996,-8288,-1138,4,5,-7,7
2843530,-1075,-8287,-1171,5,6,-8,7
2843535,-1134,-8283,-1207,5,8,-8,7
2843540,-1178,-8278,-1247,5,9,-9,7
2843545,-1200,-8275,-1292,6,10,-9,7
2843550,-1207,-8274,-1340,7,11,-10,7
2843555,-1210,-8267,-1390,7,11,-10,7
2843560,-1212,-8258,-1444,8,10,-11,7
2843565,-1221,-8254,-1497,8,9,-12,7
2843570,-1236,-8249,-1544,9,8,-12,7
2843575,-1255,-8244,-1583,9,7,-13,7
2843580,-1280,-8238,-1613,9,6,-13,7
2843585,-1306,-8235,-1626,10,7,-14,7
2843590,-1312,-8257,-1616,10,8,-15,7
2843595,-1260,-8262,-1589,11,6,-15,7
2843600,-1203,-8254,-1541,11,3,-16,7
2843605,-1186,-8243,-1469,12,3,-17,7
2843610,-1196,-8230,-1403,12,5,-17,7
2843615,-1220,-8219,-1314,12,8,-18,7
2843620,-1233,-8206,-1214,13,11,-18,7
2843625,-1216,-8194,-1112,13,14,-18,7
2843630,-1153,-8182,-1000,13,18,-18,7
2843635,-1039,-8164,-873,13,22,-19,7
2843640,-897,-8147,-728,13,24,-19,7
2843645,-741,-8130,-571,13,25,-20,7
2843650,-576,-8114,-408,13,26,-20,7
2843655,-417,-8098,-240,13,25,-20,7
2843660,-261,-8087,-79,13,25,-20,7
2843665,-100,-8076,65,13,24,-20,7
2843670,69,-8066,188,13,24,-20,7
2843675,254,-8058,296,13,25,-20,7
2843680,452,-8046,392,13,27,-19,7
2843685,658,-8042,474,13,28,-19,7
2843690,849,-8042,536,12,28,-19,7
2843695,1018,-8041,589,12,27,-18,7
2843700,1172,-8043,632,11,26,-17,7
2843705,1304,-8042,673,10,25,-16,7
2843710,1421,-8042,732,10,24,-16,7
2843715,1519,-8035,815,10,23,-15,7
2843720,1642,-8025,949,10,23,-14,7
2843725,1873,-8011,1138,11,22,-14,7
2843730,2197,-8001,1356,11,22,-14,7
2843735,2556,-8001,1601,11,20,-13,7
2843740,2900,-8007,1844,10,19,-13,7
2843745,3174,-8011,2054,9,18,-13,7
2843750,3347,-8014,2220,9,19,-13,7
2843755,3441,-8023,2339,8,19,-13,7
2843760,3464,-8035,2412,8,18,-12,7
2843765,3429,-8050,2421,8,15,-11,7
2843770,3362,-8067,2386,8,11,-10,7
2843775,3294,-8084,2330,7,7,-9,7
2843780,3233,-8101,2278,6,4,-8,7
2843785,3185,-8113,2264,5,2,-8,7
2843790,3151,-8122,2312,4,2,-8,7
2843795,3116,-8130,2424,3,3,-7,7
2843800,3068,-8136,2578,3,2,-7,7
2843805,3003,-8139,2748,2,1,-7,7
2843810,2912,-8142,2919,2,0,-7,7
2843815,2792,-8147,3071,1,-3,-7,7
2843820,2649,-8153,3181,1,-4,-6,7
2843825,2506,-8164,3251,0,-5,-6,7
2843830,2318,-8175,3317,-1,-5,-6,7
2843835,2122,-8184,3371,-2,-5,-6,7
2843840,1936,-8194,3435,-3,-3,-6,7
2843845,1748,-8202,3519,-4,-1,-6,7
2843850,1566,-8208,3635,-6,2,-6,7
2843855,1396,-8209,3771,-7,6,-6,7
2843860,1252,-8210,3923,-8,11,-6,7
2843865,1142,-8207,4048,-9,17,-6,7
2843870,1076,-8203,4137,-10,21,-6,7
2843875,1045,-8199,4175,-10,26,-6,7
2843880,1051,-8192,4158,-11,29,-7,7
2843885,1087,-8187,4095,-12,31,-7,7
2843890,1126,-8183,4010,-13,34,-7,7
2843895,1160,-8180,3919,-15,36,-7,7
2843900,1209,-8173,3835,-16,38,-7,7
2843905,1281,-8164,3766,-17,40,-7,7
2843910,1377,-8152,3717,-17,41,-7,7
2843915,1504,-8138,3674,-18,41,-7,7
2843920,1667,-8123,3634,-19,42,-6,7
2843925,1838,-8109,3589,-19,42,-6,7
2843930,2002,-8099,3542,-20,43,-6,7
2843935,2155,-8085,3490,-21,44,-6,7
2843940,2275,-8076,3444,-22,46,-6,7
2843945,2358,-8065,3409,-23,49,-6,7
2843950,2410,-8055,3381,-24,50,-6,7
2843955,2437,-8044,3367,-25,52,-6,7
2843960,2460,-8033,3362,-25,52,-5,7
2843965,2497,-8022,3349,-26,51,-5,7
2843970,2561,-8007,3323,-27,50,-4,7
2843975,2645,-7992,3276,-27,49,-3,7
2843980,2726,-7975,3203,-28,49,-3,7
2843985,2733,-7958,3091,-28,47,-3,7
2843990,2569,-7940,2954,-28,42,-5,7
2843995,2748,-7915,2752,-29,36,-5,7
2844000,3265,-7910,2502,-29,43,0,7
2844005,3475,-7880,2326,-29,47,3,7
2844010,3779,-7860,2143,-30,45,4,7
2844015,4257,-7844,2023,-30,42,3,7
2844020,4662,-7827,1862,-30,38,3,7
2844025,4866,-7807,1665,-31,34,3,7
2844030,4990,-7795,1463,-30,29,3,7
2844035,5081,-7792,1239,-30,24,3,7
2844040,5017,-7788,983,-30,21,5,7
2844045,4926,-7784,725,-29,18,7,7
2844050,4937,-7788,498,-29,15,8,7
2844055,4922,-7784,286,-28,12,10,7
2844060,4904,-7779,74,-28,10,11,7
2844065,4960,-7776,-111,-28,10,12,7
2844070,4986,-7768,-273,-28,11,12,7
2844075,4967,-7760,-439,-27,11,13,7
2844080,4945,-7756,-588,-27,11,13,7
2844085,4876,-7752,-714,-26,9,14,7
2844090,4770,-7756,-868,-26,6,15,7
2844095,4651,-7759,-1068,-25,3,16,7
2844100,4519,-7760,-1310,-25,-1,17,7
2844105,4396,-7767,-1584,-24,-2,18,7
2844110,4317,-7775,-1879,-24,-3,19,7
2844115,4228,-7777,-2160,-23,-2,20,7
2844120,4156,-7776,-2391,-22,-1,21,7
2844125,4097,-7777,-2565,-22,-1,21,7
2844130,4019,-7781,-2716,-21,-2,22,7
2844135,3947,-7784,-2830,-21,-3,22,7
2844140,3874,-7788,-2908,-20,-4,23,7
2844145,3796,-7789,-2968,-19,-5,24,7
2844150,3736,-7790,-3038,-18,-7,25,7
2844155,3673,-7791,-3115,-16,-9,26,7
2844160,3604,-7793,-3219,-15,-10,26,7
2844165,3532,-7792,-3329,-14,-10,27,7
2844170,3433,-7801,-3404,-13,-11,27,7
2844175,3314,-7808,-3530,-13,-13,27,7
2844180,3168,-7802,-3679,-12,-16,27,7
2844185,2984,-7798,-3783,-11,-17,28,7
2844190,2786,-7804,-3834,-9,-19,28,7
2844195,2578,-7808,-3871,-9,-21,29,7
2844200,2390,-7808,-3931,-8,-22,29,7
2844205,2219,-7807,-3985,-6,-23,29,7
2844210,2055,-7813,-3998,-5,-24,30,7
2844215,1918,-7822,-4011,-4,-25,30,7
2844220,1793,-7826,-4042,-3,-27,30,7
2844225,1658,-7829,-4049,-2,-28,30,7
2844230,1537,-7832,-4031,-1,-30,30,7
2844235,1405,-7828,-4085,1,-33,30,7
2844240,1238,-7826,-4145,3,-35,30,7
2844245,1089,-7826,-4193,4,-38,30,7
2844250,936,-7831,-4291,5,-41,29,7
2844255,758,-7834,-4361,6,-45,29,7
2844260,594,-7835,-4364,7,-49,29,7
2844265,438,-7841,-4327,8,-54,29,7
2844270,291,-7847,-4233,9,-58,29,7
2844275,170,-7848,-4087,10,-60,28,7
2844280,75,-7850,-3906,11,-62,28,7
2844285,-72,-7854,-3772,12,-63,27,7
2844290,-273,-7854,-3702,14,-64,26,7
2844295,-425,-7854,-3632,15,-63,24,7
2844300,-566,-7855,-3639,16,-63,23,7
2844305,-722,-7863,-3717,17,-63,22,7
2844310,-822,-7868,-3735,17,-63,22,7
2844315,-888,-7867,-3682,17,-64,22,7
2844320,-1191,-7867,-3563,18,-66,22,7
2844325,-1493,-7870,-3368,19,-71,19,7
2844330,-1646,-7874,-3131,20,-70,18,7
2844335,-1847,-7878,-2957,20,-69,18,7
2844340,-2114,-7884,-2777,21,-66,18,7
2844345,-2303,-7889,-2544,23,-61,18,7
2844350,-2435,-7898,-2334,23,-56,18,7
2844355,-2554,-7905,-2163,24,-52,17,7
2844360,-2616,-7912,-1976,24,-47,16,7
2844365,-2639,-7919,-1803,25,-44,15,7
2844370,-2702,-7925,-1676,25,-42,13,7
2844375,-2764,-7929,-1563,25,-41,12,7
2844380,-2826,-7936,-1463,26,-40,11,7
2844385,-2932,-7948,-1402,26,-39,10,7
2844390,-3006,-7954,-1347,26,-37,10,7
2844395,-3027,-7953,-1277,26,-35,9,7
2844400,-3041,-7959,-1218,26,-33,8,7
2844405,-2996,-7964,-1149,27,-31,8,7
2844410,-2925,-7967,-1058,27,-30,6,7
2844415,-2881,-7969,-966,27,-29,5,7
2844420,-2842,-7968,-885,27,-30,4,7
2844425,-2836,-7965,-802,27,-30,3,7
2844430,-2882,-7967,-731,27,-31,2,7
2844435,-2948,-7967,-664,28,-30,1,7
2844440,-3051,-7973,-534,27,-30,0,7
2844445,-3209,-7980,-374,27,-29,-2,7
2844450,-3398,-7979,-226,26,-29,-3,7
2844455,-3572,-7976,-107,26,-27,-3,7
2844460,-3710,-7973,5,27,-23,-4,7
2844465,-3818,-7975,141,27,-18,-5,7
2844470,-3912,-7983,330,27,-15,-6,7
2844475,-4008,-7991,549,26,-12,-8,7
2844480,-4104,-7989,787,25,-9,-10,7
2844485,-4219,-7983,1032,24,-6,-11,7
2844490,-4322,-7977,1302,24,-2,-12,7
2844495,-4380,-7971,1567,24,1,-13,7
2844500,-4383,-7972,1792,24,4,-14,7
2844505,-4331,-7975,1960,23,7,-15,7
2844510,-4236,-7974,2051,23,10,-16,7
2844515,-4142,-7979,2121,22,14,-18,7
2844520,-4070,-7985,2193,21,18,-19,7
2844525,-4037,-7983,2277,20,21,-21,7
2844530,-4046,-7979,2378,19,26,-22,7
2844535,-4077,-7975,2517,18,31,-22,7
2844540,-4093,-7968,2691,18,36,-23,7
2844545,-4063,-7962,2865,17,41,-24,7
2844550,-3993,-7951,3036,16,44,-24,7
2844555,-3879,-7941,3183,16,46,-25,7
2844560,-3760,-7931,3328,15,47,-26,7
2844565,-3631,-7923,3449,14,49,-28,7
2844570,-3521,-7912,3545,13,52,-29,7
2844575,-3443,-7903,3650,12,55,-29,7
2844580,-3361,-7893,3746,11,59,-30,7
2844585,-3277,-7887,3848,11,62,-31,7
2844590,-3165,-7874,3925,10,65,-31,7
2844595,-3051,-7864,4004,9,66,-31,7
2844600,-2898,-7856,4038,8,65,-32,7
2844605,-2739,-7845,4023,7,64,-32,7
2844610,-2580,-7834,4059,6,63,-32,7
2844615,-2410,-7823,4128,5,63,-33,7
2844620,-2261,-7809,4189,5,62,-33,7
2844625,-2110,-7798,4235,4,61,-34,7
2844630,-1930,-7784,4234,3,61,-34,7
2844635,-1756,-7772,4264,3,61,-34,7
2844640,-1547,-7761,4290,3,61,-35,7
2844645,-1336,-7749,4302,2,61,-36,7
2844650,-1141,-7744,4281,2,63,-36,7
2844655,-947,-7737,4262,1,65,-37,7
2844660,-774,-7735,4230,1,68,-37,7
2844665,-637,-7726,4176,0,70,-37,7
2844670,-518,-7723,4118,-1,71,-37,7
2844675,-392,-7719,4032,-1,72,-37,7
2844680,-219,-7718,3970,-2,73,-38,7
2844685,-3,-7716,3965,-2,75,-37,7
2844690,215,-7710,3918,-3,74,-36,7
2844695,406,-7701,3861,-4,72,-35,7
2844700,598,-7697,3837,-4,70,-35,7
2844705,850,-7690,3798,-4,67,-35,7
2844710,1118,-7686,3746,-4,65,-35,7
2844715,1304,-7686,3684,-4,63,-35,7
2844720,1604,-7678,3548,-5,59,-35,7
2844725,2105,-7681,3348,-4,63,-32,7
2844730,2497,-7688,3183,-4,66,-30,7
2844735,2900,-7697,2982,-4,60,-29,7
2844740,3371,-7707,2788,-5,55,-29,7
2844745,3788,-7724,2615,-5,51,-28,7
2844750,4119,-7741,2454,-5,47,-27,7
2844755,4416,-7757,2308,-5,42,-26,7
2844760,4718,-7777,2169,-5,38,-25,7
2844765,4966,-7797,2036,-5,34,-23,7
2844770,5176,-7818,1920,-5,29,-21,7
2844775,5399,-7841,1820,-5,25,-20,7
2844780,5573,-7865,1747,-5,21,-19,7
2844785,5714,-7888,1677,-5,16,-17,7
2844790,5861,-7913,1618,-5,12,-16,7
2844795,5970,-7935,1591,-5,8,-14,7
2844800,6049,-7956,1554,-5,4,-12,7
2844805,6126,-7976,1533,-5,1,-11,7
2844810,6164,-7996,1531,-5,-2,-10,7
2844815,6166,-8013,1522,-6,-5,-8,7
2844820,6147,-8029,1538,-6,-6,-7,7
2844825,6083,-8041,1580,-6,-6,-6,7
2844830,6001,-8053,1622,-6,-6,-4,7
2844835,5910,-8064,1687,-7,-5,-3,7
2844840,5814,-8072,1770,-7,-4,-2,7
2844845,5746,-8080,1843,-8,-4,0,7
2844850,5708,-8087,1928,-8,-3,2,7
2844855,5688,-8089,2019,-8,-3,3,7
2844860,5710,-8090,2110,-9,-2,5,7
2844865,5746,-8093,2200,-9,-2,6,7
2844870,5771,-8093,2289,-10,-1,7,7
2844875,5788,-8087,2384,-10,-2,8,7
2844880,5775,-8082,2493,-11,-2,9,7
2844885,5729,-8079,2603,-12,-3,10,7
2844890,5648,-8075,2720,-13,-3,11,7
2844895,5535,-8070,2843,-13,-2,12,7
2844900,5404,-8062,2957,-14,-1,13,7
2844905,5244,-8050,3078,-15,0,14,7
2844910,5060,-8037,3192,-16,1,15,7
2844915,4853,-8024,3291,-17,3,16,7
2844920,4618,-8013,3374,-17,4,17,7
2844925,4367,-8002,3424,-18,4,17,7
2844930,4102,-7990,3435,-19,3,18,7
2844935,3825,-7980,3418,-19,1,18,7
2844940,3545,-7968,3370,-20,-1,19,7
2844945,3281,-7957,3297,-21,-1,19,7
2844950,3038,-7948,3220,-21,0,20,7
2844955,2825,-7936,3141,-22,1,20,7
2844960,2638,-7923,3069,-23,1,20,7
2844965,2460,-7908,3008,-24,0,20,7
2844970,2288,-7894,2943,-24,0,20,7
2844975,2109,-7882,2870,-25,0,20,7
2844980,1909,-7867,2769,-25,1,20,7
2844985,1698,-7856,2635,-25,2,20,7
2844990,1477,-7844,2453,-25,3,20,7
2844995,1269,-7838,2214,-25,3,20,7
2845000,1057,-7840,1948,-25,1,20,7
2845005,844,-7841,1660,-25,-1,20,7
2845009,668,-7840,1346,-25,-3,20,7
2845015,545,-7848,1024,-25,-1,20,7
2845020,463,-7862,714,-25,0,20,7
2845025,397,-7885,399,-25,0,20,7
2845030,339,-7914,84,-24,1,20,7
2845034,296,-7928,-243,-24,2,19,7
2845040,265,-7929,-564,-24,2,18,7
2845045,205,-7929,-847,-23,-1,18,7
2845050,106,-7926,-1101,-22,-5,17,7
2845055,1,-7927,-1316,-21,-10,16,7
2845060,-108,-7929,-1496,-20,-15,16,7
2845065,-215,-7936,-1646,-18,-17,15,7
2845070,-309,-7942,-1780,-16,-20,14,7
2845075,-398,-7950,-1892,-15,-21,12,7
2845080,-447,-7979,-2040,-14,-21,12,7
2845085,-582,-8019,-2242,-13,-22,12,7
2845090,-772,-8039,-2405,-14,-23,13,7
2845095,-955,-8053,-2527,-14,-23,14,7
2845100,-1400,-8073,-2943,-13,-25,12,7
2845104,-1704,-8095,-3343,-10,-31,9,7
2845110,-1891,-8121,-3552,-8,-33,9,7
2845115,-2134,-8150,-3730,-8,-37,9,7
2845119,-2447,-8174,-4014,-8,-41,10,7
2845124,-2546,-8198,-4101,-7,-40,9,7
2845130,-2498,-8208,-3989,-7,-37,9,7
2845134,-2449,-8219,-3779,-7,-34,8,7
2845140,-2350,-8225,-3496,-6,-32,6,7
2845144,-2215,-8228,-3197,-4,-30,5,7
2845150,-2151,-8234,-2944,-3,-29,3,7
2845155,-2121,-8238,-2739,-2,-29,3,7
2845160,-2074,-8244,-2573,-1,-28,2,7
2845164,-2065,-8256,-2486,0,-28,2,7
2845169,-2058,-8265,-2491,0,-27,2,7
2845175,-1985,-8272,-2494,1,-25,2,7
2845180,-1886,-8276,-2445,1,-22,2,7
2845184,-1758,-8283,-2337,1,-19,1,7
2845190,-1599,-8285,-2220,1,-18,1,7
2845194,-1450,-8282,-2040,1,-16,0,7
2845199,-1305,-8280,-1803,1,-15,-1,7
2845205,-1169,-8278,-1555,1,-15,-1,7
2845209,-1068,-8277,-1339,1,-14,-1,7
2845215,-972,-8275,-1143,2,-13,-1,7
2845219,-886,-8276,-951,2,-11,-2,7
2845224,-807,-8280,-787,2,-8,-2,7
2845230,-723,-8282,-656,2,-6,-2,7
2845235,-640,-8283,-539,2,-4,-2,7
2845240,-548,-8282,-424,2,-2,-2,7
2845245,-446,-8282,-319,1,0,-2,7
2845250,-345,-8281,-222,1,1,-2,7
2845255,-234,-8280,-135,1,2,-2,7
2845260,-112,-8277,-48,1,3,-2,7
2845265,9,-8275,35,1,3,-2,7
2845270,139,-8275,94,1,3,-1,7
2845275,262,-8273,133,1,3,-1,7
2845280,387,-8270,150,1,3,-1,7
2845285,501,-8267,146,1,1,-1,7
2845290,597,-8268,124,1,0,-1,7
2845294,678,-8271,82,1,-1,-1,7
2845300,747,-8271,42,1,-3,-1,7
2845305,791,-8271,7,1,-5,-1,7
2845310,817,-8272,-24,0,-6,0,7
2845314,825,-8273,-37,0,-8,0,7
2845319,815,-8276,-28,0,-8,0,7
2845325,796,-8278,-3,0,-10,0,7
2845330,769,-8277,20,0,-10,0,7
2845335,733,-8275,42,0,-11,0,7
2845340,699,-8276,63,0,-11,0,7
2845345,659,-8274,80,0,-11,0,7
2845350,614,-8277,78,0,-10,0,7
2845354,572,-8278,66,0,-10,1,7
2845360,528,-8278,56,0,-8,1,7
2845364,490,-8276,47,0,-8,1,7
2845369,462,-8276,36,0,-7,1,7
2845374,433,-8279,27,0,-7,1,7
2845380,412,-8278,19,0,-8,1,7
2845384,398,-8280,17,0,-7,1,7
2845390,383,-8275,19,0,-7,1,7
2845394,372,-8274,5,0,-6,1,7
2845400,359,-8274,-5,0,-5,1,7
2845405,340,-8276,-16,0,-6,0,7
2845409,323,-8276,-37,0,-6,0,7
2845414,307,-8276,-61,0,-7,1,7
2845420,295,-8278,-90,0,-7,1,7
2845424,292,-8279,-120,0,-8,1,7
2845429,287,-8279,-145,0,-8,1,7
2845435,285,-8279,-160,0,-8,1,7
2845440,284,-8279,-166,0,-8,1,7
2845445,273,-8281,-159,0,-8,1,7
2845450,255,-8285,-143,0,-8,0,7
2845455,237,-8286,-130,0,-8,0,7
2845459,216,-8290,-107,0,-7,0,7
2845464,199,-8292,-93,0,-6,0,7
2845469,193,-8290,-77,0,-5,0,7
2845474,192,-8289,-64,0,-4,0,0
2845479,195,-8289,-58,0,-3,0,0
2845485,208,-8289,-61,0,-2,0,0
2845489,225,-8285,-62,0,-2,0,0
2845494,254,-8283,-58,0,-2,0,0
2845500,274,-8280,-55,0,-2,0,0
2845504,276,-8280,-68,0,-3,0,0
2845509,283,-8281,-77,0,-3,0,0
2845515,294,-8279,-75,0,-4,0,0
2845520,303,-8278,-76,0,-4,0,0
2845524,307,-8276,-72,0,-5,0,0
2845530,313,-8276,-63,0,-5,0,0
2845534,315,-8277,-45,0,-5,0,0
2845539,302,-8280,-34,0,-6,0,0
2845545,273,-8279,-22,0,-5,0,0
2845550,244,-8279,-6,0,-5,0,0
2845554,217,-8279,6,0,-4,0,0
2845559,187,-8282,19,0,-4,0,0
2845564,165,-8283,25,0,-3,0,0
2845569,151,-8284,30,0,-3,0,0
2845574,144,-8284,34,0,-2,0,0
2845580,147,-8283,37,0,-2,0,0
2845584,159,-8284,37,0,-1,0,0
2845589,168,-8283,42,0,-1,0,0
2845594,177,-8283,44,0,-1,0,0
2845599,184,-8283,49,0,0,0,0
2845604,186,-8282,53,0,0,0,0
2845609,188,-8281,55,0,-1,0,0
2845614,187,-8282,58,0,-1,0,0
2845620,195,-8284,58,0,0,0,0
2845625,207,-8284,60,0,0,0,0
2845629,223,-8283,58,0,0,0,0
2845634,239,-8283,54,-1,-1,0,0
2845640,260,-8281,55,-1,-1,0,0
2845645,274,-8279,53,-1,-1,0,0
2845649,285,-8279,52,-1,-2,0,0
2845654,290,-8277,49,-1,-2,0,0
2845660,292,-8274,54,-1,-2,0,0
2845665,294,-8273,58,-1,-2,0,0
2845669,289,-8274,58,-1,-3,0,0
2845674,280,-8275,61,-1,-2,0,0
2845679,263,-8274,72,-1,-2,0,0
2845684,248,-8274,77,-1,-1,0,0
2845690,227,-8273,83,-1,-1,0,0
2845694,206,-8271,88,-1,-1,0,0
2845699,190,-8270,88,-1,-1,0,0
2845705,178,-8269,83,-1,-1,0,0
2845709,178,-8271,74,-1,-1,0,0
2845714,181,-8276,69,-1,-1,0,0
2845720,192,-8279,55,-1,-1,0,0
2845724,204,-8280,33,-1,-1,0,0
2845729,218,-8282,2,-1,-1,0,0
2845734,226,-8281,-30,-1,-1,0,0
2845739,237,-8279,-57,-1,-2,0,0
2845744,245,-8277,-88,-1,-2,0,0
2845749,250,-8274,-109,-1,-2,0,0
2845754,259,-8274,-133,-1,-3,0,0
2845759,266,-8274,-158,-1,-3,0,0
2845764,271,-8274,-181,-1,-3,0,0
2845769,277,-8274,-194,-1,-3,0,0
2845775,275,-8274,-207,0,-4,0,0
2845779,270,-8276,-219,0,-4,0,0
2845784,260,-8278,-228,0,-4,0,0
2845789,241,-8278,-234,0,-5,0,0
2845794,220,-8279,-238,0,-5,0,0
2845799,197,-8281,-242,0,-5,0,0
2845804,174,-8281,-235,0,-5,0,0
2845809,155,-8282,-226,0,-5,0,0
2845814,136,-8282,-216,0,-5,0,0
2845819,118,-8280,-196,0,-5,0,0
2845824,104,-8282,-180,0,-5,0,0
2845829,87,-8279,-166,0,-5,0,0
2845834,69,-8281,-143,0,-5,0,0
2845839,54,-8280,-121,0,-4,0,0
2845844,42,-8281,-103,0,-4,-1,0
2845849,33,-8279,-81,0,-4,-1,0
2845854,28,-8279,-63,0,-3,-1,0
2845859,25,-8279,-52,0,-3,-1,0
2845864,26,-8278,-43,0,-4,-1,0
2845869,31,-8278,-39,0,-4,-1,0
2845874,37,-8276,-40,0,-4,-1,0
2845879,40,-8278,-40,0,-4,-1,0
2845884,47,-8281,-46,0,-4,-1,0
2845889,62,-8283,-48,0,-4,-1,0
2845894,78,-8282,-47,0,-4,-1,0
2845899,96,-8282,-50,0,-4,-1,0
2845904,111,-8283,-48,0,-4,-1,0
2845909,128,-8280,-40,0,-4,-1,0
2845914,141,-8281,-25,0,-4,-1,0
2845919,147,-8283,-6,0,-3,-1,0
2845924,143,-8282,11,0,-3,-1,0
2845929,129,-8281,27,0,-2,-1,0
2845934,107,-8281,37,0,-2,-1,0
2845939,84,-8283,46,0,-1,-1,0
2845944,60,-8285,46,-1,0,-1,0
2845949,44,-8284,49,-1,1,-1,0
2845954,39,-8282,54,-1,2,-1,0
2845959,42,-8282,59,-1,2,-1,0
2845964,63,-8281,54,-1,3,-1,0
2845969,88,-8281,44,-1,3,-1,0
2845974,126,-8281,33,-1,3,-1,0
2845979,168,-8279,17,-1,3,-1,0
2845984,210,-8278,-7,-1,3,-1,0
2845989,252,-8279,-32,-1,3,-1,0
2845994,287,-8279,-54,-1,2,-1,0
2845999,315,-8276,-78,0,2,-1,0
2846004,336,-8276,-99,0,1,-1,0
2846009,347,-8278,-116,0,0,-1,0
2846014,354,-8279,-125,0,0,-1,0
2846019,358,-8281,-125,0,0,-1,0
2846024,359,-8281,-121,0,0,-1,0
2846029,354,-8281,-105,0,0,-1,0
2846034,343,-8280,-90,0,0,-1,0
2846039,325,-8282,-72,0,0,-1,0
2846044,303,-8281,-53,0,0,-1,0
2846049,280,-8281,-37,0,0,-1,0
2846054,257,-8281,-22,0,0,-1,0
2846059,238,-8281,-9,0,1,-1,0
2846064,222,-8281,6,0,1,-1,0
2846069,213,-8285,17,-1,1,-1,0
2846074,208,-8285,24,-1,1,-1,0
2846079,210,-8285,32,-1,1,-1,0
2846084,214,-8284,39,-1,1,-1,0
2846089,224,-8282,44,-1,0,-1,0
2846094,235,-8281,49,-1,0,-1,0
2846099,241,-8276,51,-1,0,-1,0
2846104,245,-8272,55,-1,0,-1,0
2846109,245,-8271,56,-1,0,-1,0
2846114,249,-8273,52,-1,0,-1,0
2846119,251,-8273,49,-1,0,-1,0
2846124,258,-8270,45,-1,0,-1,0
2846129,267,-8272,41,-1,0,-1,0
2846134,275,-8273,35,-1,0,-1,0
2846139,277,-8271,36,-1,-1,-1,0
2846144,274,-8269,33,-1,-1,-1,0
2846149,270,-8268,23,-1,-2,-1,0
2846154,261,-8270,19,-1,-2,-1,0
2846159,249,-8270,11,-1,-2,-1,0
2846164,232,-8273,-1,-1,-2,-1,0
2846169,213,-8273,-18,-1,-2,-1,0
2846174,191,-8274,-33,-1,-2,-1,0
2846179,169,-8275,-51,-1,-2,-1,0
2846184,140,-8277,-67,-1,-2,-1,0
2846189,109,-8279,-80,-1,-1,-1,0
2846194,72,-8280,-97,-1,0,-2,0
2846199,34,-8281,-108,-1,0,-2,0
2846204,5,-8281,-117,-1,1,-2,0
2846209,-15,-8282,-125,-1,2,-2,0
2846214,-23,-8284,-128,-1,2,-2,0
2846219,-21,-8285,-139,-1,2,-2,0
2846224,-5,-8286,-148,0,3,-2,0
2846229,24,-8288,-161,-1,3,-2,0
2846234,58,-8290,-168,0,3,-2,0
2846239,91,-8290,-174,0,3,-2,0
2846244,119,-8286,-175,0,3,-2,0
