millis,ax,ay,az,gx,gy,gz,label
1197480,722,-8289,332,0,-2,0,0
1197485,718,-8288,322,0,-2,0,0
1197490,715,-8287,315,0,-2,0,0
1197495,710,-8290,304,0,-1,0,0
1197500,705,-8291,291,0,-1,0,0
1197505,705,-8291,284,0,-1,0,0
1197510,707,-8290,279,0,-1,0,0
1197515,709,-8288,283,0,-1,-1,0
1197520,714,-8289,289,0,-1,-1,0
1197525,722,-8288,298,0,-1,0,0
1197530,729,-8288,309,0,-1,0,0
1197535,734,-8287,315,0,-1,0,0
1197540,740,-8286,318,0,-1,0,0
1197545,744,-8287,321,0,-2,0,0
1197550,744,-8287,323,0,-2,0,0
1197555,745,-8285,324,0,-2,0,0
1197560,749,-8281,323,0,-2,0,0
1197565,754,-8281,314,0,-2,0,0
1197570,755,-8280,317,0,-3,0,0
1197575,758,-8279,317,0,-3,0,0
1197580,761,-8280,318,0,-3,-1,0
1197585,769,-8283,317,0,-4,0,0
1197590,776,-8285,315,0,-4,0,0
1197595,781,-8285,314,0,-5,0,0
1197600,783,-8287,307,0,-5,0,0
1197605,784,-8288,297,0,-5,0,0
1197610,785,-8291,280,0,-4,0,0
1197615,793,-8289,266,0,-4,0,0
1197620,800,-8289,253,0,-3,0,0
1197625,803,-8287,238,0,-3,0,0
1197630,808,-8284,227,0,-3,0,0
1197635,813,-8283,223,0,-4,0,0
1197640,817,-8282,222,0,-4,0,0
1197645,819,-8279,221,0,-4,0,0
1197650,816,-8280,217,1,-4,0,0
1197655,813,-8280,211,1,-4,0,0
1197660,808,-8279,204,1,-4,0,0
1197665,805,-8277,202,1,-4,0,0
1197670,800,-8280,200,1,-4,0,0
1197675,794,-8282,195,1,-4,0,0
1197680,788,-8284,191,1,-3,0,0
1197685,786,-8283,186,1,-3,0,0
1197690,787,-8284,180,1,-3,0,0
1197695,789,-8283,185,1,-3,0,0
1197700,791,-8280,183,1,-3,0,0
1197705,795,-8276,187,1,-3,0,0
1197710,802,-8277,186,1,-4,0,0
1197715,811,-8275,186,1,-4,0,0
1197720,821,-8276,182,1,-5,0,0
1197725,827,-8276,182,1,-6,0,0
1197730,828,-8275,187,1,-7,0,0
1197735,831,-8274,182,1,-8,0,0
1197740,833,-8274,182,1,-8,0,0
1197745,835,-8278,178,1,-8,0,0
1197750,836,-8278,179,1,-8,0,0
1197755,833,-8280,179,1,-8,0,0
1197760,826,-8281,178,1,-7,0,0
1197765,817,-8281,177,1,-7,0,0
1197770,805,-8281,184,1,-6,0,0
1197775,797,-8280,189,1,-6,0,0
1197780,786,-8280,198,1,-6,0,0
1197785,772,-8281,209,1,-6,0,0
1197790,753,-8281,221,1,-6,0,0
1197795,738,-8282,230,1,-6,0,0
1197800,727,-8283,240,1,-6,0,0
1197805,720,-8283,252,1,-6,0,0
1197810,717,-8282,264,2,-6,0,0
1197815,718,-8282,277,1,-7,0,0
1197820,725,-8283,291,1,-7,0,0
1197825,721,-8282,304,1,-7,0,0
1197830,731,-8280,305,1,-5,0,0
1197835,735,-8278,316,1,-3,0,0
1197840,764,-8282,321,2,-3,0,0
1197845,778,-8285,335,1,-4,0,0
1197850,783,-8285,343,1,-5,0,0
1197855,785,-8285,353,1,-6,0,0
1197860,785,-8284,367,1,-7,0,0
1197865,785,-8285,374,1,-6,0,0
1197870,785,-8286,378,2,-6,0,0
1197875,790,-8285,379,1,-5,0,0
1197880,792,-8284,378,1,-5,0,0
1197885,793,-8282,375,1,-6,0,0
1197890,784,-8285,375,1,-6,0,0
1197895,770,-8287,378,1,-6,0,0
1197900,755,-8288,386,1,-6,0,0
1197905,735,-8290,393,1,-7,0,0
1197910,719,-8292,402,1,-7,0,0
1197915,705,-8289,420,1,-7,1,0
1197920,699,-8288,442,1,-7,0,0
1197925,697,-8289,466,1,-6,0,0
1197930,698,-8290,488,1,-6,0,0
1197935,700,-8290,506,1,-6,0,0
1197940,704,-8289,521,1,-5,0,0
1197945,708,-8287,536,1,-5,0,0
1197950,706,-8282,545,1,-5,0,0
1197955,704,-8278,551,1,-5,0,0
1197960,704,-8276,563,1,-5,0,0
1197965,708,-8278,575,1,-5,0,0
1197970,711,-8277,581,1,-5,0,0
1197975,717,-8275,590,1,-5,0,0
1197980,723,-8274,596,1,-5,0,0
1197985,728,-8273,601,0,-6,0,0
1197990,736,-8275,602,0,-6,0,0
1197995,741,-8275,599,0,-6,0,0
1198000,740,-8276,593,0,-6,0,0
1198005,734,-8276,582,0,-6,0,0
1198010,721,-8275,574,0,-6,0,0
1198015,705,-8274,561,0,-6,0,0
1198020,690,-8273,548,0,-5,0,0
1198025,676,-8273,534,0,-4,0,0
1198030,664,-8273,530,0,-4,0,0
1198035,659,-8274,527,0,-3,0,0
1198040,651,-8276,529,0,-3,0,0
1198045,641,-8278,537,0,-3,0,0
1198050,631,-8281,550,0,-3,0,0
1198055,621,-8283,559,0,-2,0,0
1198060,613,-8285,570,0,-2,0,0
1198065,604,-8283,578,0,-2,0,0
1198070,602,-8285,583,0,-1,0,0
1198075,597,-8283,590,0,-1,0,0
1198080,598,-8282,596,-1,-1,0,0
1198085,602,-8281,596,-1,-1,0,0
1198090,603,-8277,593,-1,-1,0,0
1198095,606,-8278,584,-1,0,0,0
1198100,612,-8279,577,-1,0,0,0
1198105,620,-8282,565,-1,0,0,0
1198110,626,-8283,556,-1,0,0,0
1198115,631,-8283,547,-1,0,0,0
1198120,635,-8285,536,-1,0,0,0
1198125,635,-8287,520,-1,-1,0,0
1198130,627,-8290,503,-1,-1,0,0
1198135,618,-8291,484,-1,-1,0,0
1198140,608,-8290,465,-1,0,0,0
1198145,599,-8289,446,-1,0,0,0
1198150,591,-8287,431,-1,0,0,0
1198155,586,-8285,417,-1,0,0,0
1198160,583,-8284,402,-1,0,0,0
1198165,586,-8283,395,-1,0,0,0
1198170,587,-8285,387,-1,0,0,0
1198175,590,-8286,386,-1,0,0,0
1198180,592,-8286,386,-1,0,0,0
1198185,592,-8285,391,-1,0,0,0
1198190,591,-8285,395,-1,0,-1,0
1198195,587,-8285,398,-1,0,-1,0
1198200,584,-8284,399,-1,0,-1,0
1198205,579,-8284,397,-1,0,-1,0
1198210,576,-8286,393,-1,0,-1,0
1198215,580,-8287,388,-1,0,-1,0
1198220,582,-8287,376,-1,0,-1,0
1198225,588,-8287,365,-1,0,-1,0
1198230,598,-8287,350,-1,0,-1,0
1198235,610,-8289,334,-1,0,-1,0
1198240,619,-8293,322,-1,0,-1,0
1198245,624,-8295,313,-1,0,-1,0
1198250,630,-8294,305,-1,0,-1,0
1198255,637,-8294,301,-1,0,-1,0
1198260,642,-8293,299,-1,0,-1,0
1198265,646,-8293,296,-1,0,-1,0
1198270,652,-8291,292,-1,0,-1,0
1198275,658,-8291,292,-1,0,-1,0
1198280,665,-8289,293,-1,0,-1,0
1198285,668,-8289,296,-1,0,-1,0
1198290,671,-8290,297,-1,0,-1,0
1198295,675,-8288,302,-1,0,-1,0
1198300,679,-8288,305,-1,0,-1,0
1198305,684,-8287,310,0,0,-1,0
1198310,685,-8286,316,0,0,-1,0
1198315,685,-8284,315,0,0,-1,0
1198320,683,-8287,316,0,0,-1,0
1198325,686,-8289,318,0,0,-1,0
1198330,688,-8290,316,0,0,-1,0
1198335,695,-8289,311,0,0,-1,0
1198340,701,-8287,300,0,0,-1,0
1198345,715,-8287,295,0,0,-1,0
1198350,725,-8285,291,0,-1,-1,0
1198355,729,-8286,286,0,-1,-1,0
1198360,733,-8284,285,0,-1,-1,0
1198365,736,-8283,283,0,-1,-1,0
1198370,740,-8283,278,0,-1,-1,0
1198375,743,-8282,269,0,-1,-1,0
1198380,742,-8282,260,0,-1,-1,0
1198385,741,-8284,249,0,-1,-1,0
1198390,744,-8286,242,0,-1,0,0
1198395,744,-8284,236,0,-1,-1,0
1198400,743,-8285,235,0,-1,0,0
1198405,742,-8286,236,0,-1,0,0
1198410,739,-8283,241,0,-1,0,0
1198414,735,-8283,246,0,-1,-1,0
1198420,729,-8284,256,0,-1,-1,0
1198425,722,-8287,273,0,-1,0,0
1198430,713,-8286,285,0,-1,0,0
1198435,707,-8285,302,0,-1,0,0
1198439,702,-8285,317,0,-1,0,0
1198445,696,-8282,329,0,-1,-1,0
1198450,692,-8282,347,0,-1,0,0
1198455,690,-8282,363,0,-1,0,0
1198460,683,-8283,379,0,-1,-1,0
1198464,676,-8282,400,0,-1,-1,0
1198470,667,-8282,416,0,-2,-1,0
1198474,656,-8284,429,0,-2,-1,0
1198480,644,-8283,442,0,-2,-1,0
1198485,631,-8282,460,0,-2,-1,0
1198490,621,-8282,466,0,-1,-1,0
1198495,614,-8285,466,0,-1,-1,0
1198499,609,-8287,466,0,0,-1,0
1198504,612,-8286,471,0,0,-1,0
1198509,614,-8288,469,0,0,-1,0
1198514,616,-8286,470,0,0,-1,0
1198519,621,-8287,475,0,0,-1,0
1198524,628,-8287,476,0,0,-1,0
1198530,636,-8286,477,0,0,-1,0
1198535,644,-8284,479,0,0,-1,0
1198540,652,-8281,481,0,0,-1,0
1198545,662,-8281,480,0,0,-1,0
1198550,675,-8282,477,0,0,-1,0
1198555,684,-8282,468,0,0,-1,0
1198559,694,-8280,461,0,0,-1,0
1198565,702,-8278,453,0,0,-1,0
1198570,707,-8278,449,0,0,-1,0
1198574,712,-8278,442,0,0,-1,0
1198580,717,-8278,435,0,0,-1,0
1198584,721,-8279,431,0,0,-1,0
1198589,725,-8280,427,0,0,-1,0
1198595,731,-8279,419,0,0,-1,0
1198599,735,-8281,414,0,0,-1,0
1198604,737,-8281,405,0,0,-1,0
1198609,737,-8285,400,0,0,-1,0
1198615,737,-8284,393,0,0,-1,0
1198619,736,-8284,384,0,0,-1,0
1198624,737,-8285,381,0,0,-1,0
1198630,735,-8285,379,0,0,-1,0
1198634,735,-8282,376,0,0,-1,0
1198639,732,-8278,377,0,0,-1,0
1198645,733,-8277,381,0,0,-1,0
1198649,736,-8280,387,0,0,-1,0
1198654,734,-8282,392,0,0,-1,0
1198659,732,-8282,398,0,0,-1,0
1198664,729,-8282,402,0,0,-1,0
1198669,727,-8283,403,0,-1,-1,0
1198674,725,-8283,404,0,-1,-1,0
1198679,725,-8283,406,0,-1,-1,0
1198685,722,-8284,412,0,-1,-1,0
1198689,721,-8284,422,0,0,-1,0
1198694,722,-8287,431,0,0,-1,0
1198699,722,-8284,441,0,0,0,0
1198704,726,-8284,439,0,-1,0,0
1198709,730,-8285,437,0,0,-1,0
1198714,732,-8284,434,0,0,0,0
1198719,729,-8284,429,0,0,0,0
1198724,723,-8284,424,0,0,0,0
1198729,717,-8285,415,0,0,0,0
1198734,711,-8282,401,0,0,-1,0
1198739,704,-8281,394,0,0,-1,0
1198744,703,-8281,391,0,0,-1,0
1198750,702,-8284,388,0,0,0,0
1198754,705,-8286,385,0,0,0,0
1198759,710,-8284,388,0,0,0,0
1198765,718,-8279,385,0,0,-1,0
1198769,729,-8276,385,0,0,0,0
1198774,736,-8274,384,0,0,0,0
1198780,738,-8274,394,0,0,0,0
1198784,742,-8274,396,0,0,0,0
1198789,748,-8276,396,0,0,0,0
1198795,750,-8277,400,0,0,0,0
1198799,749,-8279,406,0,0,0,0
1198804,751,-8280,412,0,0,0,0
1198809,757,-8282,421,0,0,0,0
1198814,762,-8282,429,0,0,0,0
1198819,763,-8280,433,0,-1,0,0
1198824,764,-8280,439,0,0,0,0
1198829,766,-8281,437,0,0,0,0
1198834,766,-8279,437,0,-1,0,0
1198839,761,-8280,426,0,-1,0,0
1198844,755,-8282,412,0,-1,0,0
1198849,751,-8283,399,0,-1,0,0
1198854,746,-8283,397,0,-1,0,0
1198859,736,-8281,389,0,-1,0,0
1198864,725,-8280,385,0,-1,0,0
1198869,714,-8282,391,0,-1,0,0
1198874,705,-8280,392,0,-1,0,0
1198879,697,-8282,402,0,-1,0,0
1198884,691,-8282,418,0,-1,0,0
1198889,687,-8282,433,0,-1,0,0
1198894,684,-8283,442,0,-1,0,0
1198899,684,-8283,455,0,-1,0,0
1198904,686,-8285,459,0,-1,0,0
1198909,691,-8286,467,0,-1,0,0
1198914,695,-8285,479,0,-1,0,0
1198919,695,-8286,493,-1,-1,0,0
1198924,696,-8284,500,-1,-1,0,0
1198929,694,-8282,499,-1,-1,0,0
1198934,691,-8283,500,-1,0,0,0
1198939,685,-8282,500,-1,0,0,0
1198944,679,-8283,500,-1,0,0,0
1198949,673,-8282,497,-1,0,0,0
1198954,667,-8280,495,-1,0,0,0
1198959,657,-8279,490,-1,0,-1,0
1198964,643,-8278,484,-1,0,-1,0
1198969,628,-8279,471,-1,0,-1,0
1198974,615,-8279,468,-1,0,-1,0
1198979,599,-8281,467,-1,0,-1,0
1198984,584,-8281,465,-1,0,-1,0
1198989,572,-8281,469,-1,0,-1,0
1198994,566,-8280,478,-1,0,-1,0
1198999,564,-8280,495,-1,1,-1,0
1199004,567,-8280,506,-1,1,-1,0
1199009,574,-8280,511,-1,0,-1,0
1199014,590,-8282,513,-1,0,-1,0
1199019,606,-8281,511,-1,1,-1,0
1199024,625,-8282,509,-1,1,-1,0
1199029,634,-8284,500,-1,1,-1,0
1199034,646,-8283,490,-1,1,-1,0
1199039,649,-8281,478,-1,1,-1,0
1199044,650,-8280,471,-1,1,-1,0
1199049,650,-8278,463,-1,1,-1,0
1199054,652,-8276,453,-1,1,-1,0
1199059,651,-8276,435,-1,1,-1,0
1199064,650,-8277,425,-1,1,-1,0
1199069,660,-8278,418,-1,1,-1,0
1199074,672,-8279,401,-1,1,-1,0
1199079,676,-8281,395,-1,0,-1,0
1199084,680,-8280,382,-1,0,-1,0
1199089,677,-8279,371,-1,0,-1,0
1199094,666,-8279,364,-1,-1,-1,0
1199099,656,-8279,358,-1,-1,-1,0
1199104,645,-8278,349,-1,0,-1,0
1199109,633,-8279,341,-1,-1,-1,0
1199114,625,-8280,339,-1,-1,-1,0
1199119,622,-8279,341,-1,0,-1,0
1199124,622,-8279,349,-1,0,-1,0
1199129,629,-8278,360,-1,0,-1,0
1199134,635,-8278,372,-1,0,-1,0
1199139,642,-8280,381,-1,0,-1,0
1199144,653,-8279,391,-1,0,-1,0
1199149,660,-8278,395,-1,0,-1,0
1199154,667,-8279,398,-1,0,-1,0
1199159,674,-8281,398,-1,0,-1,0
1199164,683,-8283,398,-1,0,-1,0
1199169,691,-8283,399,-1,0,-1,0
1199174,699,-8281,396,-1,0,-1,0
1199179,707,-8279,388,-1,0,-1,0
1199184,716,-8281,386,-1,0,-1,0
1199189,728,-8285,383,-1,0,-1,0
1199194,736,-8287,382,-1,0,-1,0
1199199,743,-8285,379,-1,0,-1,0
1199204,748,-8285,374,-1,0,-1,0
1199209,751,-8281,371,-1,0,-1,0
1199214,750,-8284,365,-1,0,-1,0
1199219,752,-8282,360,-1,0,-1,0
1199224,754,-8281,356,-1,0,-1,0
1199229,751,-8280,353,-1,0,-1,0
1199234,748,-8279,350,-1,0,-1,0
1199239,745,-8279,346,-1,0,-1,0
1199244,747,-8280,345,-1,0,-1,0
1199249,747,-8283,341,-1,0,-1,0
1199254,751,-8286,336,-1,0,-1,0
1199259,758,-8285,330,-1,0,-1,0
1199264,765,-8283,316,-1,0,-1,0
1199269,772,-8283,311,-1,0,-1,0
1199274,782,-8282,303,-1,0,-1,0
1199279,792,-8282,296,-1,0,-1,0
1199284,806,-8283,287,-1,0,-1,0
1199289,818,-8283,279,-1,0,-1,0
1199294,823,-8283,274,0,0,-1,0
1199299,831,-8283,268,0,0,-1,0
1199304,835,-8284,266,0,-1,-1,0
1199309,834,-8281,262,0,-1,-1,0
1199314,835,-8281,262,0,-1,-1,0
1199319,837,-8283,264,0,-1,-1,0
1199324,833,-8283,264,0,-1,-1,0
1199329,830,-8285,269,0,-1,-1,0
1199334,829,-8286,276,0,-1,-1,0
1199339,827,-8286,285,0,-1,-1,0
1199344,827,-8287,290,0,-1,-1,0
1199349,833,-8286,296,0,-1,-1,0
1199354,835,-8288,304,0,-1,-1,0
1199359,840,-8288,312,0,-1,-1,0
1199364,846,-8286,314,0,-1,-1,0
1199369,847,-8284,316,0,-1,-1,0
1199374,845,-8280,312,0,-1,0,0
1199379,842,-8282,308,0,-1,0,0
1199384,838,-8286,304,0,-1,0,0
1199389,833,-8289,293,0,-1,0,0
1199394,826,-8288,293,0,-1,0,0
1199399,817,-8289,288,0,-1,0,0
1199404,808,-8288,283,0,-1,0,0
1199409,803,-8287,279,0,-1,0,0
1199414,801,-8285,281,0,-1,0,0
1199419,801,-8286,285,0,-1,0,0
1199424,800,-8287,298,0,-1,0,0
1199429,802,-8286,314,0,-1,0,0
1199434,804,-8283,328,0,-1,0,0
1199439,807,-8284,339,0,-2,0,0
1199444,811,-8281,349,0,-2,0,0
1199449,812,-8279,359,0,-2,0,0
1199454,811,-8280,359,0,-2,0,0
1199459,808,-8276,359,0,-3,0,0
1199464,809,-8279,361,0,-3,0,0
1199469,808,-8280,363,0,-3,0,0
1199474,805,-8280,365,0,-4,0,0
1199479,804,-8280,368,0,-4,0,0
1199484,797,-8281,370,0,-4,0,0
1199489,788,-8279,368,0,-4,0,0
1199494,777,-8280,365,0,-4,0,0
1199499,772,-8282,366,0,-4,0,0
1199504,764,-8281,364,0,-3,0,0
1199509,756,-8281,358,0,-3,0,0
1199514,747,-8283,359,0,-3,0,0
1199519,739,-8285,362,0,-3,0,0
1199524,732,-8283,369,0,-3,0,0
1199529,723,-8284,379,0,-3,0,0
1199534,718,-8284,385,0,-2,0,0
1199539,712,-8285,391,0,-2,0,0
1199544,715,-8287,396,0,-1,0,0
1199549,719,-8284,403,0,-2,0,0
1199554,723,-8285,417,0,-2,0,0
1199559,725,-8284,427,0,-2,0,0
1199564,725,-8281,443,0,-2,0,0
1199569,725,-8280,461,0,-2,0,0
1199574,725,-8279,470,0,-2,0,0
1199579,727,-8279,480,0,-3,0,0
1199584,726,-8281,488,0,-3,0,0
1199589,731,-8281,494,0,-3,0,0
1199594,733,-8280,503,0,-3,0,0
1199599,734,-8280,508,0,-3,0,0
1199604,735,-8283,507,0,-3,0,0
1199609,733,-8284,508,0,-3,0,0
1199614,732,-8284,506,0,-2,0,0
1199619,729,-8283,504,0,-2,0,0
1199624,722,-8282,506,0,-2,0,0
1199629,717,-8284,498,0,-1,0,0
1199634,711,-8284,493,0,-1,0,0
1199639,700,-8285,488,0,-1,0,0
1199644,685,-8287,485,0,-1,0,0
1199649,673,-8288,484,0,-1,0,0
1199654,665,-8291,477,0,0,0,0
1199659,659,-8292,477,0,0,0,0
1199664,652,-8293,478,0,0,0,0
1199669,645,-8290,484,0,-1,0,0
1199674,641,-8287,493,0,-1,0,0
1199679,640,-8287,500,-1,-1,0,0
1199684,641,-8287,506,0,-1,0,0
1199689,644,-8286,512,-1,-1,-1,0
1199694,645,-8285,508,-1,-1,-1,0
1199699,649,-8284,501,-1,-1,-1,0
1199704,654,-8287,493,-1,0,-1,0
1199709,659,-8288,486,-1,0,-1,0
1199714,661,-8289,482,-1,0,-1,0
1199719,660,-8288,475,-1,0,-1,0
1199724,662,-8286,469,-1,0,-1,0
1199729,670,-8284,467,-1,0,-1,0
1199734,676,-8282,462,-1,0,-1,0
1199739,677,-8283,454,-1,-1,-1,0
1199744,680,-8283,441,-1,0,-1,0
1199749,683,-8282,428,-1,0,-1,0
1199754,687,-8282,419,-1,0,-1,0
1199759,687,-8283,403,-1,-1,-1,0
1199764,681,-8283,383,-1,0,-1,0
1199769,673,-8281,370,-1,0,-1,0
1199774,665,-8280,359,-1,0,-1,0
1199779,654,-8283,351,-1,0,-1,0
1199784,645,-8283,351,-1,0,-1,0
1199789,637,-8286,355,-1,0,-1,0
1199794,634,-8287,365,-1,0,-1,0
1199799,636,-8286,376,-1,0,-1,0
1199804,641,-8285,393,-1,0,-1,0
1199809,647,-8283,403,-1,0,-1,0
1199814,655,-8282,412,-1,0,-1,0
1199819,664,-8282,418,-1,0,-1,0
1199824,669,-8282,427,-1,1,-1,0
1199829,677,-8285,431,-1,1,-1,0
1199834,686,-8283,431,-1,0,-1,0
1199839,690,-8276,424,-1,0,-1,0
1199844,697,-8274,416,-1,0,-1,0
1199849,703,-8276,408,-1,0,-1,0
1199854,708,-8278,404,-1,0,-1,0
1199859,714,-8279,398,-1,0,-1,0
1199864,722,-8279,392,-1,0,-1,0
1199869,729,-8281,377,-1,0,-1,0
1199874,734,-8280,378,-1,0,-1,0
1199879,734,-8279,379,-1,0,-1,0
1199884,732,-8277,377,-1,0,-1,0
1199889,728,-8278,372,-1,0,-1,0
1199894,726,-8279,373,-1,0,-1,0
1199899,722,-8277,368,0,1,-1,0
1199904,722,-8276,365,0,1,-1,0
1199909,724,-8276,367,-1,1,-1,0
1199914,726,-8274,370,-1,1,-1,0
1199919,731,-8277,374,0,1,-1,0
1199924,734,-8275,375,0,1,-1,0
1199929,736,-8274,370,0,1,-1,0
1199934,736,-8273,367,0,1,-1,0
1199939,737,-8274,369,0,2,-1,0
1199944,740,-8274,368,0,2,-1,0
1199949,744,-8273,362,0,2,-1,0
1199954,750,-8275,360,0,2,-1,0
1199959,763,-8275,360,0,2,-1,0
1199964,774,-8275,359,0,2,-1,0
1199969,787,-8274,361,0,2,-1,0
1199974,799,-8274,367,0,2,-1,0
1199979,812,-8274,371,0,2,-1,0
1199984,827,-8276,377,0,2,-1,0
1199989,841,-8276,375,0,2,-1,0
1199994,852,-8274,376,0,1,-1,0
1199999,859,-8276,373,0,1,-1,0
1200004,858,-8276,372,0,1,-1,0
1200009,852,-8276,370,0,0,-1,0
1200014,844,-8279,366,0,1,-1,0
1200019,831,-8281,364,0,1,-1,0
1200024,822,-8282,362,0,1,-1,0
1200029,811,-8283,356,0,1,-1,0
1200034,801,-8283,351,0,1,-1,0
1200039,792,-8281,348,0,1,-1,0
1200044,784,-8283,351,0,1,-1,0
1200049,776,-8287,362,0,2,-1,0
1200054,761,-8289,368,0,2,-1,0
1200059,746,-8287,381,0,4,-1,0
1200064,744,-8284,389,0,6,-1,0
1200069,753,-8284,399,0,6,-1,0
1200074,759,-8282,410,0,4,-1,0
1200079,768,-8281,411,0,2,-1,0
1200084,770,-8281,418,0,1,-1,0
1200089,768,-8281,418,0,0,-1,0
1200094,770,-8283,417,0,0,-1,0
1200099,770,-8285,417,0,0,-1,0
1200104,776,-8285,411,0,0,-1,0
1200109,780,-8284,402,0,0,-1,0
1200114,780,-8283,395,0,0,-1,0
1200119,785,-8286,392,0,0,-1,0
1200124,797,-8288,389,0,0,-1,0
1200129,790,-8286,388,0,1,-1,0
1200134,792,-8286,386,0,1,-1,0
1200139,792,-8286,384,0,1,-1,0
1200144,784,-8287,389,0,2,-1,0
1200149,780,-8290,397,0,2,-1,0
1200154,778,-8291,399,0,2,-1,0
1200159,779,-8292,404,0,2,-1,0
1200164,775,-8291,409,0,2,-1,0
1200169,772,-8289,416,0,1,-1,0
1200174,776,-8286,418,0,1,-1,0
1200179,776,-8284,424,0,0,-1,0
1200184,774,-8282,438,0,0,-1,0
1200189,770,-8282,451,0,0,-1,0
1200194,767,-8281,464,0,0,-1,0
1200199,768,-8280,466,0,0,-1,0
1200204,769,-8279,471,0,-1,-1,0
1200209,772,-8278,473,0,-1,0,0
1200214,783,-8276,469,0,-1,-1,0
1200219,793,-8273,463,0,0,-1,0
1200224,803,-8273,452,0,0,0,0
1200229,815,-8271,448,0,0,0,0
1200234,822,-8270,444,0,0,-1,0
1200239,832,-8270,442,0,0,0,0
1200244,837,-8275,441,0,0,0,0
1200249,839,-8276,435,0,-1,0,0
1200254,842,-8278,430,0,-1,0,0
1200259,841,-8279,415,0,-1,0,0
1200264,834,-8277,399,0,-1,0,0
1200269,828,-8277,387,0,-1,0,0
1200274,819,-8274,380,0,-1,0,0
1200279,808,-8272,377,0,0,0,0
1200284,796,-8271,377,0,0,0,0
1200289,780,-8272,383,0,0,0,0
1200294,765,-8273,386,0,0,0,0
1200299,751,-8273,396,0,0,0,0
1200304,742,-8274,406,0,0,0,0
1200309,734,-8274,416,0,0,0,0
1200314,724,-8274,420,0,0,0,0
1200319,716,-8273,427,0,0,0,0
1200324,712,-8277,436,0,0,0,0
1200329,710,-8281,448,0,0,0,0
1200334,709,-8280,455,0,0,0,0
1200339,712,-8280,461,0,0,0,0
1200344,722,-8281,470,0,0,0,0
1200349,734,-8280,471,0,0,0,0
1200354,749,-8284,474,0,0,0,0
1200359,763,-8283,485,0,0,0,0
1200364,775,-8282,494,0,0,0,0
1200369,785,-8285,499,0,0,0,0
1200374,787,-8285,496,0,0,0,0
1200379,789,-8285,494,0,0,0,0
1200384,790,-8284,492,0,0,0,0
1200389,792,-8282,484,0,0,0,0
1200394,791,-8283,478,0,0,0,0
1200399,787,-8282,471,0,0,0,0
1200404,783,-8283,468,0,0,0,0
1200409,778,-8282,462,0,0,0,0
1200414,772,-8283,454,0,0,0,0
1200419,765,-8284,448,0,0,0,0
1200424,759,-8286,445,0,0,0,0
1200429,753,-8285,442,-1,0,0,0
1200434,749,-8285,440,-1,0,0,0
1200439,741,-8284,440,-1,0,0,0
1200444,735,-8285,441,-1,0,0,0
1200449,736,-8283,449,0,0,0,0
1200454,739,-8286,457,-1,0,0,0
1200459,741,-8286,458,-1,0,0,0
1200464,747,-8285,464,-1,0,0,0
1200469,756,-8287,473,-1,0,0,0
1200474,761,-8290,484,-1,0,0,0
1200479,767,-8288,490,-1,0,0,0
1200484,777,-8287,489,-1,0,0,0
1200489,782,-8288,492,-1,0,0,0
1200494,785,-8291,487,-1,0,0,0
1200499,784,-8290,474,-1,0,0,0
1200504,783,-8291,466,-1,0,0,0
1200509,782,-8290,461,-1,0,0,0
1200514,777,-8286,453,-1,0,0,0
1200519,769,-8284,444,-1,0,0,0
1200524,760,-8285,436,-1,0,0,0
1200529,748,-8284,435,-1,0,0,0
1200534,736,-8285,435,-1,1,0,0
1200539,728,-8283,435,-1,1,0,0
1200544,722,-8284,433,-1,1,0,0
1200549,717,-8285,437,-1,1,0,0
1200554,712,-8285,438,-1,2,0,0
1200559,708,-8290,438,-1,2,0,0
1200564,708,-8292,439,-1,2,0,0
1200569,709,-8290,440,-1,2,0,0
1200574,708,-8292,444,-1,2,0,0
1200579,707,-8290,454,-1,2,-1,0
1200584,708,-8290,462,-1,2,0,0
1200589,714,-8289,468,-1,2,0,0
1200594,718,-8282,474,-1,1,-1,0
1200599,723,-8279,479,-1,1,-1,0
1200604,729,-8277,478,-1,1,0,0
1200609,737,-8277,479,-1,1,-1,0
1200614,753,-8277,484,-1,1,0,0
1200619,766,-8280,480,-1,1,0,0
1200624,780,-8281,475,-1,1,0,0
1200629,792,-8280,469,-1,1,0,0
1200634,799,-8278,469,-1,1,0,0
1200639,795,-8279,470,-1,1,0,0
1200644,793,-8280,468,-1,1,0,0
1200649,788,-8278,458,-1,1,0,0
1200654,780,-8278,455,-1,2,0,0
1200659,769,-8276,444,-1,2,0,0
1200664,761,-8276,439,-1,2,0,0
1200669,753,-8275,435,-1,2,0,0
1200674,749,-8277,428,-1,2,0,0
1200679,747,-8280,426,-1,2,0,0
1200684,747,-8281,423,-1,2,0,0
1200689,746,-8285,422,-1,2,0,0
1200694,748,-8283,419,-1,2,0,0
1200699,751,-8287,413,-1,2,0,0
1200704,755,-8287,414,-1,2,0,0
1200709,760,-8287,412,-1,2,0,0
1200714,762,-8284,410,-1,2,0,0
1200719,767,-8283,407,-1,2,0,0
1200724,769,-8283,404,-1,2,0,0
1200729,774,-8284,405,-1,2,0,0
1200734,782,-8282,403,-1,2,0,0
1200739,787,-8282,411,-1,1,0,0
1200744,791,-8283,411,-1,1,0,0
1200749,793,-8284,408,-1,1,0,0
1200754,790,-8285,407,-1,0,0,0
1200759,790,-8286,406,-1,0,0,0
1200764,791,-8285,404,-1,0,0,0
1200769,790,-8282,400,-1,0,0,0
1200774,788,-8279,393,-1,0,0,0
1200779,787,-8278,391,-1,0,0,4
1200784,784,-8280,381,-1,0,0,4
1200789,780,-8283,382,-1,0,0,4
1200794,775,-8285,378,-1,0,0,4
1200799,770,-8284,371,-1,0,0,4
1200804,767,-8283,370,-1,0,0,4
1200809,766,-8282,364,-1,0,0,4
1200814,763,-8282,363,-1,0,0,4
1200819,761,-8282,362,-1,0,0,4
1200824,757,-8281,364,-1,0,0,4
1200829,752,-8283,362,-1,0,0,4
1200834,747,-8281,363,-1,0,0,4
1200839,740,-8281,362,-1,0,0,4
1200844,728,-8278,361,-1,0,0,4
1200849,718,-8275,360,-1,1,0,4
1200854,714,-8273,360,-1,1,0,4
1200859,712,-8275,359,-1,1,0,4
1200864,715,-8273,366,-1,2,0,4
1200869,718,-8274,369,-1,2,0,4
1200874,721,-8273,375,-1,1,0,4
1200879,724,-8276,379,-1,1,0,4
1200884,730,-8278,386,-1,1,0,4
1200889,737,-8277,393,-1,0,0,4
1200894,742,-8275,396,-1,0,0,4
1200899,746,-8272,393,-1,0,0,4
1200904,749,-8272,392,-1,0,0,4
1200909,756,-8275,387,-1,0,0,4
1200914,761,-8278,380,-1,0,0,4
1200919,762,-8280,375,-1,0,0,4
1200924,763,-8278,369,-1,0,0,4
1200929,762,-8278,365,-1,0,0,4
1200934,759,-8279,366,-1,0,0,4
1200939,756,-8277,363,-1,0,0,4
1200944,751,-8278,360,-1,-1,0,4
1200949,748,-8279,359,-1,0,0,4
1200954,741,-8279,357,-1,0,0,4
1200959,732,-8282,361,-1,0,0,4
1200964,724,-8284,366,-1,0,0,4
1200969,717,-8283,371,-1,0,0,4
1200974,709,-8282,372,-1,0,0,4
1200979,705,-8283,379,-1,0,0,4
1200984,705,-8282,384,-1,0,0,4
1200989,711,-8280,383,-1,0,0,4
1200994,721,-8280,383,-1,0,0,4
1200999,735,-8280,381,-1,0,0,4
1201004,748,-8277,381,0,0,0,4
1201009,764,-8279,380,0,0,0,4
1201014,776,-8281,374,0,0,0,4
1201019,786,-8282,370,0,-1,0,4
1201024,795,-8283,369,0,-1,0,4
1201029,801,-8283,364,0,-1,0,4
1201034,803,-8285,357,0,-1,0,4
1201039,800,-8285,346,0,-1,0,4
1201044,794,-8286,341,0,-1,0,4
1201049,789,-8285,336,0,-1,0,4
1201054,784,-8284,335,0,-1,0,4
1201059,781,-8282,335,0,-1,0,4
1201064,767,-8284,335,0,-1,0,4
1201069,761,-8286,336,0,-1,0,4
1201074,748,-8287,337,0,-1,0,4
1201079,733,-8292,340,0,-1,0,4
1201084,727,-8293,339,0,-1,0,4
1201089,719,-8292,348,0,-1,0,4
1201094,714,-8291,354,0,-1,0,4
1201099,710,-8289,357,0,-1,0,4
1201104,713,-8287,369,0,-1,0,4
1201109,720,-8287,379,0,-2,0,4
1201114,724,-8287,390,0,-2,0,4
1201119,729,-8288,394,0,-3,0,4
1201124,733,-8288,399,0,-3,0,4
1201129,734,-8288,399,0,-4,0,4
1201134,735,-8286,399,0,-4,0,4
1201139,736,-8285,398,0,-4,0,4
1201144,738,-8283,395,0,-4,0,4
1201149,741,-8284,393,0,-4,0,4
1201154,746,-8284,391,0,-4,0,4
1201159,740,-8286,391,0,-4,0,4
1201164,738,-8286,391,0,-4,0,4
1201169,736,-8287,391,0,-3,0,4
1201174,732,-8286,390,0,-3,0,4
1201179,729,-8286,393,0,-3,0,4
1201184,728,-8285,395,0,-3,0,4
1201189,726,-8286,394,0,-3,0,4
1201194,723,-8287,398,0,-3,0,4
1201199,720,-8287,400,0,-3,0,4
1201204,718,-8289,399,0,-3,0,4
1201209,714,-8287,398,0,-3,0,4
1201214,710,-8288,399,0,-3,0,4
1201219,707,-8290,398,0,-3,0,4
1201224,704,-8289,399,0,-3,0,4
1201229,704,-8288,404,0,-3,0,4
1201234,700,-8291,407,0,-3,0,4
1201239,699,-8293,404,0,-3,0,4
1201244,696,-8291,400,0,-3,0,4
1201249,688,-8290,399,0,-2,0,4
1201254,688,-8288,396,0,-1,0,4
1201259,693,-8286,400,0,-1,0,4
1201264,697,-8284,401,0,-1,0,4
1201269,705,-8284,402,0,-1,0,4
1201274,711,-8282,405,0,-1,0,4
1201279,720,-8283,417,0,-1,0,4
1201284,733,-8285,425,0,-2,0,4
1201289,747,-8284,434,0,-3,0,4
1201294,758,-8282,440,0,-4,0,4
1201299,765,-8281,439,0,-6,0,4
1201304,764,-8283,445,0,-7,0,4
1201309,758,-8281,444,0,-8,-1,4
1201314,749,-8283,441,0,-8,0,4
1201319,730,-8284,444,0,-8,0,4
1201324,710,-8284,442,0,-8,-1,4
1201329,689,-8287,441,0,-8,-1,4
1201334,661,-8288,451,-1,-7,-1,4
1201339,639,-8287,469,-1,-6,-1,4
1201344,618,-8286,486,-1,-4,-1,4
1201349,600,-8285,506,-1,-3,-1,4
1201354,582,-8285,523,-1,-3,-1,4
1201359,563,-8287,537,-1,-2,-1,4
1201364,544,-8288,549,-1,-1,-1,4
1201369,533,-8287,565,-1,0,-1,4
1201374,528,-8288,579,-1,0,-1,4
1201379,528,-8288,590,-1,0,-1,4
1201384,525,-8286,601,-1,0,-1,4
1201389,530,-8283,611,-1,0,-1,4
1201394,545,-8280,606,-1,1,-1,4
1201399,565,-8278,596,-1,1,-1,4
1201404,588,-8279,582,-1,1,-1,4
1201409,605,-8279,564,-1,1,-1,4
1201414,617,-8280,545,-1,1,-1,4
1201419,625,-8280,527,-2,2,-1,4
1201424,628,-8282,512,-2,3,-1,4
1201429,625,-8285,501,-2,4,-2,4
1201434,624,-8286,485,-2,6,-1,4
1201439,631,-8287,474,-2,8,-1,4
1201444,649,-8288,468,-2,9,-1,4
1201449,675,-8289,456,-2,9,-1,4
1201454,702,-8288,453,-2,8,-1,4
1201459,712,-8290,451,-2,7,-1,4
1201464,720,-8288,447,-2,7,-2,4
1201469,722,-8286,436,-2,9,-2,4
1201474,708,-8283,422,-2,12,-1,4
1201479,689,-8281,394,-2,17,-1,4
1201484,661,-8282,352,-2,24,-1,4
1201489,627,-8284,304,-2,33,-1,4
1201494,584,-8288,247,-2,46,-1,4
1201499,537,-8290,197,-2,62,-1,4
1201504,476,-8290,162,-3,80,-2,4
1201509,414,-8288,124,-3,101,-1,4
1201514,309,-8285,109,-3,128,-1,4
1201519,215,-8284,71,-3,158,-2,4
1201524,88,-8285,36,-4,194,-2,4
1201529,-60,-8291,-7,-4,233,-2,4
1201534,-254,-8297,-64,-4,279,-2,4
1201539,-499,-8301,-112,-5,335,-2,4
1201544,-758,-8304,-143,-6,402,-3,4
1201549,-1035,-8309,-111,-6,477,-3,4
1201554,-1322,-8311,-12,-7,558,-4,4
1201559,-1652,-8314,161,-9,645,-4,4
1201564,-1998,-8317,445,-10,733,-5,4
1201569,-2323,-8320,849,-11,814,-5,4
1201574,-2687,-8344,1321,-12,889,-5,4
1201579,-3177,-8361,1909,-13,964,-5,4
1201584,-3646,-8370,2584,-15,1042,-6,4
1201589,-4054,-8362,3337,-15,1118,-6,4
1201594,-4335,-8359,4088,-16,1185,-6,4
1201599,-4449,-8356,4919,-17,1239,-6,4
1201604,-4398,-8340,5777,-18,1269,-6,4
1201609,-4234,-8321,6615,-18,1267,-7,4
1201614,-3927,-8297,7351,-17,1231,-7,4
1201619,-3458,-8275,7882,-15,1159,-6,4
1201624,-2779,-8248,8210,-12,1060,-4,4
1201629,-1926,-8238,8257,-10,944,-3,4
1201634,-1075,-8229,8050,-9,819,-3,4
1201639,-273,-8221,7691,-7,691,-2,4
1201644,531,-8231,7375,-6,572,-3,4
1201649,1161,-8201,7116,-5,468,-2,4
1201654,1799,-8188,6768,-3,376,-4,4
1201659,2872,-8157,6351,-2,298,-2,4
1201664,3640,-8150,5770,0,251,0,4
1201669,4154,-8156,5260,1,214,1,4
1201674,4575,-8174,4812,2,184,1,4
1201679,4834,-8185,4312,2,159,-1,4
1201684,5022,-8193,3750,1,128,-2,4
1201689,5043,-8197,3139,1,89,-2,4
1201694,4850,-8207,2665,1,43,-1,4
1201699,4519,-8217,2232,1,-6,-1,4
1201703,4103,-8226,1851,1,-49,-1,4
1201709,3669,-8231,1583,2,-83,-1,4
1201713,3230,-8235,1360,2,-107,-1,4
1201719,2796,-8240,1174,2,-124,-1,4
1201724,2450,-8245,1067,2,-140,-2,4
1201729,2263,-8257,932,2,-159,-2,4
1201734,2110,-8266,834,2,-184,-1,4
1201739,2040,-8271,829,3,-219,0,4
1201744,2028,-8269,857,3,-259,2,4
1201749,2129,-8260,959,3,-299,3,4
1201754,2449,-8247,1079,4,-340,4,4
1201758,2873,-8244,1178,4,-387,6,4
1201764,3367,-8238,1339,5,-450,7,4
1201768,3915,-8231,1597,6,-536,9,4
1201774,4500,-8221,1971,6,-649,10,4
1201779,5172,-8201,2444,7,-777,9,4
1201784,5662,-8183,2946,8,-895,8,4
1201789,5853,-8165,3504,9,-991,7,4
1201794,5823,-8155,3995,10,-1060,5,4
1201799,5494,-8162,4464,11,-1104,4,4
1201804,5106,-8160,4951,12,-1132,4,4
1201809,4626,-8160,5596,13,-1139,5,4
1201814,3957,-8162,6479,13,-1132,6,4
1201819,3218,-8163,7387,12,-1116,5,4
1201824,2556,-8167,8211,14,-1086,4,4
1201829,1999,-8163,8674,15,-1045,4,4
1201834,1497,-8166,8828,15,-1006,4,4
1201839,1071,-8159,8688,14,-970,4,4
1201844,688,-8150,8478,14,-925,5,4
1201848,316,-8152,8106,15,-867,5,4
1201853,-35,-8161,7588,15,-796,5,4
1201859,-361,-8180,6839,15,-712,5,4
1201864,-740,-8206,6033,13,-615,5,4
1201869,-1184,-8236,5235,11,-509,4,4
1201873,-1614,-8258,4454,9,-398,3,4
1201878,-1968,-8275,3771,7,-285,2,4
1201884,-2228,-8289,3203,5,-177,1,4
1201888,-2374,-8304,2750,3,-77,0,4
1201893,-2412,-8317,2412,2,7,1,4
1201898,-2369,-8326,2152,0,73,1,4
1201904,-2276,-8330,1982,-1,119,2,4
1201908,-2104,-8311,1849,-1,146,1,4
1201913,-1916,-8307,2019,-1,154,2,4
1201919,-1582,-8302,2024,-1,145,2,4
1201923,-1164,-8297,1873,-1,126,1,4
1201928,-778,-8297,1764,-2,100,1,4
1201933,-496,-8294,1654,-2,76,0,4
1201939,-306,-8291,1582,-2,59,0,4
1201943,-161,-8279,1518,-2,47,0,4
1201949,-51,-8271,1437,-2,40,0,4
1201954,124,-8262,1327,-1,32,0,4
1201958,299,-8262,1168,-1,22,0,4
1201964,385,-8263,1045,0,12,0,4
1201969,433,-8259,910,0,1,0,4
1201974,484,-8262,773,0,-10,0,4
1201978,536,-8264,698,0,-19,0,4
1201983,601,-8263,584,0,-25,0,4
1201988,630,-8263,468,0,-27,0,4
1201993,593,-8263,449,0,-23,0,4
1201998,501,-8271,382,0,-15,0,4
1202003,443,-8275,270,0,-4,0,4
1202009,456,-8280,243,0,8,0,4
1202014,470,-8280,260,0,19,0,4
1202019,471,-8280,303,0,29,0,4
1202023,477,-8279,336,0,38,0,4
1202028,502,-8278,379,0,48,-1,4
1202033,502,-8280,394,0,58,-1,4
1202039,498,-8282,358,-1,64,-1,4
1202043,492,-8282,360,-1,67,-1,4
1202049,475,-8283,370,-1,68,-1,4
1202054,472,-8285,378,-1,67,-1,4
1202059,471,-8284,408,-1,67,0,4
1202063,496,-8285,436,-1,66,0,4
1202068,538,-8284,470,-1,64,0,4
1202073,595,-8280,515,-1,61,0,4
1202078,664,-8277,559,-1,57,0,4
1202083,720,-8275,600,-1,51,-1,4
1202089,757,-8276,633,-1,45,-1,4
1202094,774,-8278,657,-1,38,-1,4
1202098,771,-8276,656,-1,32,-1,4
1202104,753,-8276,645,-1,26,-1,4
1202109,722,-8280,623,-1,21,0,4
1202114,691,-8285,586,0,18,-1,4
1202118,666,-8285,551,-1,17,-1,4
1202123,644,-8286,523,-1,16,-1,4
1202129,628,-8285,494,-1,16,-1,4
1202134,615,-8284,480,-1,18,-1,4
1202139,610,-8283,482,-1,20,-1,4
1202144,623,-8282,484,-1,22,-1,4
1202148,646,-8278,490,-1,23,-1,4
1202153,675,-8277,488,-1,22,-1,4
1202158,704,-8279,482,-1,19,-1,4
1202164,729,-8281,470,0,15,-1,4
1202169,753,-8279,447,0,11,-1,4
1202173,765,-8278,426,0,7,-1,4
1202178,767,-8275,404,0,3,-1,4
1202184,762,-8276,383,0,1,-1,4
1202189,756,-8278,359,0,-1,-1,4
1202194,750,-8278,341,0,-1,-1,4
1202198,743,-8277,330,0,-1,-1,4
1202204,735,-8275,315,0,-1,-1,4
1202209,731,-8275,314,0,-1,-1,4
1202214,730,-8277,316,0,-1,-1,4
1202218,728,-8279,320,0,0,-1,4
1202224,723,-8280,339,0,0,-1,4
1202229,719,-8283,361,0,0,-1,4
1202233,715,-8282,384,0,0,-1,4
1202239,711,-8283,410,0,0,-1,4
1202243,711,-8283,429,0,0,-1,4
1202249,710,-8286,447,0,0,-1,4
1202254,708,-8286,466,0,0,-1,4
1202259,707,-8287,478,0,0,-1,4
1202264,699,-8286,486,0,0,-1,4
1202269,693,-8285,485,0,0,-1,4
1202274,686,-8283,473,0,0,-1,4
1202279,681,-8279,469,0,0,-1,4
1202284,679,-8279,461,0,0,-1,4
1202289,677,-8280,445,0,0,-1,4
1202293,680,-8278,433,0,0,-1,4
1202298,684,-8277,425,0,0,-1,4
1202303,683,-8281,417,0,0,-1,4
1202308,681,-8280,409,0,0,-1,4
1202314,685,-8281,400,0,1,-1,4
1202318,690,-8280,393,0,2,-1,4
1202323,695,-8279,385,0,2,-1,4
1202329,703,-8279,382,0,3,-1,4
1202333,711,-8279,384,0,4,0,4
1202338,718,-8280,385,0,5,0,4
1202343,723,-8279,394,0,6,-1,4
1202349,725,-8277,406,0,7,0,4
1202353,737,-8277,409,0,7,0,4
1202358,742,-8279,413,0,8,0,4
1202363,756,-8278,411,0,9,0,4
1202368,767,-8279,410,0,10,0,4
1202373,770,-8278,424,0,8,0,4
1202378,772,-8279,434,0,6,0,4
1202384,770,-8279,442,0,4,0,4
1202388,765,-8281,454,0,2,0,4
1202393,760,-8280,465,0,1,0,4
1202399,756,-8280,470,1,-1,0,4
1202403,752,-8280,474,1,-1,0,4
1202408,746,-8278,468,1,-1,0,4
1202414,744,-8276,462,1,-1,0,4
1202419,739,-8276,455,1,0,0,4
1202424,731,-8275,464,0,0,0,4
1202428,725,-8275,473,0,0,0,4
1202434,723,-8275,484,0,0,0,4
1202438,719,-8275,500,0,0,0,4
1202443,720,-8275,515,0,0,0,4
1202448,725,-8275,530,0,0,0,4
1202453,735,-8276,544,0,-1,0,4
1202458,746,-8276,552,0,-1,0,4
1202463,751,-8279,557,0,-1,0,4
1202468,751,-8280,557,0,-1,0,4
1202473,754,-8282,553,0,-1,0,4
1202478,753,-8284,549,0,-1,0,4
1202483,752,-8284,546,0,0,0,4
1202488,752,-8282,536,0,0,0,4
1202493,754,-8283,530,0,0,0,4
1202498,757,-8283,526,0,0,0,4
1202503,764,-8280,518,0,0,0,4
1202508,764,-8276,511,0,-1,0,4
1202514,762,-8272,502,0,-1,0,4
1202518,758,-8270,499,0,-1,0,4
1202523,750,-8270,495,0,0,0,4
1202528,741,-8272,489,0,0,0,4
1202533,734,-8276,491,0,-1,0,4
1202538,723,-8280,496,0,-1,0,4
1202543,709,-8280,508,0,-2,0,4
1202548,690,-8281,516,0,-2,0,4
1202554,677,-8280,525,0,-2,0,4
1202558,665,-8281,539,0,-2,0,4
1202563,656,-8281,552,0,-1,0,4
1202568,650,-8282,559,0,-1,0,4
1202573,646,-8280,563,0,-1,0,4
1202578,646,-8282,564,0,-1,0,4
1202583,649,-8283,565,0,-1,0,4
1202588,652,-8285,569,0,0,0,4
1202593,655,-8286,564,0,0,0,4
1202598,655,-8285,564,0,0,0,4
1202603,657,-8283,562,0,0,0,4
1202608,655,-8282,561,0,0,0,4
1202613,652,-8280,561,0,0,0,4
1202618,652,-8279,558,0,1,0,4
1202623,657,-8279,555,0,1,0,4
1202628,662,-8280,557,0,1,0,4
1202633,664,-8280,562,0,0,0,4
1202638,663,-8282,574,0,0,0,4
1202643,661,-8284,582,0,-1,0,4
1202648,659,-8285,587,0,-1,0,4
1202653,657,-8287,595,0,-1,0,4
1202658,653,-8287,594,0,-1,0,4
1202663,647,-8284,596,0,-2,0,4
1202668,640,-8284,593,0,-2,0,4
1202673,635,-8285,588,0,-2,0,4
1202678,631,-8285,582,0,-3,0,4
1202683,629,-8284,579,0,-3,0,4
1202688,622,-8283,573,0,-4,0,4
1202693,614,-8283,570,0,-4,0,4
1202698,606,-8285,564,0,-4,0,4
1202703,600,-8285,560,0,-3,0,4
1202708,599,-8285,555,0,-2,0,4
1202713,601,-8286,553,0,-1,0,4
1202718,601,-8285,557,0,0,0,4
1202723,605,-8287,563,0,0,0,4
1202728,611,-8284,574,0,0,0,4
1202733,614,-8282,587,0,0,0,4
1202738,616,-8282,602,0,-1,0,4
1202743,614,-8283,614,0,-1,0,4
1202748,612,-8284,621,0,-1,0,4
1202753,613,-8285,624,0,-1,0,4
1202758,612,-8290,621,0,-1,0,4
1202763,613,-8289,618,0,-2,0,4
1202768,614,-8289,609,0,-2,0,4
1202773,611,-8287,600,0,-3,0,4
1202778,605,-8285,592,0,-3,0,0
1202783,598,-8283,583,0,-2,0,0
1202788,594,-8283,582,0,-2,0,0
1202793,594,-8283,580,-1,-1,0,0
1202798,598,-8285,582,-1,-1,0,0
1202803,603,-8283,590,-1,-1,0,0
1202808,605,-8282,598,-1,-1,0,0
1202813,608,-8279,605,-1,-1,-1,0
1202818,609,-8280,610,-1,-1,0,0
1202823,610,-8278,612,-1,-1,-1,0
1202828,611,-8279,611,-1,-1,-1,0
1202833,612,-8280,616,-1,-1,-1,0
1202838,614,-8278,619,-1,-1,0,0
1202843,616,-8278,614,-1,-2,-1,0
1202848,615,-8277,614,-1,-2,-1,0
1202853,607,-8278,613,-1,-2,-1,0
1202858,599,-8278,607,-1,-1,-1,0
1202863,594,-8280,605,-1,-1,-1,0
1202868,593,-8277,602,-1,0,-1,0
1202873,596,-8278,606,-1,0,-1,0
1202878,602,-8278,607,-1,-1,-1,0
1202883,602,-8279,603,-1,-1,-1,0
1202888,607,-8276,597,-1,-1,-1,0
1202893,613,-8276,592,-1,-1,-1,0
1202898,617,-8274,590,-1,-2,-1,0
1202903,622,-8275,584,-1,-2,-1,0
1202908,625,-8274,584,-1,-3,-1,0
1202913,624,-8275,589,-1,-3,-1,0
1202918,622,-8278,587,-1,-3,-1,0
1202923,620,-8280,586,-1,-3,-1,0
1202928,617,-8279,592,-1,-3,-1,0
1202933,615,-8275,593,-1,-3,-1,0
1202938,616,-8274,598,-1,-3,-1,0
1202943,618,-8274,600,-1,-3,-1,0
1202948,622,-8276,604,-1,-3,-1,0
1202953,623,-8276,599,-1,-2,-1,0
1202958,624,-8275,596,-1,-2,-1,0
1202963,626,-8278,593,-1,-1,-1,0
1202968,628,-8280,583,-1,0,-1,0
1202973,631,-8281,576,-1,1,-1,0
1202978,637,-8281,569,-1,1,-1,0
1202983,639,-8280,563,-1,1,-1,0
1202988,643,-8279,559,-1,1,-1,0
1202993,647,-8282,558,-1,1,-1,0
1202998,646,-8284,558,-1,0,-1,0
1203003,646,-8283,557,-1,0,-1,0
1203008,645,-8281,557,-1,0,-1,0
1203013,641,-8280,557,-1,0,-1,0
1203018,638,-8280,555,-1,0,-1,0
1203023,636,-8281,556,-1,0,-1,0
1203028,633,-8281,554,-1,0,-1,0
1203033,633,-8284,550,-1,0,-1,0
1203038,634,-8280,544,-1,0,-1,0
1203043,639,-8279,536,-1,0,-1,0
1203048,647,-8283,527,-1,0,-1,0
1203053,652,-8284,521,-1,0,-1,0
1203058,660,-8284,518,-1,0,-1,0
1203063,664,-8285,511,-1,0,-1,0
1203068,665,-8285,508,-1,0,-1,0
1203073,669,-8286,506,-1,0,-1,0
1203078,677,-8285,507,-1,0,-1,0
1203083,683,-8286,506,-1,0,-1,0
1203088,690,-8286,508,-1,0,-1,0
1203093,696,-8283,510,-1,0,-1,0
1203098,698,-8280,503,-1,0,-1,0
1203103,695,-8281,492,-1,1,-1,0
1203108,692,-8282,483,-1,1,-1,0
1203113,687,-8282,481,-1,2,-1,0
1203118,684,-8284,476,-1,3,-1,0
1203123,682,-8285,473,-1,3,-1,0
1203128,681,-8286,470,-1,4,-1,0
1203133,683,-8287,471,-1,3,-1,0
1203138,686,-8284,472,-1,3,-1,0
1203143,691,-8282,475,-1,2,-1,0
1203148,693,-8281,481,-1,1,-1,0
1203153,697,-8282,479,-1,1,-1,0
1203158,698,-8282,476,-1,1,-1,0
1203163,701,-8280,466,-1,1,-1,0
1203168,705,-8285,451,-1,1,-1,0
1203173,709,-8289,443,-1,1,-1,0
1203178,715,-8288,437,-1,2,-1,0
1203183,719,-8285,433,-1,2,-1,0
1203188,727,-8284,430,-1,2,-1,0
1203193,735,-8285,438,-1,2,-1,0
1203198,742,-8284,446,-1,2,0,0
1203203,746,-8283,455,-1,2,0,0
1203208,752,-8280,464,-1,2,0,0
1203213,757,-8277,462,-1,1,-1,0
1203218,758,-8277,454,-1,0,0,0
1203223,754,-8276,442,-1,0,0,0
1203228,748,-8276,428,-1,0,0,0
1203233,740,-8277,414,-1,0,0,0
1203238,730,-8279,406,-1,0,0,0
1203243,720,-8282,393,-1,0,0,0
1203248,712,-8284,379,-1,0,0,0
1203253,703,-8284,372,-1,0,0,0
1203258,696,-8283,366,-1,0,0,0
1203263,691,-8283,363,-1,0,0,0
1203268,684,-8278,362,-1,0,0,0
1203273,685,-8277,363,-1,1,0,0
1203278,684,-8272,369,-1,1,0,0
1203283,683,-8272,377,-1,0,0,0
1203288,682,-8273,383,-1,0,0,0
1203293,672,-8273,389,-1,0,0,0
1203298,662,-8272,398,-1,0,0,0
1203303,658,-8275,402,-1,0,0,0
1203308,659,-8275,412,-1,0,0,0
1203313,663,-8276,416,-1,0,0,0
1203318,672,-8277,413,-1,0,0,0
1203323,677,-8277,415,-1,0,0,0
1203328,687,-8276,415,-1,0,0,0
1203333,694,-8276,414,-1,0,0,0
1203338,696,-8277,412,-1,1,0,0
1203343,697,-8277,408,-1,1,0,0
1203348,700,-8277,409,-1,1,0,0
1203353,703,-8279,405,-1,1,0,0
1203358,705,-8282,395,-1,1,0,0
1203363,702,-8283,385,-1,0,0,0
1203368,695,-8285,383,-1,0,0,0
1203373,687,-8283,377,-1,0,0,0
1203378,674,-8281,367,-1,0,0,0
1203383,667,-8278,360,0,0,0,0
1203388,662,-8277,348,0,0,0,0
1203393,659,-8276,343,0,0,0,0
1203398,659,-8276,343,-1,0,0,0
1203403,655,-8279,348,0,0,0,0
1203408,651,-8280,356,0,0,0,0
1203413,642,-8281,368,0,0,0,0
1203418,630,-8281,375,0,0,0,0
1203423,626,-8281,382,0,0,0,0
1203428,623,-8284,393,0,0,0,0
1203433,621,-8285,397,0,-1,0,0
1203438,617,-8287,405,0,-1,0,0
1203443,615,-8288,411,0,-1,0,0
1203448,617,-8288,420,0,-1,0,0
1203453,620,-8287,428,0,0,0,0
1203458,626,-8288,435,0,0,0,0
1203463,635,-8288,444,0,0,0,0
1203468,640,-8290,445,0,0,0,0
1203473,648,-8288,449,0,0,0,0
1203478,657,-8288,454,0,0,0,0
1203483,661,-8285,455,0,0,0,0
1203488,664,-8283,453,0,0,0,0
1203493,667,-8283,445,0,1,0,0
1203498,670,-8282,439,0,1,0,0
1203503,676,-8281,436,0,2,0,0
1203508,682,-8279,436,0,2,0,0
1203513,687,-8277,438,0,1,0,0
1203518,690,-8275,438,0,0,0,0
1203523,680,-8274,439,0,-1,0,0
1203528,669,-8275,441,0,-1,0,0
1203533,663,-8279,442,0,-1,0,0
1203538,663,-8283,437,0,-1,0,0
1203543,664,-8285,429,0,-1,0,0
1203548,665,-8285,418,0,-1,0,0
1203553,667,-8286,415,0,-1,0,0
1203558,674,-8288,412,0,0,0,0
1203563,681,-8287,412,0,0,0,0
1203568,686,-8286,413,0,0,0,0
1203573,694,-8286,413,0,0,0,0
1203578,705,-8286,421,0,0,0,0
1203583,716,-8284,430,0,0,0,0
1203588,728,-8282,437,0,0,0,0
1203593,737,-8281,446,0,0,0,0
1203598,741,-8280,454,0,-1,0,0
1203603,742,-8282,456,0,-1,0,0
1203608,742,-8282,451,0,0,0,0
1203613,735,-8283,445,0,-1,0,0
1203618,724,-8286,442,0,-1,0,0
1203623,715,-8287,437,0,-1,0,0
1203628,706,-8285,437,0,-1,0,0
1203633,694,-8282,441,0,-1,0,0
1203638,686,-8280,446,0,-1,0,0
1203643,673,-8276,456,0,-1,0,0
1203648,661,-8275,461,0,-1,0,0
1203653,651,-8277,468,0,0,0,0
1203658,644,-8278,476,0,0,0,0
1203663,634,-8277,476,0,0,0,0
1203668,625,-8276,476,0,-1,0,0
1203673,621,-8276,480,0,0,0,0
1203678,620,-8278,482,0,0,0,0
1203683,622,-8278,481,0,0,0,0
1203688,628,-8280,477,0,0,0,0
1203693,636,-8282,479,0,0,0,0
1203698,645,-8284,484,0,0,0,0
1203703,659,-8286,489,0,0,0,0
1203708,671,-8285,491,0,0,0,0
1203713,678,-8283,496,0,-1,0,0
1203718,686,-8285,503,0,-1,0,0
1203723,688,-8288,505,0,-1,0,0
1203728,689,-8290,506,0,-1,0,0
1203733,687,-8289,505,0,-1,0,0
1203738,687,-8287,505,0,-1,0,0
1203743,685,-8286,510,0,-1,0,0
1203748,684,-8285,516,0,-1,0,0
1203753,682,-8285,514,0,-1,0,0
1203758,680,-8284,508,0,-1,0,0
1203763,683,-8282,503,0,-1,0,0
1203768,684,-8280,500,0,-1,0,0
1203773,685,-8279,492,0,-1,0,0
1203778,687,-8280,481,0,-1,0,0
1203783,688,-8280,476,0,-1,0,0
1203788,685,-8278,469,0,-1,0,0
1203793,683,-8280,467,0,0,0,0
1203798,680,-8276,463,0,0,0,0
1203803,678,-8277,457,0,-1,0,0
1203808,675,-8278,459,0,-1,0,0
1203813,670,-8280,468,0,-2,0,0
1203818,665,-8281,479,0,-2,0,0
1203823,663,-8281,486,0,-2,0,0
1203828,666,-8283,492,0,-1,0,0
1203833,671,-8282,498,0,-2,0,0
1203838,674,-8283,497,0,-2,0,0
1203843,673,-8281,492,0,-2,0,0
1203848,675,-8282,489,0,-2,0,0
1203853,674,-8283,485,0,-2,0,0
1203858,671,-8281,481,0,-2,0,0
1203863,670,-8283,482,0,-1,0,0
1203868,669,-8284,481,0,-1,0,0
1203873,665,-8283,481,0,-1,0,0
1203878,658,-8285,479,0,-1,0,0
1203883,651,-8283,478,0,0,0,0
1203888,648,-8283,475,0,0,0,0
1203893,643,-8281,481,0,0,0,0
1203898,634,-8280,484,0,0,0,0
1203903,622,-8280,489,0,-1,0,0
1203908,612,-8283,491,0,-1,0,0
1203913,603,-8283,494,0,0,0,0
1203918,601,-8284,492,0,0,0,0
1203923,600,-8282,486,0,-1,0,0
1203928,600,-8280,489,0,-1,0,0
1203933,599,-8283,494,0,-2,0,0
1203938,596,-8285,499,0,-2,0,0
1203943,595,-8283,507,-1,-2,0,0
1203948,590,-8286,515,0,-2,0,0
1203953,592,-8290,518,0,-2,0,0
1203958,596,-8287,519,0,-2,0,0
1203963,594,-8285,517,0,-1,0,0
1203968,593,-8285,512,0,-1,0,0
1203973,592,-8282,499,0,-1,0,0
1203978,594,-8283,495,-1,0,-1,0
1203983,595,-8281,491,-1,0,-1,0
1203988,598,-8282,485,-1,0,-1,0
1203993,599,-8282,486,-1,0,0,0
1203998,599,-8283,497,-1,0,0,0
1204003,603,-8282,507,-1,0,0,0
1204008,614,-8280,514,-1,0,0,0
1204013,624,-8278,520,-1,0,-1,0
1204018,631,-8276,521,-1,0,0,0
1204023,640,-8275,517,-1,0,0,0
1204028,647,-8276,518,-1,0,-1,0
1204033,649,-8278,515,-1,0,0,0
1204038,644,-8280,506,-1,-1,0,0
1204043,636,-8281,495,-1,-1,-1,0
1204048,634,-8281,488,-1,0,0,0
1204053,627,-8280,480,-1,0,0,0
1204058,621,-8281,477,-1,0,0,0
1204063,622,-8281,476,-1,0,0,0
1204068,620,-8284,471,-1,0,0,0
1204073,620,-8285,469,-1,0,0,0
1204078,622,-8283,469,-1,0,0,0
1204083,627,-8282,469,-1,0,0,0
1204088,633,-8282,467,-1,0,0,0
1204093,639,-8280,462,-1,0,0,0
1204098,648,-8278,461,-1,0,-1,0
1204103,654,-8279,453,-1,1,-1,0
1204108,663,-8278,447,-1,1,-1,0
1204113,673,-8279,448,-1,1,0,0
1204118,680,-8281,453,-1,1,0,0
1204123,679,-8277,458,-1,1,0,0
1204128,675,-8277,466,-1,0,0,0
1204133,672,-8276,471,-1,0,0,0
1204138,671,-8274,476,-1,0,0,0
1204143,667,-8275,482,-1,0,0,0
1204148,670,-8275,481,-1,0,0,0
1204153,669,-8279,477,-1,0,0,0
1204158,671,-8281,474,-1,-1,0,0
1204163,674,-8282,473,-1,-1,0,0
1204168,672,-8282,472,-1,-1,0,0
1204173,670,-8281,464,-1,0,0,0
1204178,667,-8281,457,-1,0,0,0
1204183,664,-8280,448,-1,0,0,0
1204188,660,-8281,445,-1,0,0,0
1204193,659,-8279,435,0,0,0,0
1204198,658,-8281,424,0,0,0,0
1204203,662,-8282,417,0,0,0,0
1204208,664,-8279,418,-1,0,0,0
1204213,667,-8278,422,-1,0,0,0
1204218,671,-8278,425,-1,0,0,0
1204223,672,-8275,427,0,0,0,0
1204228,679,-8277,434,-1,0,0,0
1204233,685,-8277,447,0,1,0,0
1204238,691,-8279,456,0,0,0,0
1204243,697,-8277,463,-1,0,0,0
1204248,695,-8277,476,-1,-1,0,0
1204253,690,-8277,488,-1,-1,0,0
1204258,688,-8277,501,-1,-1,0,0
1204263,686,-8279,514,-1,-1,0,0
1204268,684,-8280,527,-1,-1,0,0
1204273,680,-8281,527,-1,-1,0,0
1204278,675,-8282,527,-1,-1,0,0
1204283,671,-8285,526,-1,-1,0,0
1204288,670,-8282,522,-1,-1,0,0
1204293,670,-8279,522,-1,-1,0,0
1204298,670,-8277,518,-1,-1,0,0
1204303,669,-8276,515,-1,-1,0,0
1204308,668,-8275,509,-1,-1,0,0
1204313,669,-8273,507,-1,-1,0,0
1204318,669,-8271,497,-1,-1,0,0
1204323,668,-8268,488,-1,-1,0,0
1204328,667,-8266,482,-1,-1,0,0
1204333,669,-8264,483,-1,-1,0,0
1204338,669,-8266,487,-1,-1,0,0
1204343,665,-8269,491,-1,-1,0,0
1204348,659,-8273,490,-1,-1,0,0
1204353,656,-8273,483,-1,-1,0,0
1204358,653,-8275,480,-1,-1,0,0
1204363,654,-8279,476,-1,-1,0,0
1204368,654,-8282,479,-1,-1,0,0
1204373,652,-8281,482,-1,-1,0,0
1204378,648,-8279,481,-1,-2,0,0
1204383,648,-8277,478,-1,-2,0,0
1204388,646,-8280,477,-1,-3,0,0
1204393,644,-8279,468,-1,-3,0,0
1204398,642,-8278,455,-1,-4,0,0
1204403,637,-8279,440,-1,-4,0,0
1204408,634,-8278,421,-1,-3,0,0
1204413,632,-8278,405,-1,-3,0,0
1204418,629,-8277,389,-1,-3,0,0
1204423,625,-8277,379,-1,-2,0,0
1204428,619,-8279,372,0,-2,0,0
1204433,615,-8278,366,0,-2,0,0
1204438,609,-8276,366,0,-2,0,0
1204443,604,-8276,367,0,-2,0,0
1204448,597,-8278,361,0,-2,0,0
1204453,593,-8278,356,0,-2,0,0
1204458,592,-8280,358,0,-1,0,0
1204463,593,-8279,366,0,-1,0,0
1204468,596,-8277,378,0,-2,0,0
1204473,602,-8277,388,0,-2,0,0
1204478,608,-8275,395,0,-2,0,0
1204483,615,-8272,406,0,-2,0,0
1204488,626,-8273,417,0,-2,0,0
1204493,638,-8272,426,0,-2,0,0
1204498,651,-8272,435,0,-2,0,0
1204503,658,-8270,433,0,-3,0,0
1204508,659,-8269,438,0,-3,0,0
1204513,660,-8269,436,0,-3,0,0
1204518,658,-8273,427,0,-3,0,0
1204523,653,-8273,422,0,-3,0,0
1204528,648,-8273,412,0,-3,0,0
1204533,645,-8274,402,0,-3,0,0
1204538,645,-8276,395,0,-3,0,0
1204543,643,-8277,395,0,-4,0,0
1204548,647,-8277,395,0,-4,0,0
1204553,650,-8279,392,0,-5,0,0
1204558,653,-8283,386,0,-5,0,0
1204563,653,-8284,382,0,-5,0,0
1204568,654,-8285,377,0,-5,0,0
1204573,652,-8286,378,0,-4,0,0
1204578,648,-8283,376,0,-4,0,0
1204583,652,-8280,383,0,-4,0,0
1204588,655,-8283,397,0,-4,0,0
1204593,658,-8286,408,0,-4,0,0
1204598,665,-8287,422,0,-4,0,0
1204603,681,-8284,437,0,-4,0,0
1204608,694,-8282,450,0,-4,0,0
1204613,709,-8277,460,0,-4,0,0
1204618,719,-8277,471,0,-5,0,0
1204623,717,-8275,483,0,-5,0,0
1204628,713,-8277,484,0,-5,0,0
1204633,707,-8277,477,0,-5,0,0
1204638,699,-8279,475,0,-5,0,0
1204643,691,-8282,467,0,-5,0,0
1204648,684,-8282,458,0,-5,0,0
1204653,680,-8281,450,0,-4,0,0
1204658,677,-8279,443,0,-4,0,0
1204663,675,-8279,432,0,-3,0,0
1204668,675,-8278,433,0,-3,0,0
1204673,676,-8277,438,0,-3,0,0
1204678,675,-8276,444,0,-3,0,0
1204683,670,-8275,444,0,-3,0,0
1204688,665,-8273,447,0,-3,0,0
1204693,659,-8273,450,0,-3,0,0
1204698,658,-8274,451,0,-3,0,0
1204703,661,-8273,451,0,-3,0,0
1204708,664,-8276,449,0,-2,0,0
1204713,671,-8279,446,0,-2,0,0
1204718,677,-8278,451,0,-3,0,0
1204723,682,-8279,458,0,-3,0,0
1204728,684,-8276,462,0,-4,0,0
1204733,684,-8274,465,0,-5,0,0
1204738,686,-8274,469,0,-6,0,0
1204743,688,-8274,477,0,-6,0,0
1204748,688,-8275,479,0,-7,0,0
1204753,689,-8273,474,0,-7,0,0
1204758,686,-8274,470,0,-6,0,0
1204763,683,-8274,465,0,-6,0,0
1204768,681,-8277,460,0,-6,0,0
1204773,678,-8278,457,0,-6,1,0
1204778,674,-8280,461,0,-5,0,0
1204783,671,-8282,469,0,-5,0,0
1204788,669,-8281,477,0,-5,1,0
1204793,668,-8279,479,0,-4,1,0
1204798,670,-8279,476,0,-5,0,0
1204803,672,-8279,476,0,-5,1,0
1204808,669,-8277,476,0,-5,1,0
1204813,662,-8277,475,0,-5,1,0
1204818,654,-8275,476,0,-4,1,0
1204823,646,-8274,471,0,-4,1,0
1204828,640,-8277,467,0,-4,1,0
1204833,632,-8279,461,0,-3,1,0
1204838,623,-8279,456,0,-3,1,0
1204843,616,-8279,461,0,-3,1,0
1204848,612,-8280,466,0,-3,1,0
1204853,610,-8282,472,0,-3,1,0
1204858,608,-8281,479,0,-4,0,0
1204863,606,-8279,483,0,-4,1,0
1204868,604,-8277,491,0,-4,1,0
1204873,598,-8276,492,0,-4,1,0
1204878,594,-8278,495,0,-4,1,0
1204883,593,-8280,497,0,-3,1,0
1204888,595,-8280,492,0,-3,1,0
1204893,597,-8282,486,0,-2,1,0
1204898,602,-8283,483,0,-2,1,0
1204903,610,-8283,478,0,-2,1,0
1204908,618,-8282,479,0,-2,1,0
1204913,624,-8280,480,0,-3,1,0
1204918,627,-8276,480,0,-4,1,0
1204923,626,-8276,479,0,-4,1,0
1204928,625,-8279,480,0,-5,1,0
1204933,619,-8280,480,1,-5,1,0
1204938,611,-8282,474,1,-4,1,0
1204943,599,-8284,466,1,-4,1,0
1204948,594,-8285,461,0,-3,1,0
1204953,588,-8286,456,0,-3,1,0
1204958,581,-8285,449,0,-3,1,0
1204963,578,-8282,447,0,-3,1,0
1204968,577,-8280,452,1,-4,0,0
1204973,573,-8280,460,1,-5,1,0
1204978,559,-8281,469,1,-5,1,0
1204983,550,-8282,475,1,-4,1,0
1204988,544,-8282,487,1,-3,1,0
1204993,545,-8282,497,1,-2,1,0
1204998,543,-8283,502,1,-1,1,0
1205003,544,-8285,507,1,-1,0,0
1205008,548,-8285,512,1,-2,0,0
1205013,547,-8282,518,1,-3,1,0
1205018,549,-8284,527,1,-4,0,0
1205023,552,-8283,542,1,-5,0,0
1205028,557,-8280,555,1,-6,0,0
1205033,558,-8278,569,1,-7,0,0
1205038,558,-8280,585,1,-8,0,0
1205043,550,-8277,594,1,-8,1,0
1205048,547,-8273,596,0,-6,1,0
1205053,552,-8274,599,0,-4,0,0
1205058,560,-8275,600,0,-3,0,0
1205063,563,-8278,599,0,-2,0,0
1205068,565,-8278,594,0,-1,0,0
1205073,569,-8278,590,0,-1,0,0
1205078,576,-8278,597,0,-1,0,0
1205083,582,-8277,608,0,-1,1,0
1205088,588,-8277,619,0,-1,1,0
1205093,600,-8276,633,0,-1,1,0
1205098,607,-8276,643,0,-1,1,0
1205103,619,-8276,655,0,-1,1,0
1205108,630,-8278,657,0,-1,1,0
1205113,636,-8280,654,0,-1,1,0
1205118,641,-8280,647,0,-1,1,0
1205123,641,-8283,639,0,-1,1,0
1205128,638,-8286,630,0,-2,1,0
1205133,635,-8286,620,0,-2,1,0
1205138,635,-8284,611,0,-2,1,0
1205143,632,-8285,607,0,-1,1,0
1205148,641,-8287,605,0,-1,1,0
1205153,650,-8285,606,0,-1,1,0
1205158,663,-8283,608,0,-1,1,0
1205163,669,-8285,610,0,0,1,0
1205168,673,-8284,618,0,0,1,0
1205173,675,-8281,627,0,-1,1,0
1205178,671,-8279,631,0,-1,1,0
1205183,660,-8276,628,0,-2,1,0
1205188,646,-8273,628,0,-3,1,0
1205193,631,-8272,628,0,-3,1,0
1205198,618,-8271,621,0,-4,1,0
1205203,605,-8270,613,0,-4,1,0
1205208,594,-8272,613,0,-4,1,0
1205213,590,-8274,608,0,-4,1,0
1205218,587,-8273,606,0,-4,1,0
1205223,579,-8273,603,0,-4,1,0
1205228,567,-8271,601,0,-4,1,0
1205233,557,-8269,602,0,-5,1,0
1205238,539,-8272,599,0,-5,1,0
1205243,516,-8275,596,0,-5,1,0
1205248,492,-8279,584,0,-4,1,0
1205253,466,-8281,580,0,-4,1,0
1205258,445,-8281,579,0,-3,1,0
1205263,428,-8282,582,0,-3,1,0
1205268,415,-8282,586,0,-2,1,0
1205273,408,-8280,595,0,-2,1,0
1205278,403,-8281,606,0,-2,1,0
1205283,400,-8283,614,0,-2,1,0
1205288,397,-8286,621,-1,-3,1,0
1205293,395,-8286,619,-1,-3,1,0
1205298,393,-8285,615,-1,-3,1,0
1205303,393,-8286,608,-1,-3,1,0
1205308,389,-8285,602,-1,-3,1,0
1205313,389,-8283,594,-1,-3,1,0
1205318,390,-8282,586,-1,-3,0,0
1205323,389,-8282,582,-1,-3,1,0
1205328,393,-8284,574,-1,-2,1,0
1205333,396,-8281,568,-1,-2,0,0
1205338,400,-8279,568,-1,-1,0,0
1205343,406,-8277,569,-1,-1,0,0
1205348,413,-8277,571,-1,-1,0,0
1205353,420,-8276,574,-1,-1,0,0
1205358,423,-8275,576,-1,-1,0,0
1205363,423,-8275,579,-1,-1,0,0
1205368,420,-8275,579,-1,-1,0,0
1205373,420,-8276,585,-1,-1,0,0
1205378,417,-8278,583,-1,-1,0,0
1205383,414,-8276,581,-1,-1,0,0
1205388,412,-8276,582,-1,-1,0,0
1205393,408,-8276,581,-1,0,0,0
1205398,404,-8280,578,-1,0,0,0
1205403,402,-8285,577,-1,0,0,0
1205408,406,-8288,578,-1,0,0,0
1205413,414,-8288,577,-1,0,0,0
1205418,419,-8287,583,-1,0,0,0
1205423,419,-8290,585,-1,0,0,0
1205428,414,-8289,594,-1,0,0,0
1205433,412,-8291,603,-1,0,0,0
1205438,412,-8291,607,-1,0,0,0
1205443,411,-8291,615,-1,0,0,0
1205448,412,-8288,624,-1,0,0,0
1205453,414,-8287,633,-1,0,0,0
1205458,420,-8287,636,-1,0,0,0
1205463,429,-8285,636,-1,1,0,0
1205468,439,-8284,640,-1,1,0,0
1205473,448,-8282,639,-1,1,0,0
1205478,456,-8279,640,-1,1,0,0
1205483,468,-8281,639,-1,0,0,0
1205487,478,-8279,637,-1,0,0,0
1205493,484,-8281,639,-1,0,0,0
1205498,487,-8282,635,-1,0,0,0
1205502,485,-8282,632,-1,0,0,0
1205508,480,-8283,624,-1,0,0,0
1205512,469,-8282,614,-1,0,0,0
1205518,462,-8284,607,-1,0,0,0
1205523,451,-8285,595,-1,0,0,0
1205528,444,-8288,585,-1,0,0,0
1205532,435,-8289,574,-1,1,0,0
1205538,430,-8290,562,-1,1,0,0
1205542,428,-8290,556,-1,2,0,0
1205548,426,-8289,554,-1,2,0,0
1205553,427,-8289,555,-1,2,0,0
1205558,432,-8289,559,-1,2,0,0
1205562,436,-8289,562,-1,2,0,0
1205568,438,-8288,568,-1,2,0,0
1205573,440,-8289,569,-1,2,0,0
1205577,440,-8287,566,-1,1,0,0
1205583,443,-8285,563,-1,1,0,0
1205587,439,-8285,564,-1,1,0,0
1205593,434,-8284,563,-1,1,0,0
1205598,433,-8284,552,-1,2,0,0
1205602,436,-8286,542,-1,2,0,0
1205607,442,-8286,527,-1,2,0,0
1205612,448,-8284,514,-1,2,0,0
1205617,454,-8284,507,-1,2,0,0
1205622,458,-8283,499,-1,2,0,0
1205627,461,-8281,497,-1,1,0,0
1205632,460,-8281,496,-1,1,0,0
1205637,458,-8280,491,-1,2,0,0
1205642,453,-8279,490,-1,2,0,0
1205647,451,-8278,493,-1,3,-1,0
1205653,451,-8281,487,-1,3,0,0
1205658,450,-8283,483,-1,3,-1,0
1205662,448,-8281,479,-1,3,-1,0
1205668,446,-8282,476,-1,3,-1,0
1205672,444,-8284,475,-1,3,-1,0
1205677,446,-8286,469,-1,4,0,0
1205682,456,-8286,471,-1,3,0,0
1205687,468,-8287,473,-1,3,0,0
1205692,482,-8286,471,-1,2,-1,0
1205698,488,-8287,476,-1,1,-1,0
1205703,490,-8284,480,-1,0,-1,0
1205707,490,-8283,477,-1,0,-1,0
1205712,491,-8281,474,-1,0,-1,0
1205718,491,-8281,475,-1,1,0,0
1205723,492,-8282,477,-1,1,0,0
1205728,495,-8281,477,-1,1,0,0
1205733,502,-8281,472,-1,1,0,0
1205738,498,-8279,474,-1,-1,-1,0
1205742,492,-8281,479,-1,-1,-1,0
1205747,486,-8283,485,-1,0,0,0
1205752,492,-8280,493,-1,1,0,0
1205757,499,-8280,498,-1,1,0,0
1205762,507,-8282,501,-1,1,0,0
1205767,508,-8283,505,-1,0,0,0
1205772,504,-8281,502,-1,0,0,0
1205777,499,-8279,494,-1,1,0,4
1205782,490,-8280,479,-1,1,0,4
1205787,485,-8280,463,-1,1,0,4
1205792,484,-8281,452,-1,1,0,4
1205797,482,-8281,441,-1,1,0,4
1205802,483,-8279,438,-1,1,0,4
1205807,486,-8279,437,-1,1,0,4
1205812,490,-8279,445,-1,1,0,4
1205817,489,-8281,455,-1,0,0,4
1205822,485,-8281,462,-1,0,0,4
1205828,478,-8279,467,-1,0,0,4
1205832,473,-8277,470,-1,0,0,4
1205837,465,-8278,470,-1,0,0,4
1205842,459,-8277,465,-1,0,0,4
1205847,452,-8278,460,-1,0,0,4
1205852,450,-8277,458,-1,0,0,4
1205857,452,-8277,456,-1,0,0,4
1205862,458,-8278,457,-1,0,0,4
1205867,467,-8280,460,-1,0,0,4
1205872,478,-8280,470,-1,0,0,4
1205877,484,-8279,477,-1,-1,0,4
1205882,486,-8279,486,-1,-1,-1,4
1205887,482,-8280,494,-1,-1,-1,4
1205892,470,-8283,502,-1,-1,-1,4
1205897,455,-8282,496,-1,-1,-1,4
1205902,440,-8279,492,-1,-1,-1,4
1205907,422,-8277,490,-1,-2,-1,4
1205912,402,-8279,490,-1,-2,-1,4
1205917,379,-8276,489,-1,-2,-1,4
1205922,363,-8279,479,-1,-1,-1,4
1205927,350,-8283,473,-1,-1,-1,4
1205932,340,-8284,468,-1,-1,-1,4
1205937,332,-8285,466,-1,-1,-1,4
1205942,324,-8282,465,-1,-1,-1,4
1205947,316,-8279,465,-1,-1,-1,4
1205952,311,-8280,466,-1,-2,-1,4
1205957,304,-8281,480,-1,-2,-1,4
1205962,294,-8284,489,-1,-2,-1,4
1205967,285,-8286,491,-1,-3,-1,4
1205972,275,-8285,488,-1,-3,-1,4
1205977,262,-8284,489,-1,-3,-1,4
1205982,250,-8286,490,-1,-3,-2,4
1205987,241,-8288,488,-1,-1,-2,4
1205992,238,-8291,485,-1,0,-2,4
1205997,243,-8294,484,-1,1,-2,4
1206002,254,-8295,491,-1,1,-2,4
1206007,265,-8293,497,-1,1,-2,4
1206012,277,-8290,508,-1,1,-2,4
1206017,288,-8286,514,-1,1,-2,4
1206022,302,-8286,515,-1,1,-2,4
1206027,312,-8288,509,-1,1,-2,4
1206032,323,-8290,498,-1,1,-2,4
1206037,333,-8289,490,-2,1,-2,4
1206042,339,-8288,482,-2,1,-2,4
1206047,348,-8287,475,-1,1,-2,4
1206052,364,-8285,473,-1,1,-2,4
1206057,370,-8281,469,-2,1,-2,4
1206062,378,-8282,466,-2,1,-2,4
1206067,391,-8286,471,-2,1,-2,4
1206072,399,-8288,473,-2,1,-2,4
1206077,410,-8289,476,-2,1,-2,4
1206082,424,-8287,483,-2,1,-2,4
1206087,443,-8289,491,-2,1,-2,4
1206092,461,-8290,489,-2,1,-2,4
1206097,478,-8291,492,-2,0,-2,4
1206102,493,-8288,488,-2,0,-2,4
1206107,505,-8285,487,-2,0,-2,4
1206112,512,-8286,485,-2,-1,-2,4
1206117,517,-8283,480,-2,-1,-2,4
1206122,519,-8281,473,-2,-1,-2,4
1206127,523,-8281,465,-2,-1,-2,4
1206132,530,-8284,458,-2,-1,-2,4
1206137,538,-8287,448,-2,-1,-2,4
1206142,547,-8287,446,-2,-1,-2,4
1206147,551,-8286,441,-2,-1,-2,4
1206152,554,-8283,438,-2,-1,-2,4
1206157,556,-8284,434,-2,-1,-2,4
1206162,558,-8285,436,-2,0,-2,4
1206167,562,-8286,435,-2,0,-2,4
1206172,563,-8284,434,-2,0,-2,4
1206177,560,-8284,433,-2,-1,-2,4
1206182,553,-8284,426,-2,-1,-2,4
1206187,547,-8284,423,-2,0,-2,4
1206192,550,-8287,422,-2,0,-2,4
1206197,556,-8285,426,-2,0,-2,4
1206202,562,-8282,428,-2,-1,-2,4
1206207,562,-8282,429,-2,-1,-2,4
1206212,561,-8280,431,-2,-1,-2,4
1206217,558,-8279,432,-2,-1,-2,4
1206222,559,-8277,437,-2,0,-2,4
1206227,567,-8277,434,-2,0,-2,4
1206232,571,-8279,426,-2,0,-2,4
1206237,570,-8281,419,-2,-1,-2,4
1206242,568,-8281,408,-2,0,-2,4
1206247,568,-8283,396,-2,0,-2,4
1206252,569,-8284,387,-2,-1,-2,4
1206257,565,-8284,375,-2,-1,-2,4
1206262,556,-8286,362,-2,-1,-2,4
1206267,552,-8285,357,-2,-1,-2,4
1206272,557,-8285,356,-2,-1,-2,4
1206277,563,-8282,355,-2,-1,-2,4
1206282,574,-8280,354,-2,-1,-2,4
1206287,594,-8281,350,-2,-2,-2,4
1206292,615,-8280,353,-2,-2,-2,4
1206297,631,-8279,352,-2,-3,-2,4
1206302,641,-8278,349,-2,-3,-2,4
1206307,649,-8275,344,-2,-3,-2,4
1206312,654,-8276,342,-2,-3,-2,4
1206317,664,-8278,345,-2,-4,-2,4
1206322,669,-8276,345,-2,-4,-2,4
1206327,672,-8276,348,-2,-6,-2,4
1206332,681,-8277,351,-2,-7,-2,4
1206337,691,-8275,360,-2,-8,-2,4
1206342,700,-8276,369,-2,-10,-2,4
1206347,708,-8277,376,-2,-11,-2,4
1206352,714,-8276,375,-1,-13,-2,4
1206357,712,-8277,374,-1,-15,-2,4
1206362,700,-8277,371,-1,-16,-2,4
1206367,678,-8277,365,-1,-16,-2,4
1206372,650,-8276,359,-1,-15,-2,4
1206377,625,-8276,350,-1,-13,-2,4
1206382,596,-8278,335,-1,-10,-2,4
1206387,568,-8280,321,-2,-7,-2,4
1206392,540,-8280,309,-2,-2,-2,4
1206397,512,-8283,300,-2,3,-2,4
1206402,481,-8282,291,-2,9,-2,4
1206407,447,-8283,279,-2,16,-2,4
1206412,410,-8286,267,-2,26,-2,4
1206417,368,-8286,254,-2,39,-2,4
1206422,323,-8288,241,-2,56,-2,4
1206427,261,-8292,225,-3,79,-2,4
1206432,194,-8295,218,-3,108,-2,4
1206437,106,-8296,212,-3,143,-2,4
1206442,-27,-8296,218,-4,184,-2,4
1206447,-239,-8301,247,-4,234,-2,4
1206452,-405,-8301,256,-5,297,-2,4
1206457,-659,-8308,315,-6,374,-1,4
1206462,-1087,-8312,413,-7,452,-3,4
1206467,-1396,-8309,531,-8,532,-5,4
1206472,-1782,-8308,810,-8,620,-6,4
1206477,-2107,-8354,1134,-9,710,-6,4
1206482,-2442,-8382,1493,-11,804,-5,4
1206487,-2778,-8383,1786,-13,898,-3,4
1206492,-3126,-8383,2076,-14,984,-4,4
1206497,-3413,-8385,2629,-15,1067,-5,4
1206502,-3751,-8378,3277,-17,1156,-6,4
1206507,-4067,-8378,4201,-19,1237,-6,4
1206512,-4253,-8367,5133,-20,1290,-6,4
1206517,-4307,-8347,6088,-20,1301,-6,4
1206522,-4240,-8332,6960,-18,1271,-6,4
1206527,-3963,-8327,7693,-17,1217,-6,4
1206532,-3516,-8284,8151,-15,1144,-6,4
1206537,-2854,-8243,8321,-12,1051,-6,4
1206542,-2085,-8220,8250,-9,945,-6,4
1206547,-1255,-8218,7975,-7,831,-5,4
1206552,-367,-8234,7627,-7,720,-4,4
1206557,333,-8213,7365,-8,622,-1,4
1206562,820,-8204,7229,-7,537,-2,4
1206567,1775,-8174,6980,-6,470,-3,4
1206572,2661,-8168,6657,-3,450,-1,4
1206577,3241,-8176,6227,-1,457,-1,4
1206582,3839,-8176,5855,0,455,-1,4
1206587,4462,-8174,5430,0,439,-1,4
1206592,5029,-8175,4955,0,401,-1,4
1206597,5433,-8180,4425,1,333,0,4
1206602,5686,-8184,3928,1,239,0,4
1206607,5768,-8192,3474,1,135,0,4
1206612,5514,-8210,2962,1,42,1,4
1206617,4989,-8221,2517,1,-20,1,4
1206622,4394,-8227,2139,1,-46,1,4
1206627,3824,-8234,1749,1,-54,1,4
1206632,3311,-8237,1461,2,-60,1,4
1206637,2868,-8241,1228,3,-70,0,4
1206642,2559,-8246,1005,3,-85,0,4
1206647,2372,-8250,857,4,-105,0,4
1206652,2248,-8256,750,4,-133,1,4
1206657,2186,-8259,678,4,-167,2,4
1206662,2205,-8259,682,4,-208,2,4
1206667,2288,-8261,748,4,-249,3,4
1206672,2473,-8263,891,4,-290,3,4
1206677,2703,-8260,1039,3,-330,5,4
1206682,3071,-8252,1252,3,-374,6,4
1206687,3637,-8244,1592,3,-419,7,4
1206692,4364,-8220,2027,4,-476,8,4
1206697,5162,-8194,2416,5,-552,8,4
1206702,5966,-8173,2785,7,-643,9,4
1206707,6789,-8152,3172,9,-745,9,4
1206712,7417,-8139,3649,10,-862,8,4
1206717,7914,-8125,4264,11,-996,8,4
1206722,8167,-8108,5172,12,-1147,8,4
1206727,8074,-8081,6189,14,-1299,7,4
1206732,7688,-8067,7339,16,-1419,6,4
1206737,6946,-8067,8631,18,-1430,6,4
1206742,5841,-8096,9738,19,-1430,4,4
1206747,4584,-8116,10687,20,-1430,0,4
1206752,3315,-8130,11500,22,-1430,-2,4
1206757,2147,-8153,12197,23,-1410,-1,4
1206762,1204,-8198,12382,20,-1348,0,4
1206767,497,-8210,12171,16,-1274,1,4
1206772,-130,-8191,12006,13,-1170,2,4
1206777,-680,-8171,11604,12,-1027,4,4
1206782,-1258,-8151,10809,12,-846,7,4
1206787,-1704,-8156,9703,12,-645,7,4
1206792,-1974,-8160,8276,10,-437,5,4
1206797,-2273,-8177,6960,9,-242,4,4
1206802,-2532,-8204,5739,7,-79,1,4
1206807,-2513,-8284,4773,6,50,-1,4
1206812,-2304,-8328,3881,1,149,0,4
1206817,-2264,-8316,2904,-2,218,2,4
1206822,-2268,-8330,1943,-2,243,-1,4
1206827,-2040,-8353,1426,-3,243,-2,4
1206832,-1856,-8364,1048,-5,239,-3,4
1206837,-1746,-8369,797,-6,221,-2,4
1206842,-1625,-8344,700,-6,195,-2,4
1206847,-1695,-8336,1071,-4,166,-1,4
1206852,-1540,-8328,1260,-3,134,0,4
1206857,-1362,-8317,1382,-2,105,2,4
1206862,-1008,-8309,1435,-1,70,1,4
1206867,-656,-8310,1507,0,44,0,4
1206872,-402,-8307,1539,-1,21,-1,4
1206877,-124,-8296,1514,-1,0,-2,4
1206882,84,-8291,1434,-1,-13,-3,4
1206887,204,-8286,1315,-1,-25,-3,4
1206892,174,-8280,1240,0,-30,-3,4
1206897,19,-8279,1090,0,-29,-2,4
1206902,-50,-8284,870,0,-24,-2,4
1206907,-58,-8291,671,0,-16,-1,4
1206912,-32,-8294,439,0,-7,-1,4
1206917,71,-8295,249,0,2,-2,4
1206922,192,-8299,142,-1,12,-2,4
1206927,277,-8298,72,-1,23,-2,4
1206932,376,-8295,50,-1,36,-2,4
1206937,410,-8296,74,-1,55,-2,4
1206942,461,-8289,65,-1,73,-2,4
1206947,531,-8282,71,-1,93,-2,4
1206952,589,-8276,124,-1,110,-2,4
1206957,652,-8274,174,-1,122,-2,4
1206962,713,-8273,211,-1,129,-2,4
1206967,753,-8273,258,-1,131,-1,4
1206972,796,-8276,270,-1,127,-1,4
1206977,841,-8284,326,-1,121,-1,4
1206982,875,-8287,353,-1,113,-1,4
1206987,895,-8289,381,-1,101,-1,4
1206992,891,-8289,464,-1,88,-1,4
1206997,882,-8287,513,-1,73,-1,4
1207002,874,-8286,551,-1,60,-1,4
1207007,863,-8285,583,-1,48,-1,4
1207012,870,-8287,580,0,39,-1,4
1207017,868,-8288,570,0,33,-1,4
1207022,854,-8289,540,0,28,-1,4
1207027,839,-8289,500,0,25,-1,4
1207032,803,-8291,475,0,24,-1,4
1207037,762,-8291,440,0,25,-1,4
1207042,725,-8292,413,0,29,-1,4
1207047,705,-8293,392,-1,32,-1,4
1207052,716,-8289,380,-1,35,-1,4
1207057,745,-8290,375,-1,36,-1,4
1207062,784,-8290,372,-1,35,-1,4
1207067,828,-8290,375,0,33,-1,4
1207072,874,-8287,382,0,31,-1,4
1207077,908,-8284,389,0,28,-1,4
1207082,938,-8281,384,0,25,-1,4
1207087,960,-8280,365,0,23,0,4
1207092,977,-8278,343,0,21,0,4
1207097,995,-8280,321,0,19,0,4
1207102,1015,-8281,299,0,16,0,4
1207107,1029,-8280,284,0,13,0,4
1207112,1042,-8279,272,0,9,0,4
1207117,1043,-8279,272,0,6,0,4
1207122,1033,-8277,285,0,4,0,4
1207127,1018,-8275,303,0,2,0,4
1207132,997,-8275,312,0,2,0,4
1207137,972,-8276,327,0,2,0,4
1207142,948,-8276,343,0,2,0,4
1207147,919,-8276,350,0,2,0,4
1207152,891,-8279,361,0,1,0,4
1207157,856,-8280,367,0,0,0,4
1207162,810,-8279,365,0,-1,0,4
1207167,766,-8280,369,0,-1,0,4
1207172,725,-8280,367,0,-1,0,4
1207177,687,-8281,369,0,-1,0,4
1207182,652,-8283,372,0,-1,0,4
1207187,620,-8283,368,0,-1,0,4
1207192,591,-8282,365,0,-1,0,4
1207197,575,-8283,367,0,0,0,4
1207202,566,-8286,367,0,0,0,4
1207207,551,-8288,368,0,0,0,4
1207212,544,-8286,364,0,1,0,4
1207217,538,-8285,364,0,1,0,4
1207222,528,-8285,362,0,1,0,4
1207227,519,-8286,354,0,1,0,4
1207232,506,-8286,357,0,2,0,4
1207237,497,-8285,360,0,4,0,4
1207242,500,-8286,361,0,5,0,4
1207247,506,-8282,372,0,6,0,4
1207252,521,-8281,379,0,7,0,4
1207257,538,-8281,389,0,6,0,4
1207262,551,-8282,398,0,5,0,4
1207267,564,-8284,405,0,4,0,4
1207272,571,-8283,415,0,3,0,4
1207277,570,-8284,421,0,2,0,4
1207282,569,-8285,422,0,2,0,4
1207287,562,-8287,420,0,3,0,4
1207292,554,-8287,418,0,4,0,4
1207297,551,-8288,413,0,5,0,4
1207302,549,-8287,417,0,7,0,4
1207307,550,-8285,425,0,8,0,4
1207312,559,-8282,437,0,9,-1,4
1207317,568,-8279,459,0,9,-1,4
1207322,579,-8279,479,0,9,-1,4
1207327,596,-8277,505,0,8,-1,4
1207332,610,-8275,536,0,7,-1,4
1207337,620,-8277,556,0,5,-1,4
1207342,634,-8278,575,0,4,-1,4
1207347,642,-8278,589,0,3,-1,4
1207352,649,-8277,586,0,2,-1,4
1207357,654,-8275,583,0,2,0,4
1207362,659,-8275,579,0,2,0,4
1207367,672,-8276,573,0,2,-1,4
1207372,685,-8278,565,0,2,0,4
1207377,701,-8279,551,0,2,0,4
1207382,723,-8277,548,0,2,0,4
1207387,742,-8277,547,-1,0,0,4
1207392,752,-8276,541,0,-1,0,4
1207397,756,-8275,528,0,-2,0,4
1207402,755,-8272,515,0,-2,0,4
1207407,752,-8272,501,0,-1,0,4
1207412,751,-8272,487,0,-1,0,4
1207417,753,-8275,473,0,-1,0,4
1207422,755,-8277,455,0,-1,0,4
1207427,756,-8280,444,-1,-1,0,4
1207432,756,-8283,441,-1,0,0,4
1207437,763,-8285,440,-1,0,0,4
1207442,770,-8284,449,-1,0,0,4
1207447,771,-8283,460,-1,1,0,4
1207452,774,-8285,476,-1,1,0,4
1207457,779,-8284,488,-1,1,0,4
1207462,777,-8285,496,-1,1,0,4
1207467,776,-8286,503,-1,1,0,4
1207472,772,-8286,504,-1,1,0,4
1207477,772,-8288,493,-1,1,0,4
1207482,776,-8289,485,-1,1,0,4
1207487,774,-8290,475,-1,1,0,4
1207492,778,-8292,463,-1,1,0,4
1207497,777,-8290,455,-1,0,0,4
1207502,771,-8288,454,-1,-1,0,4
1207507,757,-8287,446,-1,-1,1,4
1207512,743,-8288,443,-1,-1,1,4
1207517,728,-8287,433,-1,-1,1,4
1207522,714,-8285,425,-1,-1,1,4
1207527,704,-8287,412,-1,-2,1,4
1207532,690,-8287,397,-1,-2,1,4
1207537,678,-8288,387,-1,-2,0,4
1207542,664,-8291,382,-1,-2,1,4
1207547,648,-8291,375,-1,-2,0,4
1207552,637,-8292,373,-1,-2,1,4
1207557,629,-8292,374,-1,-2,1,4
1207562,619,-8292,377,-1,-2,0,4
1207567,610,-8292,380,-1,-2,0,4
1207572,602,-8291,382,-1,-2,1,4
1207577,599,-8291,385,-1,-2,1,4
1207582,598,-8291,386,-1,-2,0,4
1207587,601,-8293,384,-1,-2,0,4
1207592,604,-8294,384,0,-2,0,4
1207597,607,-8293,386,0,-3,0,4
1207602,605,-8291,386,-1,-4,0,4
1207607,600,-8293,392,-1,-5,0,4
1207612,594,-8293,398,-1,-5,0,4
1207617,593,-8290,402,-1,-5,0,4
1207622,593,-8290,404,0,-5,0,4
1207627,590,-8292,400,0,-5,0,4
1207632,583,-8292,391,0,-4,0,4
1207637,581,-8295,386,0,-3,0,4
1207642,574,-8295,380,-1,-2,0,4
1207647,570,-8298,375,-1,-1,0,4
1207652,569,-8296,367,-1,0,0,4
1207657,568,-8294,359,-1,0,0,4
1207662,564,-8290,359,-1,0,0,4
1207667,559,-8290,354,-1,0,0,4
1207672,554,-8290,354,-1,0,0,4
1207677,551,-8288,356,0,0,0,4
1207682,547,-8288,359,0,0,0,4
1207687,541,-8288,364,0,-1,0,4
1207692,532,-8288,367,0,-1,0,4
1207697,525,-8285,370,0,-1,0,4
1207702,519,-8285,372,0,0,0,4
1207707,517,-8284,376,0,-1,0,4
1207712,517,-8284,378,0,-1,0,4
1207717,521,-8284,377,0,-2,0,4
1207722,526,-8284,375,0,-2,0,4
1207727,530,-8284,371,0,-2,0,4
1207732,530,-8285,368,0,-1,0,4
1207737,530,-8285,367,0,-1,0,4
1207742,528,-8286,363,0,-1,0,4
1207747,527,-8288,362,0,-1,0,4
1207752,525,-8291,363,0,-1,0,4
1207757,522,-8291,369,0,-1,0,4
1207762,520,-8295,376,0,-1,0,4
1207767,520,-8295,379,0,-1,0,4
1207772,521,-8296,386,0,-1,0,4
1207777,522,-8294,396,0,-1,0,0
1207782,529,-8294,410,0,-1,0,0
1207787,532,-8294,421,0,-1,0,0
1207792,537,-8295,429,0,0,0,0
1207797,541,-8291,435,0,0,0,0
1207802,545,-8291,439,0,-1,0,0
1207807,545,-8294,440,0,-1,0,0
1207812,544,-8290,438,0,-1,0,0
1207817,542,-8287,431,0,-1,-1,0
1207822,546,-8287,424,0,-1,-1,0
1207827,549,-8287,419,0,-1,0,0
1207832,547,-8286,421,0,-1,0,0
1207837,548,-8287,424,0,-1,0,0
1207842,547,-8286,420,0,-1,0,0
1207847,550,-8287,415,0,-1,0,0
1207852,554,-8286,412,0,-1,-1,0
1207857,561,-8287,407,0,-1,-1,0
1207862,572,-8286,397,0,0,-1,0
1207867,578,-8285,390,0,-1,-1,0
1207872,580,-8283,382,0,-1,-1,0
1207877,581,-8279,378,0,-1,-1,0
1207882,578,-8279,380,0,-1,-1,0
1207887,576,-8279,384,0,-1,-1,0
1207892,577,-8280,393,0,-1,-1,0
1207897,582,-8281,404,0,-1,-1,0
1207902,589,-8282,413,0,-1,-1,0
1207907,597,-8283,429,0,-2,-1,0
1207912,601,-8282,443,0,-2,-1,0
1207917,598,-8282,454,0,-3,-1,0
1207922,594,-8279,461,0,-2,-1,0
1207927,589,-8279,462,0,-2,-1,0
1207932,587,-8279,453,0,-1,-1,0
1207937,582,-8281,445,0,-1,-1,0
1207942,580,-8283,441,-1,0,-1,0
1207947,581,-8281,436,-1,0,-1,0
1207952,584,-8280,432,-1,0,-1,0
1207957,584,-8281,424,-1,0,-1,0
1207962,586,-8283,422,-1,0,-1,0
1207967,592,-8285,418,-1,0,-1,0
1207972,597,-8285,408,0,0,-1,0
1207977,604,-8283,403,0,0,-1,0
1207982,609,-8283,396,0,0,-1,0
1207987,604,-8279,391,0,-1,-1,0
1207992,599,-8278,387,-1,0,-1,0
1207997,595,-8279,388,-1,0,-1,0
1208002,590,-8279,395,-1,0,-1,0
1208007,586,-8279,398,-1,-1,-1,0
1208012,581,-8279,406,-1,-1,-1,0
1208017,581,-8277,418,-1,0,-1,0
1208022,587,-8276,433,-1,0,-1,0
1208027,591,-8278,453,-1,-1,-1,0
1208032,593,-8280,472,-1,-1,-1,0
1208037,593,-8279,481,-1,-1,-1,0
1208042,595,-8279,493,-1,-1,-1,0
1208047,603,-8280,505,-1,-1,-1,0
1208052,610,-8279,516,-1,-1,-1,0
1208057,613,-8280,524,-1,-1,-1,0
1208062,614,-8280,527,-1,-1,-1,0
1208067,611,-8280,525,-1,0,-1,0
1208072,614,-8281,521,-1,0,-1,0
1208077,616,-8282,508,-1,1,-1,0
1208082,616,-8284,491,-1,1,-1,0
1208087,615,-8285,481,-1,1,-1,0
1208092,616,-8285,469,-1,1,-1,0
1208097,617,-8284,458,-1,2,-1,0
1208102,624,-8288,449,-1,2,-1,0
1208107,629,-8288,438,-1,2,-1,0
1208112,635,-8290,426,-1,2,-1,0
1208117,640,-8290,411,-1,1,-1,0
1208122,643,-8291,388,-1,1,-1,0
1208127,646,-8293,368,-1,2,-1,0
1208132,647,-8295,350,-1,2,-1,0
1208137,645,-8296,329,-1,2,0,0
1208142,640,-8296,318,-1,2,0,0
1208147,633,-8294,311,-1,2,-1,0
1208152,624,-8293,317,-1,3,0,0
1208157,618,-8291,328,-1,3,0,0
1208162,614,-8291,345,-1,3,-1,0
1208167,616,-8289,372,-1,3,-1,0
1208172,621,-8289,394,-1,2,0,0
1208177,627,-8290,407,-1,1,-1,0
1208182,629,-8289,419,-1,0,-1,0
1208187,625,-8288,427,-1,-1,0,0
1208192,618,-8287,427,-1,-1,0,0
1208197,610,-8286,422,-1,0,0,0
1208202,607,-8288,408,-1,0,0,0
1208207,605,-8290,390,-1,0,-1,0
1208212,598,-8290,373,-1,0,-1,0
1208217,590,-8289,362,-1,0,0,0
1208222,583,-8293,353,-1,0,-1,0
1208227,579,-8295,343,-1,0,0,0
1208232,580,-8291,335,-1,1,-1,0
1208237,578,-8289,321,-1,1,0,0
1208242,583,-8286,313,-1,1,0,0
1208247,591,-8287,306,-1,2,-1,0
1208252,598,-8287,293,-1,2,-1,0
1208257,601,-8287,281,-1,2,-1,0
1208262,599,-8286,274,-1,3,-1,0
1208267,594,-8286,267,-1,3,-1,0
1208272,590,-8284,267,-1,4,-1,0
1208277,586,-8284,271,-1,5,-1,0
1208282,586,-8286,288,-1,6,0,0
1208287,590,-8286,315,-1,6,0,0
1208292,601,-8287,341,-1,5,-1,0
1208297,610,-8284,365,-1,5,0,0
1208302,618,-8283,388,-1,3,-1,0
1208307,621,-8282,402,-1,2,-1,0
1208312,620,-8285,417,0,1,-1,0
1208317,613,-8286,424,0,0,-1,0
1208321,605,-8288,424,0,0,-1,0
1208326,594,-8287,415,0,0,-1,0
1208332,582,-8287,400,0,1,-1,0
1208336,575,-8286,390,-1,1,-1,0
1208342,571,-8285,379,-1,1,-1,0
1208347,573,-8285,374,0,1,-1,0
1208352,571,-8285,372,-1,1,-1,0
1208357,569,-8286,366,-1,0,-1,0
1208362,571,-8289,364,0,0,-1,0
1208366,570,-8289,369,0,1,-1,0
1208372,569,-8288,370,0,1,-1,0
1208376,571,-8284,367,0,1,-1,0
1208382,571,-8282,365,0,1,-1,0
1208387,574,-8285,361,0,1,-1,0
1208391,579,-8286,358,0,1,-1,0
1208396,587,-8288,361,0,1,-1,0
1208402,589,-8289,363,0,0,-1,0
1208407,588,-8287,368,-1,0,-1,0
1208412,585,-8284,374,-1,1,-1,0
1208417,582,-8286,386,-1,2,-1,0
1208422,577,-8286,398,0,3,-1,0
1208427,572,-8285,405,0,4,-1,0
1208431,576,-8286,405,0,4,-1,0
1208437,584,-8286,402,-1,4,-1,0
1208442,585,-8285,401,-1,4,-1,0
1208446,588,-8289,408,-1,4,-1,0
1208452,593,-8289,416,-1,4,-1,0
1208457,604,-8289,421,-1,3,-1,0
1208462,621,-8287,426,-1,3,-1,0
1208467,643,-8287,434,-1,2,-1,0
1208472,662,-8285,443,-1,1,-1,0
1208476,677,-8285,454,-1,0,-1,0
1208481,688,-8281,457,-1,0,-1,0
1208487,692,-8279,457,-1,0,-1,0
1208492,700,-8280,446,-1,0,0,0
1208496,707,-8282,427,-1,1,0,0
1208502,712,-8281,407,-1,1,0,0
1208507,719,-8282,390,-1,1,0,0
1208512,724,-8282,374,-1,1,0,0
1208517,730,-8281,359,-1,1,0,0
1208522,734,-8279,354,-1,1,0,0
1208527,740,-8277,355,-1,1,0,0
1208531,747,-8275,357,-1,0,0,0
1208536,749,-8276,362,-1,-1,0,0
1208541,743,-8277,372,-1,-2,0,0
1208546,740,-8276,380,-1,-2,0,0
1208552,734,-8278,382,-1,-1,0,0
1208556,729,-8279,390,-1,-1,0,0
1208561,726,-8280,398,-1,-1,0,0
1208566,726,-8280,408,-1,-2,0,0
1208571,722,-8279,422,-1,-2,0,0
1208576,720,-8281,429,-1,-3,0,0
1208581,713,-8278,440,-1,-4,0,0
1208587,706,-8275,446,-1,-5,0,0
1208592,698,-8272,452,-1,-5,0,0
1208596,690,-8278,454,-1,-5,0,0
1208601,680,-8281,452,-1,-6,0,0
1208606,667,-8280,450,-1,-6,0,0
1208611,656,-8281,445,-1,-6,0,0
1208617,645,-8282,435,-1,-6,0,0
1208622,634,-8282,430,-1,-6,0,0
1208627,628,-8285,427,-1,-6,0,0
1208631,623,-8286,427,-1,-5,0,0
1208636,615,-8286,431,-1,-5,0,0
1208641,609,-8284,436,-1,-4,0,0
1208646,611,-8282,443,-1,-4,0,0
1208651,613,-8282,442,-1,-4,0,0
1208656,614,-8280,444,-1,-4,0,0
1208661,616,-8278,435,-1,-4,0,0
1208666,620,-8277,425,-1,-4,0,0
1208671,622,-8278,412,-1,-4,0,0
1208676,620,-8280,398,-1,-4,0,0
1208681,615,-8281,379,-1,-4,0,0
1208686,612,-8281,361,-1,-3,0,0
1208691,607,-8283,348,-1,-2,0,0
1208696,602,-8284,332,-1,-2,0,0
1208701,604,-8284,318,-1,-1,0,0
1208706,606,-8282,317,-1,-1,0,0
1208711,608,-8282,311,-1,-1,0,0
1208716,609,-8282,314,-1,-1,0,0
1208721,613,-8285,321,-1,-1,0,0
1208726,615,-8282,331,-1,-1,0,0
1208731,619,-8280,343,-1,-1,0,0
1208736,620,-8280,347,-1,-2,0,0
1208741,617,-8284,349,-1,-2,0,0
1208746,617,-8287,358,-1,-3,0,0
1208751,617,-8287,364,-1,-4,0,0
1208756,613,-8288,364,-1,-5,0,0
1208761,606,-8288,359,-1,-5,0,0
1208766,597,-8291,352,-1,-6,0,0
1208771,588,-8291,340,-1,-6,0,0
1208776,581,-8293,324,-1,-6,0,0
1208781,577,-8295,312,-1,-5,0,0
1208786,571,-8295,296,-1,-5,0,0
1208791,563,-8295,281,0,-4,0,0
1208796,548,-8296,271,0,-3,0,0
1208801,540,-8294,262,0,-2,0,0
1208806,536,-8295,257,0,-1,0,0
1208811,534,-8295,254,0,0,0,0
1208816,534,-8294,256,0,0,0,0
1208821,531,-8293,264,0,0,0,0
1208826,527,-8294,270,0,-1,0,0
1208831,519,-8295,280,0,-1,0,0
1208836,511,-8294,287,0,-1,0,0
1208841,507,-8293,299,0,-1,0,0
1208846,503,-8290,308,0,-1,0,0
1208851,496,-8288,315,0,-1,0,0
1208856,492,-8287,319,0,-2,0,0
1208861,489,-8287,323,0,-2,0,0
1208866,484,-8288,318,0,-2,0,0
1208871,485,-8289,307,0,-2,0,0
1208876,481,-8287,299,0,-2,0,0
1208881,481,-8285,291,0,-2,0,0
1208886,484,-8287,287,0,-2,0,0
1208891,487,-8288,285,0,-2,0,0
1208896,489,-8285,284,0,-2,0,0
1208901,488,-8283,286,0,-2,0,0
1208906,488,-8282,293,0,-1,0,0
1208911,491,-8282,297,0,-1,0,0
1208916,497,-8284,294,0,-1,0,0
1208921,503,-8285,291,0,-1,0,0
1208926,507,-8286,289,0,-1,0,0
1208931,511,-8287,285,0,0,0,0
1208936,517,-8288,284,0,0,0,0
1208941,524,-8287,283,0,0,0,0
1208946,532,-8285,293,0,0,0,0
1208951,540,-8284,305,0,0,0,0
1208956,549,-8282,313,0,0,0,0
1208961,558,-8279,320,0,0,0,0
1208966,566,-8278,332,0,0,0,0
1208971,570,-8279,344,0,0,0,0
1208976,576,-8278,352,0,0,0,0
1208981,580,-8276,358,0,0,0,0
1208986,583,-8275,367,0,0,0,0
1208991,586,-8277,375,0,-1,0,0
1208996,589,-8275,375,0,-1,0,0
1209001,589,-8277,377,0,-1,0,0
1209006,592,-8276,385,0,-1,0,0
1209011,594,-8278,393,0,-1,0,0
1209016,601,-8276,396,0,-1,0,0
1209021,609,-8277,397,0,-1,0,0
1209026,618,-8280,398,0,-2,0,0
1209031,630,-8282,390,0,-2,0,0
1209036,638,-8280,392,0,-3,0,0
1209041,643,-8281,395,0,-2,0,0
1209046,650,-8281,392,0,-2,0,0
1209051,660,-8283,390,0,-2,0,0
1209056,666,-8284,385,0,-3,0,0
1209061,665,-8286,379,0,-4,0,0
1209066,658,-8287,377,0,-4,0,0
1209071,650,-8288,375,0,-4,0,0
1209076,643,-8288,377,0,-2,0,0
1209081,642,-8286,379,0,-1,0,0
1209086,641,-8288,389,0,-1,0,0
1209091,645,-8287,399,0,-1,0,0
1209096,648,-8288,411,0,-2,0,0
1209101,648,-8288,427,0,-2,0,0
1209106,643,-8292,447,0,-3,0,0
1209111,637,-8298,462,0,-3,0,0
1209116,628,-8299,472,0,-4,0,0
1209121,619,-8298,478,0,-5,0,0
1209126,610,-8294,472,0,-6,0,0
1209131,605,-8293,463,0,-6,0,0
1209136,597,-8292,453,0,-6,0,0
1209141,587,-8295,434,0,-6,0,0
1209146,575,-8293,406,0,-6,0,0
1209151,568,-8292,385,0,-5,0,0
1209156,562,-8291,368,0,-4,0,0
1209161,553,-8290,354,0,-3,0,0
1209166,548,-8288,342,0,-2,0,0
1209171,542,-8287,334,0,-2,0,0
1209176,532,-8286,338,0,-3,0,0
1209181,526,-8286,341,0,-3,0,0
1209186,520,-8286,340,0,-4,0,0
1209191,511,-8288,342,0,-4,0,0
1209196,501,-8290,349,0,-4,0,0
1209201,492,-8291,358,0,-4,0,0
1209206,488,-8290,370,0,-3,0,0
1209211,488,-8291,388,0,-3,0,0
1209216,487,-8292,405,0,-3,0,0
1209221,485,-8292,422,0,-3,0,0
1209226,477,-8291,436,0,-3,0,0
1209231,472,-8287,446,0,-2,0,0
1209236,467,-8287,457,0,-2,0,0
1209241,462,-8288,462,0,-1,0,0
1209246,457,-8288,465,0,-1,0,0
1209251,461,-8289,468,0,-1,0,0
1209256,467,-8289,467,0,-1,0,0
1209261,472,-8292,463,0,-1,0,0
1209266,479,-8293,465,0,-1,0,0
1209271,485,-8292,463,0,-1,0,0
1209276,486,-8291,459,0,0,0,0
1209281,491,-8289,453,0,0,0,0
1209286,497,-8290,448,0,0,0,0
1209291,497,-8287,446,0,0,0,0
1209296,496,-8289,443,0,0,0,0
1209301,498,-8291,440,0,0,0,0
1209306,500,-8289,442,0,0,0,0
1209311,503,-8288,447,0,0,0,0
1209316,507,-8286,454,0,0,0,0
1209321,512,-8285,456,0,0,0,0
1209326,515,-8285,458,0,0,0,0
1209331,522,-8285,457,0,0,0,0
1209336,529,-8285,459,0,0,0,0
1209341,535,-8286,459,0,-1,0,0
1209346,533,-8286,464,0,-1,0,0
1209351,534,-8286,466,0,-1,0,0
1209356,533,-8285,466,0,0,0,0
1209361,534,-8283,467,0,0,0,0
1209366,536,-8284,473,0,0,0,0
1209371,537,-8282,474,0,0,0,0
1209376,538,-8281,479,0,0,0,0
1209381,545,-8279,474,0,0,0,0
1209386,548,-8279,467,-1,0,0,0
1209391,545,-8281,457,-1,0,0,0
1209396,539,-8281,452,0,0,0,0
1209401,536,-8283,443,0,0,0,0
1209406,531,-8283,441,-1,0,0,0
1209411,523,-8282,434,-1,0,0,0
1209416,517,-8283,432,-1,0,0,0
1209421,512,-8285,433,-1,0,0,0
1209426,508,-8283,434,-1,-1,0,0
1209431,500,-8282,439,-1,-1,0,0
1209436,493,-8280,443,-1,-1,0,0
1209441,491,-8277,446,-1,0,0,0
1209446,490,-8274,453,-1,0,0,0
1209451,491,-8277,452,-1,0,0,0
1209456,489,-8281,447,-1,-1,0,0
1209461,487,-8284,442,-1,-1,0,0
1209466,486,-8285,439,-1,0,-1,0
1209471,490,-8284,440,-1,0,-1,0
1209476,491,-8287,439,-1,0,-1,0
1209481,492,-8286,439,-1,0,0,0
1209486,496,-8284,436,-1,0,-1,0
1209491,494,-8284,435,-1,0,-1,0
1209496,492,-8284,437,-1,0,-1,0
1209501,494,-8287,435,-1,0,-1,0
1209506,494,-8289,434,-1,0,-1,0
1209511,493,-8290,434,-1,0,-1,0
1209516,496,-8291,438,-1,0,-1,0
1209521,501,-8289,440,-1,1,-1,0
1209526,508,-8290,439,-1,1,-1,0
1209531,516,-8289,441,-1,1,-1,0
1209536,519,-8285,444,-1,0,-1,0
1209541,522,-8282,447,-1,0,-1,0
1209546,522,-8282,451,-1,0,-1,0
1209551,527,-8281,442,-1,1,-1,0
1209556,532,-8278,433,-1,1,-1,0
1209561,536,-8281,429,-1,1,-1,0
1209566,539,-8282,423,-1,1,-1,0
1209571,540,-8281,416,-1,1,-1,0
1209576,540,-8280,410,-1,0,-1,0
1209581,536,-8279,409,-1,0,-1,0
1209586,531,-8279,406,-1,0,-1,0
1209591,531,-8278,403,-1,0,-1,0
1209596,531,-8278,395,-1,0,-1,0
1209601,532,-8280,393,-1,0,-1,0
1209606,533,-8280,401,-1,0,-1,0
1209611,529,-8281,404,-1,0,-1,0
1209616,525,-8283,407,-1,0,-1,0
1209621,526,-8282,411,-1,0,-1,0
1209626,530,-8279,412,-1,1,-1,0
1209631,534,-8277,410,-1,0,-1,0
1209636,539,-8280,408,-1,0,-1,0
1209641,546,-8284,411,-1,0,-1,0
1209646,551,-8283,418,-1,0,-1,0
1209651,552,-8282,420,-1,0,-1,0
1209656,554,-8282,425,-1,0,-1,0
1209661,559,-8284,427,-1,0,-1,0
1209666,561,-8284,422,-1,0,-1,0
1209671,564,-8287,414,-1,0,-1,0
1209676,567,-8288,407,-1,0,-1,0
1209681,568,-8288,404,-1,0,-1,0
1209686,566,-8289,398,-1,0,-1,0
1209691,563,-8288,392,-1,0,-1,0
1209696,558,-8285,389,-1,0,-1,0
1209701,553,-8283,384,-1,0,-1,0
1209706,546,-8285,374,-1,1,-1,0
1209711,546,-8287,373,-1,1,-1,0
1209716,544,-8288,367,-1,2,-1,0
1209721,543,-8289,360,-1,2,-1,0
1209726,542,-8290,355,-1,2,-1,0
1209731,543,-8289,357,-1,2,-1,0
1209736,548,-8289,363,-1,2,-1,0
1209741,552,-8288,369,-1,2,-1,0
1209746,559,-8287,377,-1,2,-1,0
1209751,570,-8286,385,-1,2,-1,0
1209756,579,-8286,396,-1,2,-1,0
1209761,589,-8287,404,-1,2,-1,0
1209766,601,-8287,407,-1,2,-1,0
1209771,607,-8289,410,-1,2,0,0
1209776,611,-8291,409,-1,1,0,0
1209781,616,-8293,409,-1,1,0,0
1209786,621,-8293,407,-1,1,0,0
1209791,624,-8291,398,-1,2,0,0
1209796,627,-8289,388,-1,2,0,0
1209801,629,-8288,380,-1,2,0,0
1209806,628,-8288,365,-1,2,0,0
1209811,623,-8289,356,-1,2,0,0
1209816,615,-8291,348,-1,2,0,0
1209821,606,-8291,337,-1,2,0,0
1209826,600,-8288,327,-1,2,0,0
1209831,593,-8288,323,-1,2,0,0
1209836,588,-8290,320,-1,2,0,0
1209841,582,-8289,319,-1,2,0,0
1209846,580,-8289,322,-1,3,0,0
1209851,580,-8290,321,-1,4,0,0
1209856,584,-8289,325,-1,4,0,0
1209861,591,-8287,328,-1,4,0,0
1209866,595,-8286,331,-1,4,0,0
1209871,594,-8285,332,-1,3,0,0
1209876,591,-8283,328,-1,3,0,0
1209881,588,-8284,318,-1,4,0,0
1209886,586,-8284,310,-1,4,0,0
1209891,590,-8287,299,-1,4,0,0
1209896,595,-8286,290,-1,4,0,0
1209901,600,-8287,288,-1,3,0,0
1209906,603,-8285,286,-1,3,0,0
1209911,602,-8284,284,-1,2,0,0
1209916,597,-8287,283,-1,2,0,0
1209921,586,-8285,284,-1,2,0,0
1209926,571,-8286,284,-1,3,0,0
1209931,550,-8285,291,0,3,0,0
1209936,529,-8285,297,0,3,0,0
1209941,514,-8286,298,0,4,0,0
1209946,504,-8286,305,0,5,0,0
1209951,499,-8288,315,0,5,0,0
1209956,499,-8288,322,0,5,0,0
1209961,505,-8288,328,0,5,0,0
1209966,516,-8290,337,0,5,0,0
1209971,529,-8290,350,0,4,0,0
1209976,536,-8291,360,0,4,0,0
1209981,539,-8290,371,0,3,0,0
1209986,547,-8290,377,0,3,0,0
1209991,553,-8289,378,0,3,0,0
1209996,558,-8289,374,0,3,0,0
1210001,565,-8290,367,0,3,0,0
1210006,572,-8291,358,0,3,0,0
1210011,584,-8289,352,0,3,0,0
1210016,597,-8286,351,0,3,0,0
1210021,611,-8285,350,0,2,0,0
1210026,620,-8284,353,0,2,0,0
1210031,627,-8283,362,0,2,0,0
1210036,634,-8280,363,0,2,0,0
1210041,641,-8279,367,0,2,0,0
1210046,642,-8279,368,0,2,0,0
1210051,644,-8279,367,0,2,0,0
1210056,646,-8283,362,0,2,0,0
1210061,649,-8284,360,0,2,0,0
1210066,656,-8286,353,0,2,0,0
1210071,661,-8285,356,0,2,1,0
1210076,670,-8286,357,0,1,1,0
1210081,682,-8285,356,0,1,1,0
1210086,693,-8284,356,0,1,1,0
1210091,700,-8284,354,0,0,1,0
1210096,706,-8282,349,0,-1,1,0
1210101,712,-8281,343,0,-2,1,0
1210106,715,-8279,340,0,-2,1,0
1210111,714,-8278,335,0,-2,1,0
1210116,714,-8276,328,0,-3,1,0
1210121,712,-8278,322,0,-3,1,0
1210126,709,-8277,316,0,-4,1,0
1210131,703,-8278,313,0,-5,1,0
1210136,696,-8277,320,0,-7,1,0
1210141,684,-8277,328,0,-8,1,0
1210146,670,-8278,339,0,-10,1,0
1210151,650,-8279,344,0,-11,1,0
1210156,627,-8281,350,0,-12,1,0
1210161,603,-8284,354,0,-12,1,0
1210166,578,-8285,353,0,-13,1,0
1210171,551,-8286,344,0,-13,1,0
1210176,522,-8286,338,0,-13,1,0
1210181,489,-8289,339,0,-12,1,0
1210186,463,-8287,339,0,-12,1,0
1210191,441,-8283,335,0,-11,1,0
1210196,421,-8283,335,0,-11,1,0
1210201,406,-8283,338,0,-11,1,0
1210206,394,-8285,335,0,-12,1,0
1210211,378,-8289,331,0,-13,1,0
1210216,351,-8286,329,0,-14,1,0
1210221,323,-8286,331,0,-13,1,0
1210226,305,-8285,329,0,-11,1,0
1210231,294,-8285,322,0,-9,1,0
1210236,284,-8285,312,0,-8,1,0
1210241,278,-8286,304,0,-7,1,0
1210246,274,-8287,298,0,-7,0,0
1210251,268,-8289,289,0,-6,0,0
1210256,260,-8289,288,0,-6,0,0
1210261,256,-8288,299,0,-5,0,0
1210266,255,-8286,312,0,-4,0,0
1210271,258,-8289,326,0,-3,0,0
1210276,268,-8289,338,0,-3,0,0
1210281,280,-8290,351,0,-3,0,0
1210286,296,-8288,368,0,-3,0,0
1210291,309,-8287,388,0,-4,0,0
1210296,317,-8290,404,0,-4,0,0
1210301,322,-8289,418,0,-4,0,0
1210306,325,-8288,428,0,-4,0,0
1210311,331,-8285,430,0,-3,0,0
1210316,341,-8283,439,0,-2,0,0
1210321,348,-8278,441,0,-2,0,0
1210326,353,-8276,446,0,-2,0,0
1210331,356,-8273,449,0,-1,0,0
1210336,362,-8272,452,0,-1,0,0
1210341,372,-8274,453,0,-1,0,0
1210346,384,-8275,453,0,-1,0,0
1210351,393,-8275,448,0,-1,0,0
1210356,401,-8273,444,0,-1,0,0
1210361,410,-8273,432,0,-1,0,0
1210366,416,-8274,420,0,0,0,0
1210371,425,-8275,408,0,0,0,0
1210376,431,-8276,399,0,0,0,0
1210381,434,-8279,395,0,0,0,0
1210386,436,-8280,395,0,0,0,0
1210391,439,-8283,399,0,0,0,0
1210396,445,-8284,410,0,0,0,0
1210401,452,-8286,426,0,0,0,0
1210406,461,-8282,439,0,0,0,0
1210411,470,-8281,456,0,0,0,0
1210416,483,-8284,461,0,-1,0,0
1210421,495,-8285,468,0,-1,0,0
1210426,500,-8284,471,0,-1,0,0
1210431,503,-8285,476,0,-1,0,0
1210436,502,-8288,478,0,-1,0,0
1210441,501,-8287,473,0,-1,0,0
1210446,498,-8284,476,0,-1,0,0
1210451,495,-8285,480,0,-1,0,0
1210456,492,-8284,480,0,-1,0,0
1210461,489,-8284,482,0,-1,0,0
1210466,487,-8282,480,0,-2,0,0
1210471,484,-8283,482,0,-2,0,0
1210476,481,-8282,480,0,-2,0,0
1210481,478,-8281,476,0,-2,0,0
1210486,471,-8283,470,0,-3,0,0
1210491,464,-8286,453,0,-3,0,0
1210496,455,-8289,445,0,-3,0,0
1210501,449,-8288,433,0,-3,0,0
1210506,439,-8289,422,0,-3,0,0
1210511,429,-8290,417,0,-3,0,0
1210516,423,-8291,420,0,-3,0,0
1210521,420,-8289,421,0,-3,0,0
1210526,417,-8290,425,0,-3,0,0
1210531,410,-8291,427,0,-3,0,0
1210536,405,-8291,431,0,-4,0,0
1210541,396,-8292,434,0,-4,0,0
1210546,386,-8292,437,0,-4,0,0
1210551,375,-8292,435,0,-4,0,0
1210556,362,-8293,435,0,-4,0,0
1210561,350,-8294,430,0,-4,0,0
1210566,338,-8291,422,0,-3,0,0
1210571,325,-8290,416,0,-3,0,0
1210576,311,-8290,409,0,-3,-1,0
1210581,296,-8288,397,0,-2,-1,0
1210586,283,-8288,389,0,-1,-1,0
1210591,271,-8290,380,0,0,-1,0
1210596,261,-8290,375,0,0,-1,0
1210601,255,-8290,374,0,0,-1,0
1210606,250,-8291,377,0,0,-1,0
1210611,245,-8290,383,0,0,-1,0
1210616,242,-8288,392,0,0,-1,0
1210621,239,-8286,401,0,0,-1,0
1210626,240,-8286,405,0,0,-1,0
1210631,247,-8287,411,0,1,-1,0
1210636,254,-8285,416,0,1,-1,0
1210641,264,-8287,416,0,1,-1,0
1210646,271,-8289,417,0,1,-1,0
1210651,276,-8292,415,0,1,-1,0
1210656,279,-8293,412,0,1,-1,0
1210661,285,-8295,413,0,2,-1,0
1210666,294,-8295,408,0,2,-2,0
1210671,306,-8294,404,0,2,-2,0
1210676,316,-8293,405,0,1,-2,0
1210681,326,-8290,407,0,1,-2,0
1210686,336,-8290,405,0,1,-2,0
1210691,344,-8291,402,0,2,-2,0
1210696,355,-8290,397,0,3,-2,0
1210701,369,-8289,399,0,3,-2,0
1210706,380,-8289,397,0,3,-2,0
1210711,389,-8290,400,0,3,-2,0
1210716,397,-8286,402,0,2,-2,0
1210721,404,-8286,406,0,2,-2,0
1210726,414,-8287,412,0,2,-2,0
1210731,424,-8285,415,0,3,-2,0
1210736,436,-8281,416,0,3,-2,0
1210741,452,-8280,422,0,3,-2,0
1210746,471,-8279,429,0,3,-2,0
1210751,487,-8280,435,0,2,-2,0
1210756,502,-8281,437,0,1,-2,0
1210761,510,-8282,438,0,0,-2,0
1210766,514,-8283,435,0,0,-2,0
1210771,514,-8283,434,0,0,-2,0
1210776,515,-8281,427,0,1,-2,0
1210781,521,-8278,420,0,1,-2,0
1210786,524,-8277,410,0,1,-2,0
1210791,531,-8276,407,0,1,-2,0
1210796,534,-8279,410,0,1,-2,0
1210801,540,-8281,409,0,1,-2,0
1210806,542,-8283,416,0,1,-2,0
1210811,541,-8282,419,0,0,-1,0
1210816,542,-8282,430,0,0,-1,0
1210821,545,-8282,433,0,1,-2,0
1210826,550,-8283,441,0,1,-1,0
1210831,555,-8283,445,0,0,-1,0
1210836,554,-8285,443,0,0,-1,0
1210841,551,-8286,444,0,0,-1,0
1210846,555,-8287,441,0,0,-1,0
1210851,558,-8286,434,0,0,-1,0
1210856,566,-8288,425,0,0,-1,0
1210861,573,-8290,423,0,-1,-1,0
1210866,579,-8290,420,0,-1,-1,0
1210871,584,-8286,417,0,-1,-1,0
1210876,586,-8284,419,0,-1,-1,0
1210881,588,-8283,415,0,0,-1,0
1210886,591,-8284,409,0,0,-1,0
1210891,588,-8284,406,0,0,-1,0
1210896,587,-8286,408,0,0,-1,0
1210901,585,-8287,409,0,0,-1,0
1210906,585,-8286,408,0,0,-1,0
1210911,586,-8285,405,0,0,-1,0
1210916,590,-8285,402,0,0,-1,0
1210921,592,-8285,399,0,1,-1,0
1210926,590,-8284,396,0,1,-1,0
1210931,590,-8282,393,0,2,-1,0
1210936,595,-8283,394,0,3,-1,0
1210941,604,-8284,398,0,3,-1,0
1210946,613,-8284,402,0,2,-1,0
1210951,613,-8286,412,0,1,-1,0
1210956,611,-8285,425,0,0,-1,0
1210961,613,-8283,436,0,0,-1,0
1210966,619,-8283,449,0,-1,-1,0
1210971,623,-8286,460,0,-1,-1,0
1210976,625,-8284,469,0,-2,-1,0
1210981,624,-8282,472,0,-2,-1,0
1210986,623,-8280,479,0,-2,0,0
1210991,624,-8282,487,0,-2,-1,0
1210996,622,-8283,490,0,-2,-1,0
1211001,623,-8282,494,0,-2,0,0
1211006,623,-8285,503,0,-2,0,0
1211011,623,-8283,514,0,-3,0,0
1211016,625,-8284,527,0,-2,0,0
1211021,630,-8283,537,0,-3,0,0
1211026,635,-8279,543,0,-3,0,0
1211031,636,-8278,548,0,-3,0,0
1211036,638,-8277,553,0,-4,0,0
1211041,636,-8278,546,0,-4,0,0
1211046,634,-8276,536,0,-4,0,0
1211051,629,-8277,525,0,-4,0,0
1211056,626,-8278,516,0,-4,0,0
1211061,629,-8277,511,0,-5,0,0
1211066,629,-8277,505,0,-6,0,0
1211071,622,-8278,504,0,-6,0,0
1211076,618,-8280,506,0,-6,0,0
1211081,612,-8280,509,0,-4,0,0
1211086,608,-8279,517,0,-4,0,0
1211091,602,-8280,523,0,-3,0,0
1211096,596,-8281,530,-1,-3,0,0
1211101,591,-8281,543,-1,-3,0,0
1211106,586,-8281,549,-1,-3,0,0
1211111,585,-8279,561,-1,-3,0,0
1211116,589,-8275,568,-1,-2,0,0
1211121,594,-8274,585,-1,-2,0,0
1211126,601,-8275,601,-1,-1,0,0
1211131,612,-8279,624,-1,-1,0,0
1211136,622,-8283,638,-1,-3,0,0
1211141,624,-8286,659,-1,-4,0,0
1211145,620,-8286,670,-1,-4,0,0
1211151,618,-8284,687,-1,-3,0,0
1211156,624,-8283,708,-1,-2,1,0
1211160,640,-8282,727,-2,-3,1,0
1211166,646,-8283,751,-2,-5,1,0
1211171,650,-8284,777,-2,-7,1,0
1211175,644,-8283,810,-2,-8,1,4
1211181,636,-8282,838,-2,-8,1,4
1211186,629,-8282,868,-2,-8,1,4
1211190,619,-8283,896,-2,-7,1,4
1211196,615,-8283,920,-3,-6,1,4
1211201,616,-8285,947,-3,-6,1,4
1211206,618,-8288,977,-3,-6,1,4
1211210,622,-8288,1011,-3,-7,1,4
1211216,628,-8289,1052,-3,-7,1,4
1211221,639,-8289,1094,-4,-7,1,4
1211225,653,-8288,1139,-4,-7,1,4
1211231,670,-8288,1178,-4,-7,1,4
1211236,693,-8291,1225,-5,-7,1,4
1211240,721,-8288,1274,-5,-8,1,4
1211245,751,-8287,1313,-5,-8,2,4
1211251,783,-8286,1351,-5,-9,2,4
1211256,814,-8285,1371,-6,-11,2,4
1211260,847,-8281,1379,-6,-12,2,4
1211266,879,-8280,1371,-6,-14,2,4
1211270,908,-8275,1343,-6,-17,2,4
1211275,928,-8272,1291,-6,-20,2,4
1211281,937,-8270,1224,-6,-23,2,4
1211285,933,-8272,1155,-7,-26,2,4
1211291,912,-8274,1078,-7,-28,2,4
1211295,885,-8272,1012,-7,-29,3,4
1211301,855,-8270,954,-7,-30,3,4
1211305,830,-8268,906,-7,-30,3,4
1211310,807,-8269,869,-7,-31,3,4
1211316,791,-8266,837,-7,-31,3,4
1211320,777,-8264,814,-7,-31,3,4
1211325,754,-8265,805,-8,-32,3,4
1211330,730,-8263,802,-8,-33,3,4
1211336,695,-8265,800,-8,-34,3,4
1211341,650,-8265,799,-8,-35,3,4
1211345,604,-8267,792,-8,-36,3,4
1211350,557,-8270,783,-8,-37,3,4
1211356,506,-8270,772,-8,-37,3,4
1211361,460,-8270,755,-8,-38,3,4
1211365,420,-8269,732,-8,-37,3,4
1211371,385,-8263,708,-8,-36,3,4
1211375,349,-8261,687,-8,-35,3,4
1211380,316,-8260,665,-9,-33,3,4
1211386,290,-8259,652,-9,-31,3,4
1211390,277,-8257,651,-9,-29,3,4
1211395,279,-8255,659,-9,-29,4,4
1211400,292,-8253,664,-9,-29,4,4
1211405,313,-8252,666,-9,-28,4,4
1211410,334,-8252,662,-9,-28,4,4
1211415,354,-8251,657,-9,-27,4,4
1211421,369,-8251,652,-10,-26,3,4
1211425,374,-8249,643,-10,-25,3,4
1211431,376,-8250,623,-10,-24,4,4
1211435,373,-8249,594,-10,-22,4,4
1211441,368,-8249,554,-10,-21,4,4
1211445,365,-8247,508,-10,-21,4,4
1211450,370,-8246,452,-10,-21,4,4
1211455,372,-8247,401,-10,-22,4,4
1211460,373,-8244,356,-10,-22,4,4
1211465,366,-8243,312,-10,-23,4,4
1211470,350,-8240,277,-10,-24,4,4
1211475,336,-8241,258,-10,-24,4,4
1211480,326,-8237,245,-10,-24,4,4
1211485,319,-8237,235,-10,-25,4,4
1211490,316,-8238,222,-10,-25,4,4
1211495,310,-8237,211,-10,-25,4,4
1211500,302,-8238,201,-10,-25,4,4
1211505,288,-8239,181,-10,-25,4,4
1211510,264,-8241,158,-10,-25,4,4
1211515,234,-8239,131,-10,-25,4,4
1211520,195,-8236,95,-10,-25,4,4
1211525,157,-8238,51,-10,-26,4,4
1211530,121,-8240,7,-10,-26,4,4
1211535,90,-8241,-42,-10,-26,4,4
1211540,68,-8238,-87,-10,-26,4,4
1211545,53,-8236,-125,-10,-25,4,4
1211550,51,-8238,-155,-10,-25,4,4
1211555,52,-8241,-183,-10,-25,4,4
1211560,58,-8240,-205,-10,-26,3,4
1211565,67,-8241,-221,-9,-27,3,4
1211570,75,-8242,-237,-9,-29,3,4
1211575,83,-8242,-258,-9,-30,3,4
1211580,85,-8242,-280,-9,-32,3,4
1211585,81,-8246,-305,-9,-33,3,4
1211590,66,-8250,-330,-9,-34,3,4
1211595,39,-8248,-349,-9,-33,3,4
1211600,7,-8249,-373,-9,-33,3,4
1211605,-25,-8248,-389,-9,-32,3,4
1211610,-56,-8248,-409,-9,-31,3,4
1211615,-86,-8249,-425,-8,-30,3,4
1211620,-107,-8252,-439,-8,-29,3,4
1211625,-116,-8252,-449,-8,-28,3,4
1211630,-121,-8251,-458,-8,-27,3,4
1211635,-113,-8253,-470,-8,-26,3,4
1211640,-100,-8253,-477,-8,-26,3,4
1211645,-87,-8254,-489,-8,-26,3,4
1211650,-76,-8255,-495,-8,-27,3,4
1211655,-69,-8253,-504,-8,-28,3,4
1211660,-55,-8252,-520,-7,-30,3,4
1211665,-43,-8252,-537,-7,-32,3,4
1211670,-39,-8252,-561,-7,-35,2,4
1211675,-40,-8254,-585,-7,-37,2,4
1211680,-51,-8252,-604,-7,-39,2,4
1211685,-72,-8255,-633,-7,-40,2,4
1211690,-104,-8254,-657,-6,-40,2,4
1211695,-134,-8252,-674,-6,-40,2,4
1211700,-168,-8252,-693,-6,-39,2,4
1211705,-197,-8251,-709,-6,-38,2,4
1211710,-228,-8252,-727,-6,-36,2,4
1211715,-255,-8253,-738,-6,-34,2,4
1211720,-273,-8254,-748,-6,-32,2,4
1211725,-286,-8252,-757,-6,-30,2,4
1211730,-296,-8251,-770,-5,-29,2,4
1211735,-303,-8251,-784,-5,-28,1,4
1211740,-311,-8250,-798,-5,-27,1,4
1211745,-316,-8249,-813,-5,-27,1,4
1211750,-322,-8250,-830,-5,-26,1,4
1211755,-332,-8249,-852,-5,-25,1,4
1211760,-341,-8249,-871,-4,-23,1,4
1211765,-344,-8249,-882,-4,-22,1,4
1211770,-348,-8249,-890,-4,-22,1,4
1211775,-341,-8248,-887,-4,-22,1,4
1211780,-324,-8247,-873,-4,-23,1,4
1211785,-300,-8249,-850,-4,-25,1,4
1211790,-270,-8253,-835,-4,-28,1,4
1211795,-237,-8254,-808,-3,-31,0,4
1211800,-211,-8254,-783,-3,-32,0,4
1211805,-191,-8255,-758,-3,-33,0,4
1211810,-184,-8254,-731,-3,-31,0,4
1211815,-196,-8255,-714,-3,-26,0,4
1211820,-222,-8258,-693,-3,-20,0,4
1211825,-271,-8260,-676,-3,-10,0,4
1211830,-336,-8262,-670,-3,3,0,4
1211835,-418,-8265,-670,-4,22,0,4
1211840,-517,-8265,-685,-4,48,0,4
1211845,-632,-8267,-710,-4,80,1,4
1211850,-761,-8269,-745,-5,121,1,4
1211855,-906,-8272,-775,-5,170,1,4
1211860,-1075,-8275,-788,-6,225,0,4
1211865,-1271,-8277,-803,-7,281,0,4
1211870,-1498,-8284,-813,-7,335,0,4
1211875,-1785,-8293,-840,-8,386,-1,4
1211880,-2136,-8300,-891,-8,437,-1,4
1211885,-2512,-8310,-942,-8,492,-1,4
1211890,-2898,-8318,-984,-9,555,-1,4
1211895,-3268,-8330,-988,-10,626,-1,4
1211900,-3624,-8342,-913,-11,708,-1,4
1211905,-3995,-8342,-738,-12,802,-1,4
1211910,-4396,-8365,-404,-13,912,-2,4
1211915,-4875,-8392,66,-15,1041,-2,4
1211920,-5269,-8404,777,-18,1181,-2,4
1211925,-5539,-8403,1861,-20,1315,-3,4
1211930,-5504,-8463,3018,-21,1416,-5,4
1211935,-5273,-8685,4270,-19,1431,-5,4
1211940,-4693,-8965,5449,-18,1431,-6,4
1211945,-3939,-9128,6471,-17,1395,-8,4
1211950,-3070,-9155,7210,-15,1298,-10,4
1211955,-2130,-9073,7644,-12,1167,-10,4
1211960,-1022,-8902,7641,-9,1012,-9,4
1211965,140,-8650,7394,-8,843,-8,4
1211970,1137,-8284,6961,-8,664,-6,4
1211975,1883,-7866,6995,-5,488,-6,4
1211980,2970,-7413,6982,-4,325,-9,4
1211985,3943,-6957,6638,-3,199,-6,4
1211990,4573,-6496,6063,-1,94,-4,4
1211995,4881,-6089,5272,0,-1,-4,4
1212000,4796,-5770,4479,0,-88,-2,4
1212005,4594,-5582,3817,1,-168,-1,4
1212010,4259,-6533,3204,0,-233,1,4
1212015,3754,-7940,2377,0,-267,2,4
1212020,3384,-7273,2677,-2,-256,-1,4
1212025,3053,-7674,2815,-3,-220,-2,4
1212030,2654,-7399,2769,-2,-167,-1,4
1212035,2308,-7538,3066,0,-122,-1,4
1212040,2289,-7635,2899,1,-105,-1,4
1212045,2481,-7749,2953,3,-113,-1,4
1212050,2755,-7817,2643,3,-148,-2,4
1212055,3019,-7879,2607,3,-195,-2,4
1212060,3228,-7940,2631,4,-245,-1,4
1212065,3377,-7964,2512,4,-290,0,4
1212070,3650,-7990,2525,5,-331,0,4
1212075,3916,-8022,2509,5,-369,1,4
1212080,4176,-8026,2476,6,-411,2,4
1212085,4524,-8031,2534,7,-458,2,4
1212090,4812,-8048,2550,7,-512,2,4
1212095,5085,-8047,2604,8,-577,3,4
1212100,5349,-8058,2730,9,-650,3,4
1212105,5497,-8064,2900,10,-725,3,4
1212110,5566,-8055,3172,12,-804,2,4
1212115,5532,-8065,3479,13,-879,1,4
1212120,5254,-8094,3882,14,-945,0,4
1212125,4860,-8097,4245,15,-997,-1,4
1212130,4389,-8102,4592,15,-1028,-2,4
1212135,3724,-8090,5065,15,-1030,-2,4
1212140,2780,-8050,5549,14,-1005,-2,4
1212145,1858,-8035,5827,13,-958,-4,4
1212150,1018,-8012,5885,12,-895,-5,4
1212155,130,-8085,5793,11,-829,-6,4
1212160,-520,-8172,5440,8,-758,-6,4
1212165,-1195,-8137,5096,6,-674,-5,4
1212170,-1696,-8175,4583,4,-584,-4,4
1212175,-2056,-8251,4015,1,-488,-3,4
1212180,-2411,-8295,3471,0,-391,-2,4
1212185,-2636,-8324,2877,-1,-297,-2,4
1212190,-2703,-8294,2322,-2,-206,0,4
1212195,-2835,-8284,1775,-3,-128,1,4
1212200,-2969,-8342,1138,-1,-71,0,4
1212205,-2928,-8449,661,0,-35,0,4
1212210,-2786,-8456,247,0,-11,1,4
1212215,-2726,-8431,54,1,7,2,4
1212220,-2483,-8411,-199,2,16,2,4
1212225,-2160,-8395,-449,2,20,2,4
1212230,-1816,-8375,-588,2,16,1,4
1212235,-1484,-8360,-715,2,7,1,4
1212240,-1189,-8342,-769,1,-4,0,4
1212245,-918,-8327,-736,1,-15,0,4
1212250,-737,-8316,-713,2,-22,0,4
1212255,-589,-8305,-657,2,-29,0,4
1212260,-437,-8294,-550,2,-31,0,4
1212265,-377,-8288,-505,3,-30,0,4
1212270,-327,-8285,-480,3,-30,0,4
1212275,-272,-8278,-450,3,-27,0,4
1212280,-258,-8275,-460,2,-22,0,4
1212285,-236,-8273,-470,2,-18,0,4
1212290,-220,-8267,-465,2,-13,0,4
1212295,-212,-8266,-485,2,-7,0,4
1212300,-186,-8263,-497,2,-3,0,4
1212305,-167,-8260,-505,2,1,0,4
1212310,-136,-8259,-531,2,5,0,4
1212315,-102,-8260,-531,2,10,0,4
1212320,-87,-8260,-534,1,16,0,4
1212325,-70,-8260,-542,1,22,0,4
1212330,-49,-8258,-514,1,27,0,4
1212335,-40,-8256,-495,1,33,0,4
1212340,-32,-8254,-473,1,38,0,4
1212345,-6,-8252,-456,1,42,0,4
1212350,17,-8255,-462,1,47,1,4
1212355,50,-8253,-474,1,51,1,4
1212360,105,-8249,-494,1,54,1,4
1212365,143,-8247,-528,1,55,1,4
1212370,181,-8246,-558,1,55,1,4
1212375,222,-8245,-574,1,52,0,4
1212380,235,-8247,-589,1,49,1,4
1212385,245,-8251,-596,1,45,1,4
1212390,252,-8252,-581,1,41,0,4
1212395,239,-8255,-574,1,38,1,4
1212400,230,-8256,-559,1,35,1,4
1212405,210,-8256,-536,1,34,1,4
1212410,176,-8256,-522,1,33,0,4
1212415,141,-8257,-502,1,33,0,4
1212420,91,-8260,-472,1,34,0,4
1212425,43,-8266,-456,1,35,0,4
1212430,-2,-8267,-435,1,36,0,4
1212435,-49,-8268,-408,0,38,0,4
1212440,-81,-8267,-393,0,39,0,4
1212445,-96,-8269,-375,0,39,0,4
1212450,-107,-8268,-360,0,39,0,4
1212455,-105,-8271,-364,0,38,0,4
1212460,-95,-8269,-360,0,36,0,4
1212465,-76,-8267,-355,0,33,-1,4
1212470,-53,-8264,-356,0,29,-1,4
1212475,-22,-8263,-350,0,23,-1,4
1212480,11,-8260,-346,0,18,-1,4
1212485,47,-8259,-348,0,11,-1,4
1212490,99,-8258,-335,0,5,-1,4
1212495,146,-8260,-335,0,-1,-1,4
1212500,197,-8259,-338,0,-8,-1,4
1212505,241,-8259,-330,0,-14,-1,4
1212510,283,-8259,-339,0,-20,-1,4
1212515,316,-8259,-335,0,-26,-1,4
1212520,339,-8256,-331,0,-31,-1,4
1212525,356,-8253,-345,0,-35,-1,4
1212530,360,-8254,-350,0,-39,-1,4
1212535,358,-8254,-358,0,-41,-1,4
1212540,349,-8254,-373,0,-41,-1,4
1212545,326,-8254,-380,0,-41,-1,4
1212550,303,-8256,-393,0,-39,-1,4
1212555,273,-8256,-410,0,-36,-1,4
1212560,233,-8258,-426,0,-31,-1,4
1212565,200,-8262,-449,0,-26,-1,4
1212570,163,-8263,-480,0,-20,-1,4
1212575,136,-8263,-512,0,-13,-1,4
1212580,122,-8265,-544,0,-6,-1,4
1212585,117,-8266,-575,0,1,-1,4
1212590,135,-8266,-601,0,6,-1,4
1212595,159,-8265,-628,0,11,-1,4
1212600,186,-8262,-634,0,13,-1,4
1212605,230,-8257,-631,0,14,-1,4
1212610,272,-8255,-624,0,13,-1,4
1212615,310,-8257,-615,0,10,-1,4
1212620,350,-8255,-604,0,6,-1,4
1212625,385,-8255,-596,0,3,-1,4
1212630,411,-8259,-594,0,-1,-1,4
1212635,432,-8260,-596,0,-5,-1,4
1212640,439,-8261,-599,0,-7,-1,4
1212645,435,-8260,-603,0,-9,-1,4
1212650,426,-8259,-614,0,-10,0,4
1212655,405,-8259,-625,0,-10,-1,4
1212660,376,-8258,-638,0,-10,0,4
1212665,349,-8258,-648,0,-8,0,4
1212670,319,-8261,-663,0,-5,0,4
1212675,288,-8264,-681,0,-1,0,4
1212680,258,-8267,-694,0,3,0,4
1212685,233,-8267,-706,0,7,0,4
1212690,216,-8266,-714,0,11,0,4
1212695,207,-8265,-718,0,14,0,4
1212700,207,-8263,-719,0,16,0,4
1212705,215,-8262,-715,0,17,0,4
1212710,228,-8264,-709,0,17,0,4
1212715,240,-8261,-705,0,17,0,4
1212720,254,-8259,-695,0,16,0,4
1212725,266,-8262,-683,0,15,0,4
1212730,275,-8263,-673,0,14,0,4
1212735,284,-8262,-660,0,13,0,4
1212740,290,-8260,-645,0,11,0,4
1212745,296,-8260,-628,1,9,0,4
1212750,301,-8263,-605,1,7,0,4
1212755,312,-8262,-584,1,4,0,4
1212760,323,-8262,-559,1,1,0,4
1212765,332,-8262,-536,1,-2,0,4
1212770,341,-8264,-518,1,-5,0,4
1212775,342,-8265,-498,1,-8,0,4
1212780,348,-8262,-480,1,-10,0,4
1212785,349,-8259,-476,1,-12,0,4
1212790,346,-8258,-469,1,-14,0,4
1212795,342,-8259,-463,1,-14,0,4
1212800,336,-8260,-465,1,-14,0,4
1212805,326,-8262,-462,1,-14,0,4
1212810,318,-8262,-471,1,-14,0,4
1212815,309,-8259,-485,1,-13,0,4
1212820,297,-8261,-493,1,-12,0,4
1212825,285,-8260,-511,1,-11,0,4
1212830,269,-8259,-532,1,-9,0,4
1212835,257,-8262,-549,1,-7,0,4
1212840,243,-8261,-568,1,-5,0,4
1212845,224,-8260,-581,1,-4,0,4
1212850,206,-8261,-585,1,-2,0,4
1212855,191,-8264,-587,1,0,0,4
1212860,175,-8264,-583,1,2,0,4
1212865,162,-8263,-574,0,4,0,4
1212870,157,-8265,-565,0,6,0,4
1212875,152,-8266,-554,0,8,0,4
1212880,148,-8267,-542,0,8,0,4
1212885,148,-8268,-525,0,8,0,4
1212890,147,-8269,-498,0,8,0,4
1212895,153,-8269,-484,0,7,0,4
1212900,156,-8266,-466,0,6,0,4
1212905,157,-8264,-450,0,5,0,4
1212910,154,-8263,-446,0,4,0,4
1212915,140,-8265,-450,0,4,0,4
1212920,130,-8266,-452,0,4,0,4
1212925,111,-8269,-453,0,5,0,4
1212930,87,-8268,-450,0,6,0,4
1212935,66,-8267,-442,0,7,0,4
1212940,44,-8266,-439,0,9,0,4
1212945,25,-8265,-438,0,12,0,4
1212950,12,-8266,-441,0,14,0,4
1212955,3,-8269,-444,0,17,0,4
1212960,4,-8271,-446,0,18,0,4
1212965,15,-8270,-446,0,19,-1,4
1212970,26,-8270,-450,0,20,-1,4
1212975,44,-8270,-448,0,20,-1,4
1212980,64,-8270,-437,0,19,-1,4
1212985,86,-8270,-421,0,17,-1,4
1212990,113,-8269,-396,0,14,-1,4
1212995,139,-8265,-373,0,11,-1,4
1213000,172,-8263,-346,0,8,-1,4
1213005,200,-8264,-327,0,4,-1,4
1213010,222,-8264,-306,0,1,-1,4
1213015,236,-8264,-294,0,-1,-1,4
1213020,248,-8262,-284,0,-3,-1,4
1213025,249,-8264,-285,0,-5,-1,4
1213030,242,-8263,-288,0,-5,-1,4
1213035,230,-8264,-306,0,-5,-1,4
1213040,209,-8262,-319,0,-4,-1,4
1213045,184,-8263,-336,-1,-4,-1,4
1213050,155,-8264,-358,-1,-3,-1,4
1213055,126,-8264,-377,-1,-2,-1,4
1213060,102,-8266,-387,-1,-1,-1,4
1213065,85,-8268,-393,-1,0,-1,4
1213070,71,-8269,-398,-1,1,-1,4
1213075,67,-8271,-398,-1,2,-1,4
1213080,71,-8272,-398,-1,3,-1,4
1213085,82,-8273,-390,-1,4,-1,4
1213090,96,-8277,-383,-1,5,-1,4
1213095,111,-8273,-377,-1,5,-1,4
1213100,129,-8269,-380,-1,6,-1,4
1213105,147,-8266,-390,-1,6,-1,4
1213110,165,-8265,-405,-1,7,-2,4
1213115,179,-8267,-431,-1,7,-2,4
1213120,190,-8269,-456,-1,7,-1,4
1213125,200,-8269,-480,-1,6,-1,4
1213130,211,-8270,-509,-1,6,-1,4
1213135,221,-8270,-529,-1,5,-1,4
1213140,232,-8269,-547,-1,4,-1,4
1213145,246,-8268,-562,-1,3,-1,4
1213150,258,-8269,-576,-1,3,-1,4
1213155,268,-8270,-581,-1,2,-1,4
1213160,274,-8267,-587,-1,3,-1,4
1213165,276,-8267,-590,-1,3,-1,4
1213170,277,-8268,-591,-1,4,-2,4
1213175,273,-8269,-600,-1,5,-1,0
1213180,270,-8269,-615,-1,6,-1,0
1213185,263,-8267,-635,-1,7,-1,0
1213190,256,-8262,-657,-1,8,-1,0
1213195,259,-8262,-681,-1,9,-1,0
1213200,256,-8262,-709,0,9,-1,0
1213205,251,-8264,-737,0,10,-1,0
1213210,250,-8264,-759,0,10,-1,0
1213215,250,-8266,-776,0,10,-1,0
1213220,256,-8265,-789,0,9,-1,0
1213225,265,-8263,-797,0,9,-1,0
1213230,273,-8262,-797,0,8,-1,0
1213235,287,-8260,-784,0,7,-1,0
1213240,305,-8259,-770,0,5,-1,0
1213245,319,-8260,-749,0,3,-1,0
1213250,335,-8261,-725,0,1,-1,0
1213255,348,-8261,-700,0,-2,-1,0
1213260,359,-8261,-663,0,-4,-1,0
1213265,374,-8261,-633,0,-6,-1,0
1213270,381,-8260,-611,1,-7,-1,0
1213275,383,-8260,-595,1,-7,-1,0
1213280,387,-8258,-594,1,-8,-1,0
1213285,387,-8261,-599,1,-8,-1,0
1213290,385,-8263,-609,1,-7,-1,0
1213295,381,-8264,-623,1,-6,-1,0
1213300,369,-8266,-640,1,-4,-1,0
1213305,354,-8265,-649,1,-1,-1,0
1213310,335,-8264,-660,1,1,-1,0
1213315,314,-8264,-669,1,4,-1,0
1213320,298,-8263,-675,1,6,-1,0
1213325,288,-8261,-675,1,8,-1,0
1213330,280,-8261,-669,1,10,-1,0
1213335,283,-8262,-658,1,12,-1,0
1213340,295,-8262,-640,1,14,-1,0
1213345,308,-8262,-614,1,15,-1,0
1213350,330,-8261,-595,1,16,-1,0
1213355,359,-8262,-572,1,16,-1,0
1213360,393,-8263,-551,1,14,-1,0
1213365,431,-8265,-525,1,11,-1,0
1213370,469,-8264,-502,1,8,-1,0
1213375,506,-8268,-488,1,4,-1,0
1213380,540,-8268,-476,1,1,-1,0
1213385,574,-8267,-471,1,-2,-1,0
1213390,601,-8268,-477,1,-4,0,0
1213395,619,-8269,-485,1,-6,0,0
1213400,624,-8269,-500,1,-6,0,0
1213405,623,-8269,-515,1,-5,0,0
1213410,618,-8268,-532,1,-4,0,0
1213415,608,-8268,-547,1,-1,0,0
1213420,600,-8268,-557,1,1,0,0
1213425,598,-8267,-568,1,4,0,0
1213430,601,-8265,-579,1,6,0,0
1213435,606,-8263,-572,1,8,1,0
1213440,619,-8263,-564,1,9,1,0
1213445,631,-8267,-551,1,9,1,0
1213450,644,-8266,-535,1,9,1,0
1213455,654,-8265,-517,1,7,1,0
1213460,665,-8263,-495,1,5,1,0
1213465,673,-8262,-472,1,2,1,0
1213470,675,-8261,-454,1,-1,1,0
1213475,667,-8262,-434,1,-4,1,0
1213480,646,-8261,-410,1,-8,1,0
1213485,618,-8260,-390,1,-10,1,0
1213490,583,-8261,-376,1,-12,1,0
1213495,541,-8262,-358,1,-13,1,0
1213500,496,-8264,-339,1,-14,1,0
1213505,449,-8267,-322,1,-16,1,0
1213510,403,-8267,-309,1,-17,1,0
1213515,358,-8269,-300,1,-17,1,0
1213520,316,-8272,-290,1,-18,1,0
1213525,276,-8274,-287,1,-18,1,0
1213530,237,-8275,-282,1,-18,1,0
1213535,196,-8276,-276,0,-18,1,0
1213540,153,-8277,-267,0,-17,1,0
1213545,110,-8277,-253,0,-17,1,0
1213550,71,-8277,-244,0,-15,1,0
1213555,30,-8277,-237,0,-14,0,0
1213560,-11,-8274,-235,0,-12,0,0
1213565,-45,-8273,-237,0,-9,0,0
1213570,-75,-8272,-235,0,-8,0,0
1213575,-101,-8274,-238,0,-6,0,0
1213580,-119,-8276,-246,0,-5,0,0
1213585,-136,-8277,-258,0,-5,0,0
1213590,-146,-8274,-266,0,-5,0,0
1213595,-146,-8274,-280,0,-5,0,0
1213600,-141,-8275,-301,0,-6,0,0
1213605,-130,-8277,-325,0,-5,-1,0
1213610,-111,-8278,-349,0,-4,-1,0
1213615,-89,-8277,-370,0,-3,-1,0
1213620,-65,-8275,-387,0,-2,-1,0
1213625,-40,-8275,-403,0,0,-1,0
1213630,-17,-8276,-413,-1,2,-1,0
1213635,8,-8275,-411,-1,4,-1,0
1213640,31,-8274,-396,-1,6,-1,0
1213645,56,-8273,-381,-1,8,-1,0
1213650,81,-8274,-360,-1,9,-1,0
1213655,104,-8274,-330,-1,11,-1,0
1213660,125,-8278,-311,-1,12,-1,0
1213665,146,-8277,-292,-1,12,-1,0
1213670,164,-8278,-276,-1,13,-1,0
1213675,180,-8279,-267,-1,13,-1,0
1213680,187,-8280,-264,-1,13,-1,0
1213685,191,-8281,-263,-1,13,-1,0
1213690,196,-8283,-273,-1,12,-1,0
1213695,197,-8282,-283,-1,11,-1,0
1213700,197,-8280,-301,-1,9,-1,0
1213705,199,-8281,-320,-1,8,-1,0
1213710,202,-8279,-346,-1,7,-1,0
1213715,207,-8276,-368,-1,5,-1,0
1213720,213,-8277,-391,-1,4,-1,0
1213725,220,-8276,-408,-1,4,-1,0
1213730,223,-8278,-417,-1,3,-1,0
1213735,231,-8277,-432,-1,3,-1,0
1213740,241,-8273,-444,-1,4,-1,0
1213745,251,-8270,-455,-1,4,-1,0
1213750,259,-8270,-468,-1,5,-1,0
1213755,265,-8267,-474,-1,6,-1,0
1213759,272,-8268,-480,-1,7,-1,0
1213765,281,-8265,-484,-1,8,-1,0
1213770,289,-8264,-486,-1,8,-1,0
1213775,299,-8266,-497,-1,9,-1,0
1213780,309,-8268,-509,-1,9,-1,0
1213785,319,-8268,-521,-1,9,-1,0
1213790,330,-8267,-538,-1,9,-1,0
1213795,341,-8266,-549,-1,9,-1,0
1213800,345,-8268,-558,-1,9,-1,0
1213804,347,-8267,-572,-1,8,-1,0
1213810,346,-8266,-585,-1,8,-1,0
1213815,339,-8266,-587,-1,7,-1,0
1213819,332,-8262,-585,-1,7,-1,0
1213825,321,-8263,-575,-1,6,-1,0
1213830,312,-8262,-566,-1,5,-1,0
1213835,301,-8263,-561,-1,5,-1,0
1213840,291,-8265,-546,-1,4,-1,0
1213845,282,-8268,-542,-1,5,-1,0
1213850,277,-8268,-534,-1,5,-1,0
1213855,274,-8265,-523,-1,5,-1,0
1213860,272,-8262,-517,-1,6,-1,0
1213864,272,-8260,-511,-1,6,-1,0
1213870,273,-8259,-505,-1,6,-1,0
1213875,276,-8260,-502,-1,7,-1,0
1213880,280,-8259,-504,-1,7,-1,0
1213885,284,-8260,-513,0,8,-1,0
1213890,292,-8261,-518,0,8,-1,0
1213894,299,-8263,-525,0,8,-1,0
1213900,307,-8265,-535,0,8,-1,0
1213905,316,-8266,-547,0,9,-1,0
1213910,329,-8266,-548,0,10,-1,0
1213915,338,-8265,-550,0,11,-1,0
1213920,348,-8264,-548,0,12,-1,0
1213924,360,-8265,-545,0,13,-1,0
1213930,375,-8266,-552,0,14,-1,0
1213935,395,-8264,-550,0,13,-1,0
1213940,416,-8265,-548,0,12,-1,0
1213945,438,-8265,-544,0,10,-1,0
1213950,456,-8265,-541,0,8,-1,0
1213955,470,-8266,-545,0,5,-1,0
1213959,483,-8266,-549,0,1,-1,0
1213964,494,-8264,-547,0,-2,-1,0
1213969,498,-8260,-548,0,-5,-1,0
1213975,492,-8262,-549,0,-7,-1,0
1213979,485,-8265,-542,0,-8,-1,0
1213984,475,-8268,-533,0,-9,-1,0
1213989,458,-8265,-529,0,-8,-1,0
1213994,440,-8268,-520,0,-8,-1,0
1213999,419,-8270,-515,0,-6,-1,0
1214004,403,-8273,-505,0,-5,-1,0
1214010,387,-8272,-499,0,-3,-1,0
1214015,373,-8272,-495,0,-1,-1,0
1214020,362,-8271,-488,0,1,0,0
1214025,363,-8269,-488,0,3,-1,0
1214029,368,-8267,-490,0,4,-1,0
1214035,376,-8270,-488,0,4,0,0
1214039,388,-8270,-480,0,3,-1,0
1214045,400,-8271,-475,0,2,0,0
1214049,414,-8270,-474,0,0,0,0
1214054,421,-8272,-477,0,-2,-1,0
1214060,426,-8272,-477,0,-4,-1,0
1214064,420,-8272,-480,0,-4,-1,0
1214070,413,-8271,-482,0,-5,0,0
1214074,405,-8268,-491,0,-4,0,0
1214079,397,-8269,-501,0,-3,0,0
1214085,387,-8270,-501,0,-2,0,0
1214089,376,-8272,-503,0,-1,0,0
1214094,364,-8270,-496,0,-1,0,0
1214099,351,-8271,-483,0,-1,0,0
1214104,338,-8271,-468,0,0,0,0
1214109,326,-8269,-458,0,0,0,0
1214114,315,-8269,-446,0,1,0,0
1214120,310,-8268,-440,0,3,0,0
1214125,307,-8268,-433,0,4,0,0
1214130,306,-8268,-430,0,4,0,0
1214134,303,-8264,-426,0,5,-1,0
1214139,302,-8265,-421,0,5,-1,0
1214144,298,-8268,-419,0,4,-1,0
1214149,297,-8269,-411,0,3,-1,0
1214154,295,-8269,-406,0,2,0,0
1214159,298,-8270,-405,0,0,-1,0
1214164,301,-8271,-409,0,-1,-1,0
1214169,298,-8273,-418,0,-2,-1,0
1214174,294,-8273,-422,0,-3,-1,0
1214179,290,-8273,-427,0,-3,-1,0
1214184,281,-8273,-432,0,-3,-1,0
1214189,275,-8275,-438,0,-2,-1,0
1214194,269,-8275,-445,0,-1,-1,0
1214199,263,-8274,-449,0,0,-1,0
1214204,260,-8272,-446,0,2,-1,0
1214209,267,-8273,-444,0,2,-1,0
1214214,278,-8275,-441,0,3,-1,0
1214219,296,-8274,-429,0,3,-1,0
1214224,322,-8274,-414,0,2,-1,0
1214229,349,-8272,-398,0,2,-1,0
1214234,370,-8274,-385,0,1,-1,0
1214239,390,-8275,-370,0,-1,-1,0
1214244,406,-8272,-363,0,-2,-1,0
1214249,414,-8268,-363,0,-3,-1,0
1214254,416,-8269,-369,0,-4,-1,0
1214259,414,-8268,-378,0,-4,-1,0
1214264,408,-8269,-393,0,-5,-1,0
1214269,399,-8274,-404,0,-5,-1,0
1214274,390,-8273,-411,0,-5,-1,0
1214279,382,-8274,-417,0,-4,-1,0
1214284,372,-8275,-424,0,-4,-1,0
1214289,365,-8275,-434,0,-4,-1,0
1214294,362,-8278,-442,0,-3,0,0
1214299,364,-8279,-447,0,-3,0,0
1214304,370,-8279,-450,0,-3,0,0
1214309,399,-8274,-470,0,-4,0,0
1214314,467,-8270,-516,0,-7,0,0
1214319,567,-8265,-591,1,-13,0,0
1214324,689,-8262,-678,1,-22,0,0
1214329,784,-8263,-753,1,-28,1,0
1214334,839,-8262,-789,1,-30,1,0
1214339,843,-8266,-789,0,-25,0,0
1214344,733,-8261,-772,0,-16,0,0
1214349,533,-8260,-810,0,-5,-2,0
1214354,417,-8269,-766,1,0,-2,0
1214359,198,-8279,-660,1,-2,-1,0
1214364,-70,-8287,-649,1,-5,0,0
1214369,-211,-8289,-643,1,-3,0,0
1214374,-230,-8288,-620,1,1,0,0
1214379,-147,-8286,-656,2,3,1,0
1214384,-16,-8281,-696,2,1,0,0
1214389,170,-8276,-716,2,-3,0,0
1214394,349,-8274,-754,2,-8,-1,0
1214399,482,-8272,-761,2,-15,-1,0
1214404,593,-8267,-731,2,-22,-1,0
1214409,656,-8264,-713,2,-27,-1,0
1214414,682,-8264,-687,2,-30,0,0
1214419,703,-8262,-646,2,-31,0,0
1214424,706,-8265,-611,2,-29,0,0
1214429,713,-8268,-583,2,-25,0,0
1214434,731,-8269,-544,2,-20,1,0
1214439,752,-8269,-518,2,-15,1,0
1214444,789,-8268,-487,2,-12,1,0
1214449,825,-8260,-449,2,-10,1,0
1214454,854,-8255,-441,2,-9,1,0
1214459,873,-8251,-433,2,-10,1,0
1214464,867,-8252,-422,2,-10,1,0
1214469,831,-8254,-425,2,-9,1,0
1214474,778,-8257,-420,2,-7,2,0
1214479,692,-8260,-424,2,-3,2,0
1214484,585,-8262,-435,2,2,2,0
1214489,481,-8265,-441,2,9,2,0
1214494,384,-8272,-454,2,15,2,0
1214499,307,-8277,-483,2,19,2,0
1214504,255,-8278,-508,2,23,2,0
1214509,217,-8277,-536,2,24,2,0
1214514,193,-8275,-558,2,25,2,0
1214519,175,-8275,-566,2,23,2,0
1214524,157,-8276,-569,2,22,2,0
1214529,124,-8276,-559,2,21,2,0
1214534,85,-8275,-533,2,21,2,0
1214539,58,-8279,-504,2,21,2,0
1214544,26,-8278,-468,2,22,1,0
1214549,0,-8280,-430,2,23,1,0
1214554,-18,-8278,-399,2,23,1,0
1214559,-25,-8279,-371,2,23,1,0
1214564,-15,-8284,-352,2,24,1,0
1214569,4,-8286,-341,2,23,1,0
1214574,31,-8288,-323,2,22,1,0
1214579,61,-8289,-312,2,21,1,0
1214584,90,-8290,-305,2,19,1,0
1214589,111,-8290,-302,2,15,1,0
1214594,127,-8291,-302,2,12,1,0
1214599,136,-8289,-294,2,9,1,0
1214604,144,-8286,-281,2,5,1,0
1214609,148,-8282,-262,2,2,1,0
1214614,147,-8279,-244,2,-1,1,0
1214619,147,-8280,-225,2,-3,0,0
1214624,151,-8282,-216,2,-5,0,0
1214629,150,-8282,-208,2,-6,0,0
1214634,151,-8285,-203,2,-8,0,0
1214639,151,-8285,-206,2,-9,0,0
1214644,145,-8284,-204,2,-10,0,0
1214649,136,-8283,-202,2,-11,0,0
1214654,122,-8281,-197,2,-12,0,0
1214659,100,-8280,-199,2,-12,0,0
1214664,82,-8282,-199,2,-12,0,0
1214669,67,-8282,-198,2,-12,0,0
1214674,58,-8283,-206,2,-11,0,0
1214679,56,-8285,-215,2,-10,0,0
1214684,62,-8285,-224,2,-9,0,0
1214689,75,-8288,-241,2,-9,0,0
1214694,90,-8287,-257,2,-9,0,0
1214699,103,-8285,-273,2,-8,0,0
1214704,115,-8282,-291,2,-8,0,0
1214709,122,-8281,-297,2,-7,0,0
1214714,131,-8284,-299,2,-6,-1,0
1214719,141,-8285,-291,2,-5,-1,0
1214724,148,-8284,-280,2,-3,-1,0
1214729,161,-8283,-267,2,-1,0,0
1214734,183,-8282,-253,2,1,0,0
1214739,211,-8282,-232,2,2,0,0
1214744,244,-8279,-210,2,3,0,0
1214749,277,-8278,-186,1,4,0,0
1214754,307,-8276,-163,1,4,0,0
1214759,335,-8276,-141,1,4,0,0
1214764,359,-8278,-122,1,3,0,0
1214769,379,-8280,-102,1,2,0,0
1214774,397,-8280,-88,1,0,0,0
1214779,413,-8279,-75,1,-1,0,0
1214784,428,-8279,-68,1,-2,0,0
1214789,439,-8278,-66,1,-3,0,0
1214794,452,-8276,-66,1,-3,0,0
1214799,465,-8278,-62,1,-3,0,0
1214804,473,-8279,-58,1,-3,0,0
1214809,474,-8280,-52,1,-4,0,0
1214814,469,-8276,-41,1,-5,0,0
1214819,455,-8274,-26,1,-5,0,0
1214824,433,-8275,-12,1,-6,0,0
1214829,403,-8277,-9,1,-5,0,0
1214834,367,-8279,-7,1,-5,0,0
1214839,332,-8282,-6,1,-5,0,0
1214844,301,-8284,-8,1,-5,1,0
1214849,273,-8286,-16,1,-5,1,0
1214854,256,-8285,-29,1,-6,0,0
1214859,242,-8280,-51,1,-6,0,0
1214864,235,-8284,-72,1,-6,0,0
1214869,231,-8285,-105,0,-6,0,0
1214874,224,-8285,-127,0,-6,0,0
1214879,217,-8287,-149,0,-6,0,0
1214884,205,-8288,-167,0,-5,0,0
1214889,183,-8288,-182,0,-5,0,0
1214894,158,-8289,-197,0,-5,0,0
1214899,128,-8289,-198,0,-4,0,0
1214904,99,-8288,-191,0,-3,0,0
1214909,74,-8287,-187,0,-2,0,0
1214914,49,-8287,-179,0,-1,0,0
1214919,21,-8288,-165,0,0,0,0
1214924,-1,-8287,-158,0,1,0,0
1214929,-21,-8288,-146,0,1,0,0
1214934,-32,-8288,-127,0,2,0,0
1214939,-31,-8288,-108,0,1,0,0
1214944,-22,-8284,-87,0,1,0,0
1214949,-13,-8282,-62,0,1,0,0
1214954,3,-8282,-44,0,1,-1,0
1214959,23,-8283,-32,0,1,-1,0
1214964,43,-8286,-32,0,0,-1,0
1214969,60,-8289,-54,0,-1,-1,0
1214974,73,-8288,-88,0,-3,-1,0
1214979,78,-8286,-128,0,-3,-1,0
1214984,74,-8283,-166,0,-3,-1,0
1214989,63,-8282,-204,0,-1,-1,0
1214994,50,-8281,-227,0,1,-1,0
1214999,35,-8282,-244,0,3,-1,0
1215004,19,-8281,-246,0,4,-1,0
1215009,6,-8281,-245,0,5,-1,0
1215014,-7,-8284,-241,0,6,-1,0
1215019,-12,-8285,-231,0,7,-1,0
1215024,-13,-8283,-224,0,8,-1,0
1215029,-12,-8283,-219,0,8,-1,0
1215034,2,-8285,-221,0,8,-1,0
1215039,18,-8284,-226,0,7,-1,0
1215044,41,-8287,-235,0,7,-1,0
1215049,75,-8288,-247,0,6,-1,0
1215054,111,-8287,-248,0,5,-1,0
1215059,155,-8289,-243,0,4,-2,0
1215064,198,-8288,-230,0,3,-1,0
1215069,234,-8285,-214,0,2,-1,0
1215074,261,-8282,-200,0,0,-2,0
1215079,279,-8280,-190,0,-1,-2,0
1215084,285,-8280,-187,0,-3,-2,0
1215089,283,-8280,-195,0,-3,-2,0
1215094,275,-8281,-210,0,-4,-2,0
1215099,264,-8287,-228,0,-3,-1,0
1215104,255,-8290,-251,1,-3,-1,0
1215109,243,-8289,-273,1,-3,-2,0
1215114,230,-8289,-292,0,-4,-2,0
1215119,215,-8287,-296,0,-3,-2,0
1215124,198,-8284,-306,1,-3,-2,0
1215129,181,-8284,-311,1,-2,-2,0
1215134,166,-8284,-305,1,-2,-2,0
1215139,153,-8285,-293,1,-2,-2,0
1215144,146,-8284,-278,1,-2,-2,0
1215149,154,-8280,-262,1,-2,-2,0
1215154,178,-8277,-243,1,-2,-1,0
1215159,211,-8272,-228,1,-2,-1,0
1215164,250,-8271,-215,1,-3,-2,0
1215169,292,-8272,-200,1,-3,-2,0
1215174,325,-8271,-186,1,-4,-2,0
1215179,345,-8274,-178,1,-5,-2,0
1215184,353,-8275,-168,1,-6,-2,0
1215189,344,-8277,-160,1,-7,-2,0
1215194,326,-8277,-162,1,-7,-2,0
1215199,300,-8280,-162,1,-8,-2,0
1215204,270,-8282,-159,1,-8,-2,0
1215209,241,-8285,-159,1,-7,-2,0
1215214,220,-8284,-151,1,-6,-2,0
1215219,206,-8287,-139,1,-5,-2,0
1215224,198,-8287,-127,1,-3,-2,0
1215229,199,-8288,-116,1,-2,-2,0
1215234,202,-8287,-109,1,-2,-2,0
1215239,201,-8286,-110,1,-1,-2,0
1215244,197,-8286,-110,1,-1,-2,0
1215249,183,-8286,-111,0,-1,-2,0
1215254,159,-8287,-113,0,-1,-2,0
1215259,126,-8289,-114,0,0,-2,0
1215264,94,-8293,-107,0,0,-2,0
1215269,64,-8293,-88,0,1,-2,0
1215274,36,-8296,-69,0,2,-2,0
1215279,19,-8295,-38,0,3,-2,0
1215284,10,-8296,6,0,4,-2,0
1215289,-1,-8295,51,0,5,-2,0
1215294,-10,-8294,98,0,5,-3,0
1215299,-19,-8294,141,0,7,-3,0
1215304,-31,-8297,181,-1,8,-3,0
1215309,-42,-8299,212,-1,9,-3,0
1215314,-53,-8298,235,-1,11,-3,0
1215319,-61,-8296,250,-1,13,-3,0
1215324,-57,-8297,266,-1,15,-3,0
1215329,-56,-8297,274,-1,16,-3,0
1215334,-46,-8297,266,-1,18,-3,0
1215339,-16,-8295,268,-2,19,-3,0
1215344,25,-8295,282,-2,18,-3,0
1215349,64,-8297,290,-2,14,-3,0
1215354,96,-8296,284,-2,10,-4,0
1215359,149,-8289,278,-2,5,-4,0
1215364,216,-8286,247,-1,-4,-4,0
1215369,246,-8284,202,-1,-12,-4,0
1215374,275,-8284,147,-2,-17,-4,0
1215379,302,-8284,90,-2,-19,-4,0
1215384,310,-8286,58,-2,-19,-4,0
1215389,305,-8286,26,-2,-17,-4,0
1215394,287,-8283,-4,-2,-16,-4,0
1215399,261,-8285,-24,-2,-14,-4,0
1215404,242,-8287,-59,-2,-13,-4,0
1215409,237,-8286,-95,-2,-11,-4,0
1215414,251,-8286,-131,-2,-8,-4,0
1215419,278,-8286,-174,-2,-6,-4,0
1215424,315,-8286,-209,-2,-4,-4,0
1215429,359,-8284,-237,-2,-3,-4,0
1215434,396,-8284,-263,-2,-2,-4,0
1215439,427,-8284,-271,-2,-2,-4,0
1215444,453,-8283,-272,-2,-2,-4,0
1215449,474,-8280,-265,-2,-2,-4,0
1215454,490,-8281,-259,-2,-1,-3,0
1215459,509,-8279,-260,-2,-1,-3,0
1215464,526,-8278,-262,-2,0,-3,0
1215469,546,-8277,-264,-2,0,-3,0
1215474,559,-8278,-269,-2,1,-3,0
1215479,567,-8279,-271,-2,1,-3,0
1215484,580,-8279,-270,-2,1,-3,0
1215489,586,-8279,-266,-2,0,-3,0
1215494,590,-8278,-256,-2,0,-3,0
1215499,595,-8277,-250,-1,-1,-3,0
1215504,592,-8279,-237,-1,-1,-3,0
1215509,587,-8279,-229,-1,-1,-3,0
1215514,573,-8279,-225,-1,-1,-3,0
1215519,550,-8278,-222,-1,-1,-3,0
1215524,528,-8278,-219,-1,-1,-3,0
1215529,502,-8279,-214,-1,0,-3,0
1215534,477,-8276,-214,-1,0,-3,0
1215539,457,-8276,-214,-1,1,-3,0
1215544,443,-8275,-217,-1,1,-3,0
1215549,437,-8279,-222,-1,1,-3,0
1215554,435,-8279,-226,-1,2,-3,0
1215559,435,-8276,-236,-1,2,-3,0
1215564,437,-8276,-239,-1,3,-3,0
1215569,443,-8278,-239,-1,3,-3,0
1215574,452,-8278,-239,-1,4,-3,0
1215579,461,-8279,-234,-1,4,-3,0
1215584,477,-8279,-238,-1,4,-3,0
1215589,501,-8280,-245,-1,4,-3,0
1215594,523,-8283,-251,-1,5,-3,0
1215599,546,-8282,-261,-1,5,-2,0
1215604,571,-8281,-270,-1,5,-3,0
1215609,592,-8280,-280,-1,5,-2,0
1215614,613,-8280,-287,-1,5,-2,0
1215619,632,-8278,-288,-1,5,-2,0
1215624,647,-8278,-300,-1,5,-2,0
1215629,660,-8276,-313,-1,5,-2,0
1215634,668,-8277,-323,-1,5,-2,0
1215639,676,-8274,-331,-1,5,-2,0
1215644,684,-8271,-336,-1,4,-2,0
1215649,690,-8273,-343,-1,4,-2,0
1215654,694,-8276,-344,-1,3,-2,0
1215659,699,-8276,-353,-1,2,-2,0
1215664,700,-8278,-355,-1,1,-2,0
1215669,695,-8274,-357,-1,0,-2,0
1215674,685,-8274,-356,-1,0,-2,0
1215679,672,-8273,-361,-1,-1,-2,0
1215684,656,-8275,-362,-1,-1,-2,0
1215689,638,-8276,-360,0,-1,-2,0
1215694,622,-8276,-352,0,-1,-1,0
1215699,608,-8277,-344,0,-1,-2,0
1215704,600,-8278,-339,0,0,-1,0
1215709,599,-8281,-334,0,0,-1,0
1215714,605,-8282,-324,0,0,-1,0
1215719,615,-8283,-319,0,0,-1,0
1215724,629,-8282,-310,0,0,-1,0
1215729,642,-8280,-301,0,0,-1,0
1215734,654,-8277,-291,0,0,-1,0
1215739,668,-8278,-284,0,0,-1,0
1215744,685,-8278,-276,0,-1,-1,0
1215749,699,-8277,-276,0,-1,-1,0
1215754,712,-8278,-276,0,-1,-1,0
1215759,725,-8281,-283,0,-2,-1,0
1215764,733,-8282,-291,0,-2,-1,0
1215769,738,-8280,-293,0,-3,-1,0
1215774,740,-8276,-301,0,-3,-1,0
1215779,737,-8275,-301,0,-3,-1,0
1215784,735,-8278,-299,0,-2,0,0
1215789,728,-8278,-299,0,-2,0,0
1215794,721,-8279,-297,0,-2,0,0
1215799,714,-8276,-294,0,-2,0,0
1215804,705,-8272,-285,0,-2,0,0
1215809,693,-8272,-279,0,-2,0,0
1215814,689,-8273,-269,0,-2,0,0
1215819,686,-8274,-267,0,-2,0,0
1215824,679,-8273,-271,0,-2,0,0
1215829,676,-8272,-273,0,-2,0,0
1215834,670,-8272,-270,0,-1,0,0
1215839,658,-8274,-268,0,-1,0,0
1215844,649,-8274,-272,0,0,0,0
1215849,641,-8276,-263,0,0,0,0
1215854,635,-8276,-249,0,-1,0,0
1215859,627,-8276,-240,0,-1,0,0
1215864,622,-8277,-228,0,-2,0,0
1215869,620,-8278,-219,0,-2,0,0
1215874,618,-8274,-220,0,-2,0,0
1215879,620,-8276,-229,0,-2,0,0
1215884,624,-8277,-237,0,-2,0,0
1215889,626,-8278,-241,0,-2,0,0
1215894,626,-8281,-248,0,-3,0,0
1215899,624,-8283,-252,0,-3,0,0
1215904,618,-8285,-258,0,-4,0,0
1215909,613,-8286,-257,0,-4,0,0
1215914,605,-8285,-257,0,-4,0,0
1215919,597,-8286,-258,1,-4,1,0
1215924,590,-8289,-261,1,-4,1,0
1215929,584,-8289,-261,1,-5,1,0
1215934,581,-8292,-253,1,-5,1,0
1215939,577,-8291,-249,1,-6,1,0
1215944,570,-8291,-242,1,-7,1,0
1215949,557,-8293,-230,1,-8,1,0
1215954,537,-8294,-221,1,-9,0,0
1215959,515,-8295,-204,1,-10,0,0
1215964,492,-8298,-187,1,-10,0,0
1215969,465,-8296,-171,1,-10,0,0
1215974,442,-8296,-151,1,-10,0,0
1215979,422,-8295,-132,1,-9,0,0
1215984,406,-8290,-123,1,-8,0,0
1215989,395,-8288,-119,1,-7,0,0
1215994,388,-8286,-120,1,-6,0,0
1215999,384,-8287,-125,0,-5,0,0
1216004,385,-8289,-130,0,-5,0,0
1216009,389,-8290,-134,0,-5,0,0
1216014,396,-8290,-137,0,-6,0,0
1216019,402,-8289,-137,0,-7,0,0
1216024,404,-8289,-136,0,-8,0,0
1216029,408,-8289,-139,0,-9,0,0
1216034,410,-8287,-138,0,-9,0,0
1216039,411,-8286,-145,1,-10,0,0
1216044,413,-8286,-153,1,-11,0,0
1216049,411,-8289,-165,1,-11,0,0
1216054,405,-8287,-176,1,-12,0,0
1216059,398,-8288,-187,1,-12,0,0
1216064,391,-8284,-200,1,-12,0,0
1216069,383,-8283,-211,1,-11,0,0
1216074,371,-8282,-217,1,-11,0,0
1216079,359,-8284,-219,1,-10,0,0
1216084,353,-8286,-217,1,-10,0,0
1216089,347,-8287,-207,1,-10,0,0
1216094,346,-8287,-189,1,-10,0,0
1216099,347,-8286,-170,1,-11,0,0
1216104,349,-8286,-158,1,-11,0,0
1216109,352,-8286,-147,1,-11,0,0
1216114,351,-8286,-137,1,-12,0,0
1216119,350,-8285,-131,1,-12,0,0
1216124,348,-8285,-125,1,-12,0,0
1216129,339,-8287,-127,1,-11,0,0
1216134,325,-8284,-126,1,-9,-1,0
1216139,317,-8286,-125,0,-7,-1,0
1216144,309,-8288,-121,0,-5,-1,0
1216149,300,-8290,-114,0,-2,-1,0
1216154,303,-8291,-105,0,1,-1,0
1216159,308,-8290,-96,0,2,-1,0
1216164,318,-8289,-91,0,3,-1,0
1216169,331,-8290,-88,0,3,-1,0
1216174,347,-8291,-88,0,2,-1,0
1216179,362,-8290,-90,0,1,-1,0
1216184,373,-8288,-97,0,0,-1,0
1216189,376,-8287,-110,0,-1,-1,0
1216194,374,-8287,-122,0,-2,-1,0
1216199,369,-8289,-123,0,-2,-1,0
1216204,359,-8288,-125,0,-2,-1,0
1216209,351,-8289,-123,0,-1,-1,0
1216214,344,-8291,-118,0,-1,-1,0
1216219,341,-8291,-107,0,-1,-1,0
1216224,336,-8288,-95,0,-1,-1,0
1216229,336,-8287,-82,0,-1,-1,0
1216234,342,-8288,-75,0,-1,-1,0
1216239,351,-8289,-68,0,0,-1,0
1216244,367,-8290,-63,0,1,-1,0
