millis,ax,ay,az,gx,gy,gz,label
3371991,-54,-8377,692,-2,-15,-1,0
3371996,-14,-8374,759,-2,-20,-1,0
3372001,58,-8376,843,-2,-28,-1,0
3372006,160,-8375,894,-2,-36,-1,0
3372011,283,-8373,922,-2,-44,-1,0
3372016,407,-8374,909,-2,-53,-2,0
3372021,509,-8376,872,-2,-63,-2,0
3372026,580,-8379,839,-2,-75,-3,0
3372031,594,-8382,810,-2,-87,-3,0
3372036,556,-8381,794,-2,-98,-4,0
3372041,447,-8378,772,-2,-108,-4,0
3372046,276,-8376,748,-2,-113,-4,0
3372051,61,-8371,707,-2,-113,-4,0
3372056,-181,-8366,648,-2,-106,-4,0
3372061,-419,-8366,585,-2,-95,-4,0
3372066,-646,-8369,521,-2,-80,-4,0
3372071,-841,-8368,471,-2,-65,-4,0
3372076,-1001,-8365,437,-2,-49,-3,0
3372081,-1120,-8366,407,-2,-35,-3,0
3372086,-1186,-8367,391,-2,-21,-3,0
3372091,-1200,-8367,385,-2,-11,-3,0
3372096,-1157,-8366,376,-2,-4,-3,0
3372101,-1069,-8366,372,-2,-2,-3,0
3372106,-956,-8367,381,-2,-2,-3,0
3372111,-826,-8363,380,-2,-2,-3,0
3372116,-703,-8364,392,-2,-2,-4,0
3372121,-610,-8367,407,-2,-2,-4,0
3372126,-561,-8368,428,-1,-2,-5,0
3372131,-553,-8367,452,-1,-1,-5,0
3372136,-573,-8367,479,-2,1,-5,0
3372141,-603,-8368,511,-2,3,-5,0
3372146,-625,-8366,547,-2,5,-4,0
3372151,-615,-8362,578,-2,8,-4,0
3372156,-559,-8360,605,-2,12,-4,0
3372161,-461,-8358,616,-1,15,-4,0
3372166,-334,-8357,610,-1,18,-4,0
3372171,-195,-8361,599,-2,20,-4,0
3372176,-71,-8364,595,-2,22,-4,0
3372181,25,-8365,606,-2,23,-4,0
3372186,86,-8367,634,-2,24,-4,0
3372191,116,-8369,683,-2,25,-4,0
3372196,135,-8369,729,-2,26,-3,0
3372201,153,-8369,763,-2,27,-3,0
3372206,188,-8368,779,-2,28,-3,0
3372211,248,-8366,766,-2,29,-3,0
3372216,312,-8367,737,-2,29,-2,0
3372221,370,-8368,699,-2,29,-3,0
3372226,410,-8372,667,-2,31,-3,0
3372231,419,-8374,657,-3,31,-3,0
3372236,408,-8372,663,-3,32,-3,0
3372241,371,-8373,678,-3,33,-2,0
3372246,339,-8373,680,-3,35,-2,0
3372251,328,-8368,659,-2,38,-2,0
3372256,339,-8365,621,-2,41,-1,0
3372261,382,-8366,565,-2,44,-1,0
3372266,447,-8367,503,-2,45,-1,0
3372271,529,-8366,457,-2,44,-1,0
3372276,619,-8361,430,-2,42,-1,0
3372281,700,-8359,422,-2,39,-1,0
3372286,772,-8357,419,-2,35,-1,0
3372291,823,-8356,413,-2,31,-1,0
3372296,856,-8356,390,-2,27,-1,0
3372301,867,-8352,355,-2,24,-1,0
3372306,864,-8350,306,-1,21,-1,0
3372311,853,-8350,264,-1,19,0,0
3372316,849,-8353,237,-2,16,0,0
3372321,845,-8355,227,-2,14,0,0
3372326,845,-8357,249,-2,12,0,0
3372331,850,-8359,281,-2,10,0,0
3372336,846,-8361,329,-1,8,0,0
3372341,830,-8360,351,-1,7,0,0
3372346,807,-8359,354,-1,6,0,0
3372351,770,-8361,345,-1,6,0,0
3372356,729,-8359,312,-1,6,0,0
3372361,686,-8355,268,-1,6,1,0
3372366,644,-8356,244,-1,7,1,0
3372371,618,-8357,225,-1,8,1,0
3372376,603,-8355,217,-1,8,1,0
3372381,596,-8352,212,-1,6,1,0
3372386,591,-8351,200,0,4,1,0
3372391,581,-8352,182,0,2,1,0
3372396,565,-8352,155,0,1,1,0
3372401,534,-8349,130,0,0,1,0
3372406,488,-8348,104,0,-1,1,0
3372411,433,-8346,86,0,-1,1,0
3372416,372,-8348,82,0,-2,1,0
3372420,322,-8349,95,0,-2,1,0
3372426,283,-8350,120,0,-2,1,0
3372430,264,-8351,145,1,-2,1,0
3372435,253,-8354,179,1,-2,1,0
3372441,249,-8357,214,1,-2,1,0
3372445,247,-8362,237,1,-2,1,0
3372451,231,-8364,267,1,-2,1,0
3372455,206,-8364,288,1,-2,1,0
3372461,170,-8369,307,1,-2,1,0
3372465,128,-8370,335,1,-2,1,0
3372470,93,-8370,361,1,-1,1,0
3372475,60,-8371,385,1,-1,1,0
3372480,45,-8371,409,1,-1,1,0
3372485,41,-8370,428,1,0,1,0
3372490,42,-8370,448,1,0,1,0
3372496,45,-8372,463,1,0,0,0
3372500,40,-8371,481,1,0,0,0
3372506,26,-8368,492,1,-1,0,0
3372510,9,-8367,504,1,-1,0,0
3372515,-8,-8365,516,1,-1,0,0
3372520,-22,-8365,524,1,0,0,0
3372525,-29,-8363,532,1,0,0,0
3372530,-26,-8360,540,1,0,0,0
3372535,-16,-8362,553,1,1,0,0
3372540,3,-8361,565,1,1,0,0
3372545,23,-8360,568,0,1,0,0
3372550,40,-8358,576,1,1,0,0
3372555,54,-8359,578,0,1,0,0
3372560,63,-8360,576,0,1,0,0
3372565,66,-8360,570,0,1,0,0
3372570,71,-8360,566,0,1,0,0
3372575,77,-8360,566,0,1,0,0
3372580,89,-8361,561,0,1,0,0
3372585,100,-8365,556,0,1,0,0
3372590,116,-8366,549,0,2,0,0
3372595,126,-8365,537,0,2,0,0
3372600,126,-8364,527,0,2,0,0
3372605,120,-8363,509,0,3,0,0
3372610,115,-8363,490,1,3,0,0
3372615,108,-8363,473,1,3,0,0
3372620,108,-8360,452,1,3,0,0
3372625,110,-8358,431,1,3,0,0
3372630,117,-8359,411,1,3,0,0
3372635,127,-8359,387,1,2,0,0
3372640,134,-8360,361,1,2,0,0
3372645,137,-8361,332,1,1,0,0
3372650,134,-8359,306,1,1,0,0
3372655,124,-8357,280,1,0,0,0
3372660,111,-8355,260,1,0,0,0
3372665,94,-8354,238,1,-1,0,0
3372670,84,-8351,224,1,-1,0,0
3372675,84,-8349,219,2,-1,0,0
3372680,86,-8351,221,2,-1,0,0
3372685,92,-8352,229,2,-2,0,0
3372690,93,-8351,234,2,-2,0,0
3372695,97,-8350,235,2,-2,0,0
3372700,95,-8348,239,2,-2,0,0
3372705,82,-8345,238,2,-2,0,0
3372710,66,-8340,236,2,-2,0,0
3372715,49,-8343,237,2,-2,0,0
3372720,39,-8343,241,2,-2,0,0
3372725,35,-8345,245,3,-2,0,0
3372730,32,-8346,249,3,-3,0,0
3372735,32,-8346,248,3,-3,-1,0
3372740,31,-8347,236,3,-4,-1,0
3372745,33,-8345,219,3,-4,-1,0
3372750,34,-8348,219,3,-5,-1,0
3372755,34,-8350,224,3,-6,-1,0
3372760,33,-8350,246,3,-6,-1,0
3372765,29,-8352,287,3,-7,-1,0
3372770,26,-8353,338,3,-7,-1,0
3372775,22,-8356,389,3,-6,-1,0
3372780,14,-8357,434,3,-6,-1,0
3372785,12,-8362,468,4,-5,-1,0
3372790,16,-8364,481,4,-6,-1,0
3372795,19,-8363,490,4,-6,-1,0
3372800,27,-8363,498,3,-6,-1,0
3372805,31,-8361,509,3,-6,-1,0
3372810,36,-8361,535,3,-6,-1,0
3372815,37,-8364,568,3,-6,-1,0
3372820,34,-8365,609,3,-6,-1,0
3372825,28,-8369,649,3,-6,-1,0
3372830,21,-8370,676,3,-6,-1,0
3372835,20,-8369,698,3,-6,-1,0
3372840,16,-8368,703,3,-6,-1,0
3372845,16,-8369,706,3,-6,-1,0
3372850,15,-8371,716,3,-6,-1,0
3372855,16,-8370,735,3,-5,-2,0
3372860,13,-8371,764,3,-5,-2,0
3372865,8,-8371,796,3,-5,-2,0
3372870,1,-8373,827,3,-5,-2,0
3372875,2,-8374,851,3,-4,-2,0
3372880,6,-8376,864,3,-4,-2,0
3372885,11,-8375,865,3,-4,-2,0
3372890,15,-8375,861,3,-3,-2,0
3372895,19,-8374,855,3,-3,-2,0
3372900,19,-8376,855,2,-3,-2,0
3372905,12,-8376,860,2,-2,-2,0
3372910,-1,-8375,875,2,-2,-2,0
3372915,-12,-8376,886,2,-3,-2,0
3372920,-23,-8376,895,2,-2,-2,0
3372925,-26,-8376,904,2,-2,-2,0
3372930,-19,-8378,905,2,-2,-2,0
3372935,-10,-8379,898,2,-2,-2,0
3372940,0,-8378,899,2,-2,-2,0
3372945,6,-8382,907,2,-2,-2,0
3372950,10,-8385,927,2,-2,-2,0
3372955,13,-8387,948,2,-2,-2,0
3372960,15,-8389,972,2,-2,-2,0
3372965,12,-8391,993,2,-2,-2,0
3372970,9,-8389,1007,2,-1,-2,0
3372975,14,-8388,1007,1,-1,-2,0
3372980,30,-8383,997,1,-1,-2,0
3372985,50,-8383,991,1,-1,-2,0
3372990,74,-8385,987,1,0,-2,0
3372995,98,-8383,988,1,0,-2,0
3373000,118,-8384,987,1,-1,-2,0
3373005,135,-8385,985,1,-1,-2,0
3373010,148,-8383,985,1,-1,-2,0
3373015,155,-8385,982,1,-1,-2,0
3373020,160,-8385,978,1,-1,-2,0
3373025,163,-8387,971,1,-1,-2,0
3373030,165,-8387,967,1,-1,-2,0
3373035,169,-8388,959,1,-1,-2,0
3373040,174,-8387,957,1,-1,-2,0
3373045,181,-8385,956,1,0,-2,0
3373050,188,-8383,957,1,0,-2,0
3373055,197,-8382,953,1,0,-2,0
3373060,204,-8382,950,1,0,-2,0
3373065,213,-8382,934,1,0,-2,0
3373070,228,-8380,915,0,0,-2,0
3373075,244,-8380,894,0,0,-2,0
3373080,260,-8378,879,0,-1,-2,0
3373085,272,-8377,866,0,-1,-2,0
3373090,283,-8379,863,0,-1,-2,0
3373095,289,-8379,865,0,-2,-2,0
3373100,295,-8380,869,0,-2,-2,0
3373105,296,-8378,875,0,-3,-2,0
3373110,296,-8376,883,0,-3,-2,0
3373115,296,-8377,892,0,-3,-2,0
3373120,291,-8378,902,0,-4,-2,0
3373125,287,-8380,914,0,-4,-2,0
3373130,275,-8379,925,0,-4,-2,0
3373135,264,-8377,939,0,-4,-2,0
3373140,252,-8376,951,0,-4,-2,0
3373145,241,-8374,960,0,-4,-2,0
3373150,233,-8373,966,0,-3,-2,0
3373155,226,-8374,966,0,-3,-2,0
3373160,221,-8374,966,0,-2,-2,0
3373165,210,-8375,963,0,-2,-2,0
3373170,197,-8377,963,0,-2,-2,0
3373175,186,-8379,967,-1,-1,-2,0
3373180,178,-8378,965,-1,-1,-2,0
3373185,173,-8377,966,-1,-1,-2,0
3373190,170,-8378,965,-1,0,-2,0
3373195,171,-8378,970,-1,0,-2,0
3373200,175,-8375,972,-1,0,-2,0
3373205,183,-8376,972,-1,0,-2,0
3373210,194,-8379,975,-1,1,-2,0
3373215,211,-8380,975,-1,1,-2,0
3373220,226,-8380,981,-1,1,-2,0
3373225,244,-8379,982,-1,1,-2,0
3373230,260,-8379,977,-1,1,-2,0
3373235,271,-8380,972,-1,1,-2,0
3373240,279,-8380,962,-1,1,-2,0
3373245,285,-8377,954,-1,1,-2,0
3373250,289,-8379,941,-1,2,-2,0
3373255,293,-8380,925,-1,2,-2,0
3373260,300,-8380,912,-1,2,-2,0
3373265,309,-8375,895,-1,2,-2,0
3373270,319,-8370,879,-1,1,-2,0
3373275,327,-8372,859,-1,1,-2,0
3373280,329,-8371,836,-1,1,-2,0
3373285,330,-8372,812,-1,1,-2,0
3373290,330,-8371,790,-1,1,-2,0
3373295,329,-8368,774,-1,1,-2,0
3373300,327,-8366,748,-1,1,-2,0
3373305,326,-8365,719,-1,0,-2,0
3373310,322,-8366,691,-1,0,-2,0
3373315,316,-8367,665,-1,0,-2,0
3373320,311,-8365,648,-1,0,-2,0
3373325,305,-8363,636,-1,0,-2,0
3373330,299,-8364,626,-1,0,-2,0
3373335,296,-8365,621,-1,0,-2,0
3373340,296,-8368,613,-1,0,-2,0
3373345,297,-8369,613,-1,0,-2,0
3373350,296,-8370,613,-1,0,-2,0
3373355,296,-8368,615,-1,-1,-2,0
3373360,295,-8365,615,-1,-1,-2,0
3373365,295,-8364,622,-1,-1,-2,0
3373370,294,-8365,630,-1,-1,-2,0
3373375,293,-8367,643,-1,-1,-2,0
3373380,299,-8366,651,0,-1,-2,0
3373385,307,-8365,660,0,-1,-2,0
3373389,316,-8366,667,0,-1,-2,0
3373395,327,-8367,673,0,0,-2,0
3373400,338,-8368,680,0,0,-2,0
3373404,349,-8367,694,0,0,-2,0
3373410,364,-8370,700,0,0,-2,0
3373415,384,-8372,712,0,0,-2,0
3373419,405,-8372,723,0,0,-2,0
3373425,426,-8373,733,0,0,-2,0
3373430,441,-8373,745,0,-1,-2,0
3373435,454,-8373,763,0,-1,-2,0
3373439,461,-8374,778,0,-1,-2,0
3373444,465,-8375,789,0,-1,-2,0
3373449,471,-8375,797,0,-1,-1,0
3373455,472,-8375,806,-1,-1,-1,0
3373460,478,-8375,816,-1,-1,-1,0
3373465,487,-8377,827,-1,-1,-1,0
3373469,493,-8377,835,-1,-1,-1,0
3373474,498,-8379,848,-1,-1,-1,0
3373479,502,-8382,864,-1,-1,-1,0
3373485,506,-8384,875,-1,-1,-1,0
3373489,503,-8386,887,-1,-1,-1,0
3373495,501,-8386,895,-1,-1,-1,0
3373499,501,-8384,901,-1,-1,-1,0
3373504,496,-8380,905,-1,-1,-1,0
3373509,491,-8377,905,-1,0,-1,0
3373514,484,-8375,910,-1,0,-1,0
3373519,473,-8374,912,-1,0,-1,0
3373524,464,-8376,907,-1,0,-1,0
3373529,457,-8375,904,-1,0,-1,0
3373534,456,-8374,896,-1,0,-1,0
3373539,460,-8376,893,-1,0,0,0
3373544,470,-8377,897,-1,0,0,0
3373549,476,-8376,902,-1,-1,0,0
3373554,485,-8377,905,-1,-1,0,0
3373559,490,-8376,911,-1,-1,0,0
3373564,486,-8375,918,-2,-1,0,0
3373569,476,-8376,924,-2,-1,0,0
3373574,462,-8377,928,-2,-1,0,0
3373579,448,-8381,935,-2,-1,0,0
3373584,439,-8380,939,-2,0,0,0
3373589,437,-8380,946,-2,0,0,0
3373594,432,-8379,948,-2,-1,0,0
3373599,429,-8381,946,-2,-1,0,0
3373604,427,-8382,944,-2,-1,0,0
3373609,420,-8383,948,-2,-1,0,0
3373614,412,-8385,950,-2,-1,0,0
3373619,398,-8384,952,-2,-1,0,0
3373624,377,-8384,958,-2,-1,0,0
3373629,359,-8384,958,-2,0,0,0
3373634,344,-8385,952,-2,0,0,0
3373639,335,-8384,941,-2,0,0,0
3373644,327,-8383,927,-2,0,0,0
3373649,323,-8382,903,-2,0,0,0
3373654,319,-8380,885,-2,0,0,0
3373659,313,-8377,861,-2,0,0,0
3373664,311,-8376,844,-2,0,0,0
3373669,312,-8375,824,-3,0,0,0
3373674,312,-8376,806,-3,0,0,0
3373679,313,-8376,788,-2,0,0,0
3373684,310,-8377,768,-2,0,0,0
3373689,308,-8377,744,-2,0,0,0
3373694,308,-8375,721,-2,0,0,0
3373699,308,-8376,703,-2,0,0,0
3373704,303,-8374,688,-2,-1,0,0
3373709,294,-8375,672,-2,-1,0,0
3373714,284,-8375,663,-2,-1,0,0
3373719,266,-8371,657,-2,-1,0,0
3373724,244,-8370,651,-2,-1,0,0
3373729,225,-8371,647,-2,-1,-1,0
3373734,206,-8369,641,-2,-1,-1,0
3373739,192,-8369,642,-2,-1,-1,0
3373744,182,-8370,646,-2,-1,-1,0
3373749,169,-8372,650,-2,-1,-1,0
3373754,153,-8371,645,-2,-1,-1,0
3373759,135,-8369,639,-2,0,-1,0
3373764,116,-8369,630,-2,0,-1,0
3373769,92,-8368,623,-2,0,-1,0
3373774,73,-8369,616,-2,0,-1,0
3373779,55,-8368,597,-2,0,-1,0
3373784,46,-8369,581,-2,1,-1,0
3373789,50,-8365,569,-2,1,-1,0
3373794,53,-8363,560,-2,1,-1,0
3373799,57,-8361,551,-2,1,-2,0
3373804,57,-8361,542,-2,1,-2,0
3373809,52,-8359,531,-2,1,-2,0
3373814,46,-8358,522,-2,1,-2,0
3373819,32,-8356,514,-2,1,-2,0
3373824,22,-8358,509,-1,1,-2,0
3373829,22,-8360,510,-1,1,-2,0
3373834,32,-8359,503,-1,1,-2,0
3373839,45,-8362,500,-1,1,-2,0
3373844,61,-8365,498,-1,2,-2,0
3373849,76,-8366,492,-1,2,-2,0
3373854,84,-8364,486,-1,2,-3,0
3373859,89,-8362,483,-1,3,-3,0
3373864,102,-8361,483,-1,3,-2,0
3373869,121,-8361,483,-1,3,-2,0
3373874,146,-8363,479,-1,3,-2,0
3373879,179,-8366,476,-1,3,-2,0
3373884,215,-8367,473,-1,3,-2,0
3373889,246,-8365,468,-1,3,-2,0
3373894,275,-8366,463,-1,4,-2,0
3373899,295,-8363,457,-1,4,-2,0
3373904,311,-8364,460,-1,4,-2,0
3373909,327,-8367,459,-1,5,-2,0
3373914,343,-8362,461,0,5,-2,0
3373919,362,-8363,468,0,5,-2,0
3373924,391,-8361,467,0,5,-2,0
3373929,411,-8361,467,0,5,-2,0
3373934,441,-8361,463,0,4,-2,0
3373939,470,-8361,459,0,4,-2,0
3373944,495,-8363,463,0,4,-2,0
3373949,521,-8364,461,0,4,-2,0
3373954,543,-8364,471,0,3,-2,0
3373959,564,-8365,473,0,3,-2,0
3373964,581,-8365,480,0,3,-2,0
3373969,601,-8365,487,0,2,-2,0
3373974,619,-8365,487,0,2,-1,0
3373979,632,-8363,495,0,2,-1,0
3373984,648,-8363,493,0,1,-1,0
3373989,658,-8362,505,0,1,-1,0
3373994,671,-8359,513,0,0,-1,0
3373999,687,-8358,525,0,0,-1,0
3374004,697,-8356,535,1,-1,-1,0
3374009,697,-8359,547,1,-1,-1,0
3374014,698,-8359,557,1,-1,-1,0
3374019,686,-8357,561,1,-2,-1,0
3374024,675,-8360,572,1,-2,-1,0
3374029,674,-8365,584,1,-2,-1,0
3374034,674,-8367,607,1,-2,-1,0
3374039,686,-8365,640,1,-2,-1,0
3374044,697,-8367,675,1,-2,-1,0
3374049,699,-8369,703,1,-2,-1,0
3374054,688,-8367,727,1,-2,-1,0
3374059,657,-8368,741,1,-2,-1,0
3374064,614,-8371,745,1,-2,-1,0
3374069,565,-8372,744,1,-1,0,0
3374074,518,-8372,739,0,-1,0,0
3374079,476,-8373,735,0,-1,0,0
3374084,452,-8377,739,0,0,0,0
3374089,446,-8377,749,0,0,0,0
3374094,455,-8377,765,0,0,0,0
3374099,473,-8375,786,0,-1,0,0
3374104,490,-8376,806,0,-1,0,0
3374109,498,-8377,828,0,-1,0,0
3374114,498,-8375,845,0,-1,0,0
3374119,491,-8372,859,0,-1,0,0
3374124,476,-8372,869,0,-1,0,0
3374129,455,-8370,871,0,0,0,0
3374134,435,-8369,870,0,0,0,0
3374139,419,-8366,865,0,0,0,0
3374144,406,-8367,856,0,0,0,0
3374149,396,-8367,840,0,0,0,0
3374154,398,-8368,831,0,0,0,0
3374159,405,-8369,819,0,0,0,0
3374164,407,-8371,812,0,0,0,0
3374169,412,-8373,804,0,0,0,0
3374174,415,-8373,797,0,-1,0,0
3374179,418,-8374,792,0,-1,0,0
3374184,417,-8376,794,0,-1,0,0
3374189,416,-8378,798,0,-1,0,0
3374194,413,-8379,802,0,-1,0,0
3374199,405,-8380,810,-1,-1,0,0
3374204,397,-8380,818,-1,-1,0,0
3374209,389,-8381,825,-1,-1,0,0
3374214,374,-8381,832,-1,-1,0,0
3374219,356,-8381,833,-1,-1,0,0
3374224,341,-8380,831,-1,-1,0,0
3374229,322,-8379,823,-1,0,0,0
3374234,310,-8379,813,-1,0,0,0
3374239,303,-8379,804,-1,0,0,0
3374244,303,-8378,798,-1,0,0,0
3374249,311,-8377,791,-1,0,0,0
3374254,320,-8376,783,-1,0,-1,0
3374259,328,-8377,777,-1,0,-1,0
3374264,336,-8380,771,-1,0,-1,0
3374269,337,-8379,758,-1,0,-1,0
3374274,334,-8379,742,-1,-1,-1,0
3374279,331,-8375,732,-1,-1,-1,0
3374284,326,-8373,733,-1,-1,-1,0
3374289,324,-8373,739,-1,-1,-1,0
3374294,327,-8374,750,-1,-1,-1,0
3374299,335,-8375,767,-1,-1,-1,0
3374304,347,-8375,779,-1,-1,-1,0
3374309,352,-8376,789,-1,-1,-1,0
3374314,356,-8377,795,-1,-1,-1,0
3374319,355,-8378,797,-1,0,-1,0
3374324,353,-8376,794,-1,0,-1,0
3374329,350,-8379,797,-1,0,-1,0
3374334,353,-8380,802,-1,0,-1,0
3374339,364,-8377,809,-1,0,-1,0
3374344,378,-8374,822,-1,0,-1,0
3374349,396,-8374,831,-1,0,-1,0
3374354,418,-8376,841,-1,-1,-1,0
3374359,431,-8375,843,-1,-1,-1,0
3374364,433,-8372,839,-1,0,-1,0
3374369,428,-8371,830,-1,0,-1,0
3374374,414,-8369,826,-1,0,-1,0
3374379,403,-8367,821,-2,0,-1,0
3374384,400,-8367,822,-2,0,0,0
3374388,405,-8368,827,-2,0,0,0
3374394,423,-8368,829,-2,0,0,0
3374398,447,-8372,836,-2,0,0,0
3374404,471,-8373,848,-2,0,0,0
3374408,487,-8375,853,-2,0,-1,0
3374414,491,-8377,855,-2,-1,-1,0
3374419,474,-8378,853,-2,0,-1,0
3374423,451,-8380,847,-2,0,-1,0
3374429,421,-8383,838,-2,0,0,0
3374434,397,-8384,826,-2,0,0,0
3374439,388,-8382,815,-2,0,0,0
3374443,389,-8378,807,-2,1,0,0
3374449,406,-8375,801,-2,1,0,0
3374453,430,-8377,795,-2,0,0,0
3374458,448,-8374,789,-2,0,0,0
3374464,461,-8373,785,-2,0,0,0
3374468,458,-8372,781,-2,0,-1,0
3374473,440,-8372,776,-2,0,-1,0
3374478,416,-8371,767,-2,0,0,0
3374483,389,-8372,751,-2,0,0,0
3374488,367,-8373,740,-2,0,0,0
3374493,357,-8372,739,-2,1,0,0
3374498,357,-8371,740,-2,1,0,0
3374503,367,-8369,748,-2,1,0,0
3374508,382,-8368,751,-2,1,0,0
3374513,393,-8370,756,-2,1,0,0
3374518,397,-8371,760,-2,1,-1,0
3374523,391,-8373,757,-2,1,-1,0
3374528,373,-8375,741,-2,1,-1,0
3374533,352,-8376,724,-2,1,-1,0
3374538,334,-8375,704,-2,1,0,0
3374543,323,-8374,691,-2,1,0,0
3374548,324,-8373,679,-2,1,0,0
3374553,333,-8373,672,-2,1,0,0
3374558,347,-8373,664,-2,1,0,0
3374563,360,-8371,660,-2,1,0,0
3374568,370,-8371,658,-2,1,-1,0
3374573,371,-8371,644,-2,1,-1,0
3374578,360,-8372,621,-2,1,-1,0
3374583,346,-8369,601,-2,1,-1,0
3374588,331,-8370,578,-2,1,-1,0
3374593,317,-8370,554,-2,2,-1,0
3374598,311,-8368,534,-2,2,-1,0
3374603,313,-8369,520,-2,3,-1,0
3374608,322,-8368,507,-2,3,-1,0
3374613,338,-8365,494,-2,3,-1,0
3374618,358,-8364,482,-2,3,-1,0
3374623,375,-8363,464,-2,3,-1,0
3374628,383,-8365,446,-2,3,-1,0
3374633,388,-8365,429,-2,3,-1,0
3374638,389,-8364,414,-2,2,-1,0
3374643,386,-8362,400,-2,2,-1,0
3374648,384,-8360,387,-2,1,-1,0
3374653,382,-8360,376,-1,1,-1,0
3374658,382,-8364,368,-1,1,-1,0
3374663,381,-8364,361,-1,1,-1,0
3374668,382,-8363,352,-1,1,-1,0
3374673,387,-8360,344,-1,1,-1,0
3374678,391,-8359,331,-1,1,-1,0
3374683,397,-8359,317,-1,1,-1,0
3374688,403,-8358,303,-1,1,-1,0
3374693,406,-8359,298,-1,1,-1,0
3374698,411,-8358,293,-1,1,-1,0
3374703,419,-8357,292,-1,1,-1,0
3374708,433,-8354,294,0,0,-1,0
3374713,445,-8354,298,0,0,-1,0
3374718,454,-8353,302,0,0,-1,0
3374723,464,-8355,309,0,0,-1,0
3374728,467,-8358,313,0,0,-1,0
3374733,465,-8360,316,0,0,-1,0
3374738,464,-8357,316,0,0,-1,0
3374743,460,-8357,315,0,0,-1,0
3374748,459,-8356,310,0,0,-1,0
3374753,467,-8353,312,0,0,0,0
3374758,479,-8352,310,0,-1,0,0
3374763,493,-8353,311,0,-1,0,0
3374768,504,-8354,314,1,-1,0,0
3374773,517,-8353,321,1,-1,-1,0
3374778,523,-8355,328,1,-1,0,0
3374783,531,-8354,334,1,-1,0,0
3374788,538,-8354,339,1,-1,0,0
3374793,540,-8357,348,1,-1,0,0
3374798,541,-8359,360,1,-1,0,0
3374803,544,-8360,376,1,-1,0,0
3374808,543,-8358,388,1,-2,0,0
3374813,540,-8356,400,1,-2,0,0
3374818,534,-8356,411,1,-2,0,0
3374823,527,-8358,417,1,-2,0,0
3374828,525,-8362,423,1,-2,0,0
3374833,522,-8364,435,1,-2,0,0
3374838,521,-8360,443,1,-2,0,0
3374843,517,-8361,453,1,-1,0,0
3374848,511,-8363,460,1,-2,0,0
3374853,510,-8363,464,1,-2,0,0
3374858,506,-8363,468,1,-2,0,0
3374863,502,-8364,476,2,-2,0,0
3374868,498,-8365,482,2,-2,0,0
3374873,492,-8363,490,2,-2,0,0
3374878,489,-8364,494,2,-2,0,0
3374883,485,-8364,500,2,-2,0,0
3374888,482,-8365,504,2,-1,0,9
3374893,479,-8363,513,2,-2,0,9
3374898,473,-8361,522,2,-2,0,9
3374903,472,-8361,531,2,-2,0,9
3374908,476,-8362,544,2,-2,0,9
3374913,475,-8361,557,2,-2,0,9
3374918,472,-8361,569,2,-2,0,9
3374923,468,-8359,577,2,-2,0,9
3374928,464,-8361,581,2,-2,0,9
3374933,458,-8363,586,2,-2,0,9
3374938,450,-8364,590,2,-2,0,9
3374943,443,-8364,586,2,-2,0,9
3374948,433,-8368,580,2,-2,0,9
3374953,423,-8369,570,2,-2,0,9
3374958,410,-8370,561,2,-2,0,9
3374963,397,-8371,559,2,-2,0,9
3374968,388,-8371,552,2,-2,0,9
3374973,380,-8372,556,2,-3,0,9
3374978,377,-8372,566,2,-3,0,9
3374983,374,-8372,578,2,-3,0,9
3374988,375,-8376,590,2,-3,0,9
3374993,375,-8375,607,2,-4,0,9
3374998,372,-8373,624,2,-4,0,9
3375003,363,-8370,648,2,-4,0,9
3375008,347,-8371,673,2,-5,0,9
3375013,325,-8370,697,2,-5,0,9
3375018,299,-8371,728,2,-5,0,9
3375023,273,-8371,762,2,-4,0,9
3375028,251,-8370,791,2,-4,0,9
3375033,229,-8371,819,2,-4,0,9
3375038,213,-8371,846,2,-4,0,9
3375043,195,-8372,865,2,-4,0,9
3375048,178,-8375,883,2,-4,0,9
3375053,159,-8377,901,2,-3,0,9
3375058,139,-8376,919,2,-3,0,9
3375063,117,-8380,944,2,-3,-1,9
3375068,97,-8382,973,1,-3,-1,9
3375073,79,-8384,1006,1,-3,-1,9
3375078,67,-8384,1036,1,-4,-1,9
3375083,59,-8384,1066,1,-4,-1,9
3375088,54,-8386,1107,1,-5,-1,9
3375093,51,-8388,1154,1,-5,-1,9
3375098,47,-8390,1210,1,-6,-2,9
3375103,38,-8394,1269,0,-8,-2,9
3375108,29,-8399,1338,0,-10,-2,9
3375113,14,-8404,1428,0,-12,-2,9
3375118,-2,-8407,1525,-1,-14,-2,9
3375123,-13,-8412,1630,-1,-17,-3,9
3375128,-26,-8418,1745,-1,-20,-3,9
3375133,-41,-8426,1866,-2,-23,-3,9
3375138,-76,-8435,1992,-2,-27,-4,9
3375143,-140,-8441,2121,-3,-28,-4,9
3375148,-219,-8447,2251,-4,-29,-4,9
3375153,-322,-8452,2382,-4,-30,-5,9
3375158,-441,-8457,2524,-5,-30,-5,9
3375163,-576,-8464,2666,-6,-30,-6,9
3375168,-728,-8467,2809,-7,-28,-6,9
3375173,-859,-8473,2960,-7,-23,-6,9
3375178,-972,-8482,3113,-8,-18,-7,9
3375183,-1079,-8484,3273,-9,-14,-7,9
3375188,-1166,-8485,3433,-10,-10,-7,9
3375193,-1233,-8486,3585,-11,-5,-8,9
3375198,-1271,-8485,3732,-13,0,-8,9
3375203,-1288,-8482,3862,-14,4,-8,9
3375208,-1293,-8474,3975,-15,7,-9,9
3375213,-1285,-8466,4066,-16,10,-9,9
3375218,-1265,-8455,4128,-17,14,-9,9
3375223,-1234,-8442,4165,-18,18,-10,9
3375228,-1204,-8429,4174,-19,24,-10,9
3375233,-1186,-8414,4162,-20,32,-10,9
3375238,-1160,-8396,4130,-21,42,-10,9
3375243,-1107,-8377,4085,-22,53,-10,9
3375248,-1023,-8355,4031,-23,60,-10,9
3375253,-908,-8332,3972,-24,65,-10,9
3375258,-764,-8308,3909,-25,67,-10,9
3375263,-596,-8283,3824,-26,69,-11,9
3375268,-422,-8258,3718,-26,71,-11,9
3375273,-249,-8236,3587,-27,74,-11,9
3375278,-97,-8212,3434,-27,76,-12,9
3375283,32,-8187,3254,-28,77,-12,9
3375288,145,-8162,3051,-28,78,-12,9
3375293,252,-8133,2822,-28,78,-12,9
3375298,351,-8106,2580,-29,77,-12,9
3375303,458,-8083,2340,-29,77,-12,9
3375308,579,-8060,2107,-29,77,-12,9
3375313,714,-8039,1884,-29,76,-13,9
3375318,855,-8016,1669,-29,74,-13,9
3375323,995,-7998,1460,-29,73,-13,9
3375328,1142,-7985,1249,-28,70,-13,9
3375333,1287,-7966,1037,-28,66,-13,9
3375338,1405,-7959,832,-28,62,-13,9
3375343,1515,-7943,647,-28,59,-13,9
3375348,1606,-7934,468,-28,56,-13,9
3375353,1651,-7925,328,-27,55,-13,9
3375358,1658,-7926,241,-27,56,-13,9
3375363,1626,-7926,201,-27,55,-13,9
3375368,1540,-7913,197,-27,52,-13,9
3375372,1416,-7914,243,-27,52,-13,9
3375377,1951,-7746,-706,-25,56,-11,9
3375383,1874,-7893,-958,-15,70,-4,9
3375388,2135,-7849,-1413,-13,66,-3,9
3375393,2876,-7846,-2689,-13,68,-3,9
3375397,3121,-7881,-3175,-14,85,-4,9
3375402,3268,-7856,-3453,-14,75,-5,9
3375407,4145,-7894,-4808,-17,77,-7,9
3375413,4249,-7898,-4744,-15,90,-7,9
3375417,4503,-7867,-5067,-15,68,-8,9
3375423,4645,-7918,-5334,-12,64,-7,9
3375427,4420,-7913,-4953,-8,51,-5,9
3375433,4541,-7908,-5471,-5,31,-3,9
3375437,4558,-7917,-5702,-1,32,0,9
3375442,4767,-7922,-6115,2,21,1,9
3375447,5200,-7921,-6918,2,15,2,9
3375453,5424,-7919,-7171,4,11,2,9
3375458,5790,-7917,-7561,4,-1,2,9
3375462,5945,-7913,-7595,5,-5,3,9
3375467,5931,-7901,-7253,8,-16,4,9
3375472,5954,-7893,-7150,10,-23,5,9
3375477,5847,-7882,-6777,14,-28,7,9
3375483,5828,-7864,-6682,18,-38,9,9
3375487,5869,-7859,-6786,20,-45,11,9
3375492,5879,-7844,-6755,21,-51,12,9
3375497,5941,-7824,-6931,22,-57,12,9
3375502,5919,-7809,-6812,22,-60,12,9
3375507,5806,-7777,-6516,22,-65,12,9
3375512,5654,-7750,-6188,24,-71,13,9
3375517,5408,-7729,-5626,26,-76,14,9
3375522,5165,-7704,-5233,29,-81,15,9
3375527,4943,-7685,-4936,32,-84,16,9
3375532,4727,-7665,-4716,34,-86,17,9
3375537,4584,-7646,-4688,34,-89,17,9
3375542,4447,-7629,-4565,35,-92,17,9
3375547,4305,-7603,-4384,35,-96,17,9
3375552,4167,-7578,-4094,35,-102,17,9
3375557,3955,-7555,-3615,36,-107,17,9
3375562,3704,-7536,-3132,37,-114,16,9
3375567,3417,-7526,-2627,38,-119,16,9
3375572,3088,-7524,-2158,40,-123,16,9
3375577,2786,-7520,-1818,41,-126,16,9
3375582,2480,-7522,-1497,41,-128,15,9
3375587,2167,-7527,-1206,41,-129,14,9
3375592,1876,-7529,-894,40,-128,14,9
3375597,1585,-7541,-467,40,-126,13,9
3375602,1300,-7557,15,39,-125,12,9
3375607,1042,-7565,486,39,-124,11,9
3375612,781,-7584,950,40,-121,11,9
3375617,541,-7612,1416,40,-115,10,9
3375622,355,-7650,1827,39,-108,10,9
3375627,213,-7677,2115,38,-100,9,9
3375632,95,-7741,2490,37,-91,9,9
3375637,-163,-7846,3576,32,-83,8,9
3375642,-272,-7872,3923,25,-82,4,9
3375647,-355,-7934,4681,23,-69,3,9
3375652,-480,-7975,5741,22,-56,2,9
3375657,-716,-8050,6497,23,-55,1,9
3375662,-983,-8101,6728,22,-57,1,9
3375667,-1142,-8156,6837,21,-53,2,9
3375672,-1477,-8219,7130,20,-46,4,9
3375677,-1841,-8276,7395,17,-44,3,9
3375682,-1970,-8324,7584,14,-37,2,9
3375687,-2146,-8376,7848,12,-25,2,9
3375692,-2127,-8428,8109,10,-18,1,9
3375697,-2052,-8470,8281,8,-11,1,9
3375702,-1975,-8512,8424,6,-7,0,9
3375707,-1797,-8550,8563,4,-4,0,9
3375712,-1709,-8579,8619,1,-1,-1,9
3375717,-1645,-8605,8680,-1,-1,-2,9
3375722,-1617,-8625,8763,-4,1,-3,9
3375727,-1664,-8637,8793,-6,1,-3,9
3375732,-1683,-8646,8878,-9,2,-3,9
3375737,-1696,-8651,8976,-11,4,-4,9
3375742,-1701,-8650,9008,-13,4,-4,9
3375747,-1690,-8648,9054,-15,6,-5,9
3375752,-1674,-8643,9082,-18,9,-5,9
3375757,-1655,-8633,9082,-20,12,-6,9
3375762,-1660,-8617,9096,-22,15,-7,9
3375767,-1668,-8598,9071,-25,18,-7,9
3375772,-1693,-8568,9011,-27,22,-7,9
3375777,-1723,-8536,8970,-29,27,-8,9
3375782,-1740,-8499,8889,-31,33,-8,9
3375787,-1744,-8458,8750,-33,41,-9,9
3375792,-1727,-8412,8621,-35,48,-9,9
3375797,-1687,-8359,8450,-37,56,-10,9
3375802,-1605,-8304,8267,-40,63,-10,9
3375807,-1504,-8246,8108,-41,68,-11,9
3375812,-1403,-8182,7923,-43,72,-11,9
3375817,-1280,-8117,7731,-45,77,-12,9
3375822,-1151,-8052,7559,-47,82,-13,9
3375827,-1020,-7982,7356,-48,87,-13,9
3375832,-895,-7910,7120,-49,93,-14,9
3375837,-758,-7837,6880,-51,99,-14,9
3375842,-608,-7758,6605,-52,104,-15,9
3375847,-436,-7680,6316,-53,110,-15,9
3375852,-237,-7598,6016,-54,115,-15,9
3375857,-27,-7522,5689,-55,119,-16,9
3375862,215,-7447,5346,-56,122,-16,9
3375867,452,-7374,4998,-56,126,-17,9
3375872,678,-7296,4604,-56,130,-17,9
3375877,882,-7230,4197,-57,137,-18,9
3375882,1109,-7159,3733,-56,142,-18,9
3375887,1315,-7086,3234,-56,144,-18,9
3375892,1415,-7019,2728,-56,148,-18,9
3375897,1477,-6967,2265,-55,152,-19,9
3375902,1530,-6921,1835,-55,155,-19,9
3375907,1551,-6870,1449,-54,158,-19,9
3375912,1898,-6814,1005,-53,159,-18,9
3375917,2409,-6767,459,-49,165,-14,9
3375922,3189,-6708,-541,-43,170,-12,9
3375927,4437,-6716,-2181,-37,174,-13,9
3375932,4717,-6774,-3030,-34,169,-13,9
3375937,5890,-6760,-4650,-34,148,-17,9
3375942,6701,-6852,-6256,-35,154,-18,9
3375947,6886,-6856,-7176,-35,143,-19,9
3375952,7235,-6894,-8107,-34,117,-20,9
3375957,7061,-6984,-8335,-31,103,-17,9
3375962,6875,-7022,-8480,-25,80,-14,9
3375967,6984,-7115,-8812,-19,66,-10,9
3375972,7189,-7176,-9085,-13,59,-7,9
3375977,7771,-7236,-9804,-9,47,-4,9
3375982,8488,-7306,-10564,-6,41,-3,9
3375987,9153,-7361,-11137,-5,30,-3,9
3375992,9749,-7413,-11611,-4,13,-3,9
3375997,9958,-7448,-11598,-2,-4,-2,9
3376002,9941,-7467,-11325,0,-22,-1,9
3376007,9777,-7482,-10906,5,-37,2,9
3376012,9485,-7494,-10392,10,-55,5,9
3376017,9269,-7509,-10158,15,-73,8,9
3376022,9078,-7529,-10078,19,-81,10,9
3376027,8941,-7534,-10109,21,-85,11,9
3376032,8856,-7530,-10179,21,-89,12,9
3376037,8674,-7518,-10000,22,-95,12,9
3376042,8410,-7488,-9631,22,-105,12,9
3376047,8060,-7471,-9052,24,-113,13,9
3376052,7616,-7451,-8307,27,-120,14,9
3376057,7182,-7430,-7635,31,-123,15,9
3376062,6774,-7416,-7084,34,-125,16,9
3376067,6405,-7402,-6724,37,-124,17,9
3376072,6098,-7388,-6530,38,-122,18,9
3376077,5824,-7364,-6364,39,-119,18,9
3376082,5562,-7332,-6165,39,-118,18,9
3376087,5320,-7301,-5834,39,-117,18,9
3376092,5064,-7270,-5333,40,-117,18,9
3376097,4801,-7241,-4767,41,-118,18,9
3376102,4551,-7222,-4199,43,-119,18,9
3376107,4304,-7204,-3697,45,-120,19,9
3376112,4067,-7192,-3326,47,-121,19,9
3376117,3835,-7185,-3072,48,-122,18,9
3376122,3591,-7176,-2875,48,-122,18,9
3376127,3340,-7167,-2659,48,-121,17,9
3376132,3061,-7158,-2365,47,-121,17,9
3376137,2766,-7148,-1974,47,-123,16,9
3376142,2470,-7146,-1486,48,-125,16,9
3376147,2178,-7150,-992,48,-126,15,9
3376152,1921,-7159,-534,49,-125,15,9
3376157,1721,-7177,-88,49,-123,14,9
3376162,1567,-7199,297,49,-120,14,9
3376167,1444,-7216,605,49,-116,13,9
3376172,1345,-7236,906,48,-112,13,9
3376177,1253,-7262,1187,48,-110,12,9
3376182,1159,-7283,1444,47,-109,11,9
3376187,1072,-7307,1673,47,-108,11,9
3376192,994,-7330,1881,47,-107,10,9
3376197,913,-7356,2042,46,-104,10,9
3376202,829,-7431,2471,45,-97,10,9
3376207,589,-7520,3290,39,-87,9,9
3376212,458,-7563,3656,34,-82,7,9
3376217,456,-7602,4346,32,-72,6,9
3376222,300,-7668,5300,33,-63,5,9
3376227,212,-7719,5902,33,-61,4,9
3376232,30,-7778,6153,33,-56,4,9
3376237,-205,-7837,6354,33,-54,5,9
3376242,-448,-7898,6417,33,-53,6,9
3376247,-710,-7952,6254,31,-49,7,9
3376252,-822,-8002,6076,28,-42,6,9
3376257,-828,-8043,5978,25,-32,6,9
3376262,-768,-8085,5963,23,-25,6,9
3376267,-653,-8124,6049,21,-22,5,9
3376272,-544,-8163,6237,20,-22,4,9
3376277,-455,-8193,6348,20,-26,4,9
3376282,-398,-8225,6373,19,-30,4,9
3376287,-370,-8257,6332,19,-35,3,9
3376292,-370,-8283,6147,17,-38,3,9
3376297,-392,-8311,5978,15,-41,3,9
3376302,-413,-8341,5900,13,-41,2,9
3376307,-431,-8362,5909,11,-40,2,9
3376312,-433,-8388,6068,9,-40,2,9
3376317,-411,-8411,6312,8,-40,2,9
3376322,-391,-8435,6546,7,-42,1,9
3376327,-386,-8461,6738,6,-42,1,9
3376332,-394,-8482,6825,5,-40,1,9
3376337,-434,-8503,6801,4,-35,1,9
3376342,-508,-8522,6720,2,-29,0,9
3376347,-612,-8541,6637,-1,-21,0,9
3376352,-729,-8550,6567,-3,-11,0,9
3376357,-828,-8553,6568,-5,-4,0,9
3376362,-905,-8552,6609,-6,1,0,9
3376367,-954,-8549,6624,-7,3,0,9
3376372,-967,-8545,6592,-8,7,0,9
3376377,-951,-8540,6456,-9,11,0,9
3376382,-921,-8533,6206,-10,15,-1,9
3376387,-895,-8525,5907,-11,19,-1,9
3376392,-882,-8511,5576,-12,22,-2,9
3376397,-893,-8497,5249,-14,25,-2,9
3376402,-919,-8482,4989,-15,27,-2,9
3376406,-942,-8466,4776,-16,30,-3,9
3376412,-948,-8449,4599,-16,33,-3,9
3376417,-918,-8436,4443,-16,35,-3,9
3376421,-849,-8424,4273,-17,36,-3,9
3376427,-765,-8411,4077,-17,35,-4,9
3376431,-685,-8402,3882,-18,34,-4,9
3376436,-621,-8393,3710,-19,34,-5,9
3376442,-584,-8377,3602,-20,32,-5,9
3376446,-601,-8376,3585,-21,30,-6,9
3376451,-634,-8360,3615,-21,26,-7,9
3376457,-699,-8350,3701,-22,23,-7,9
3376461,-808,-8344,3785,-22,24,-7,9
3376466,-829,-8336,3842,-23,26,-7,9
3376471,-863,-8320,3846,-23,31,-7,9
3376476,-831,-8306,3816,-24,36,-7,9
3376481,-754,-8289,3738,-25,44,-7,9
3376486,-638,-8265,3630,-26,51,-7,9
3376491,-426,-8242,3491,-26,58,-7,9
3376496,-181,-8216,3274,-27,63,-7,9
3376501,86,-8186,3018,-26,65,-6,9
3376506,303,-8158,2708,-26,68,-6,9
3376511,398,-8144,2381,-25,69,-5,9
3376516,422,-8130,2126,-25,65,-5,9
3376521,505,-8120,1856,-25,60,-6,9
3376526,770,-8079,1478,-25,58,-6,9
3376531,1096,-8073,1115,-22,58,-4,9
3376536,1598,-8008,197,-19,55,-3,9
3376541,2227,-7991,-1079,-15,54,-3,9
3376546,2712,-8013,-2003,-14,51,-5,9
3376551,3220,-8027,-2944,-16,38,-7,9
3376556,3410,-8032,-3653,-19,21,-7,9
3376561,3132,-8030,-3919,-19,4,-7,9
3376566,2835,-8024,-3907,-17,-6,-7,9
3376571,2457,-8027,-3639,-14,-8,-5,9
3376576,2130,-8029,-3460,-10,-12,-3,9
3376581,2069,-8040,-3506,-6,-11,-1,9
3376586,2197,-8060,-3683,-3,-8,1,9
3376591,2502,-8083,-4050,-3,-7,1,9
3376596,2820,-8107,-4364,-4,-6,0,9
3376601,2995,-8131,-4470,-5,-8,-1,9
3376606,3036,-8140,-4351,-5,-10,-2,9
3376611,2911,-8142,-3960,-5,-13,-1,9
3376616,2695,-8144,-3487,-2,-17,0,9
3376621,2493,-8149,-3091,1,-20,1,9
3376626,2347,-8157,-2890,4,-21,3,9
3376631,2314,-8165,-2946,6,-20,4,9
3376636,2352,-8178,-3151,6,-19,4,9
3376641,2422,-8191,-3351,6,-18,4,9
3376646,2445,-8198,-3438,5,-21,3,9
3376651,2358,-8202,-3317,4,-27,2,9
3376656,2164,-8200,-2993,4,-35,2,9
3376661,1894,-8200,-2540,5,-42,3,9
3376666,1627,-8203,-2083,7,-46,3,9
3376671,1409,-8209,-1738,9,-48,4,9
3376676,1246,-8220,-1547,11,-47,5,9
3376681,1137,-8234,-1486,11,-44,5,9
3376686,1048,-8248,-1465,10,-41,4,9
3376691,937,-8257,-1395,9,-36,4,9
3376696,804,-8265,-1186,8,-32,3,9
3376701,648,-8269,-824,7,-29,3,9
3376706,478,-8275,-391,8,-28,3,9
3376711,316,-8285,25,9,-26,3,9
3376716,193,-8294,337,10,-22,4,9
3376721,120,-8304,500,11,-17,4,9
3376726,94,-8314,534,10,-12,4,9
3376731,98,-8327,505,10,-8,4,9
3376736,108,-8335,486,8,-5,3,9
3376741,103,-8340,554,7,-4,3,9
3376746,67,-8346,730,6,-3,3,9
3376751,7,-8347,958,6,-3,3,9
3376756,-56,-8351,1189,7,-2,3,9
3376761,-99,-8356,1349,8,-1,3,9
3376766,-101,-8361,1400,8,0,3,9
3376771,-66,-8364,1343,8,1,3,9
3376776,-8,-8371,1206,8,2,3,9
3376781,51,-8376,1063,7,2,2,9
3376786,84,-8378,970,6,1,2,9
3376791,84,-8374,969,5,1,1,9
3376796,49,-8372,1051,5,0,1,9
3376801,-1,-8370,1161,5,-1,1,9
3376806,-45,-8370,1262,6,-1,1,9
3376811,-65,-8367,1288,7,-1,2,9
3376816,-46,-8368,1243,7,-1,2,9
3376821,5,-8371,1166,6,-1,2,9
3376826,71,-8376,1083,6,-1,1,9
3376831,123,-8378,1057,5,-1,1,9
3376836,149,-8378,1106,4,-2,1,9
3376841,149,-8379,1217,4,-3,0,9
3376846,120,-8379,1348,4,-4,0,9
3376851,87,-8381,1478,5,-4,1,9
3376856,72,-8381,1547,5,-4,1,9
3376861,78,-8383,1538,5,-4,1,9
3376866,104,-8385,1501,5,-3,1,9
3376871,149,-8389,1431,4,-3,1,9
3376876,178,-8395,1382,3,-4,0,9
3376881,186,-8398,1391,3,-4,0,9
3376886,176,-8396,1454,2,-5,0,0
3376891,142,-8395,1559,2,-6,0,0
3376896,97,-8395,1659,2,-7,0,0
3376901,63,-8398,1729,2,-8,0,0
3376906,44,-8401,1742,2,-8,0,0
3376911,47,-8404,1711,2,-9,0,0
3376916,63,-8408,1666,2,-8,0,0
3376921,78,-8413,1624,1,-7,-1,0
3376926,81,-8412,1631,0,-6,-1,0
3376931,58,-8410,1687,0,-5,-1,0
3376936,22,-8407,1757,0,-4,-1,0
3376941,-23,-8408,1840,0,-3,-1,0
3376946,-53,-8411,1896,0,-2,-1,0
3376951,-57,-8411,1888,0,-1,-1,0
3376956,-36,-8411,1844,-1,0,-1,0
3376961,7,-8410,1770,-1,1,-1,0
3376966,54,-8411,1689,-2,1,-1,0
3376971,100,-8408,1643,-2,2,-1,0
3376976,129,-8407,1627,-2,2,-2,0
3376981,136,-8404,1634,-3,2,-2,0
3376986,128,-8400,1644,-3,2,-2,0
3376991,119,-8398,1633,-2,2,-2,0
3376996,119,-8398,1580,-2,2,-1,0
3377001,137,-8396,1501,-2,3,-1,0
3377006,174,-8395,1406,-3,3,-1,0
3377011,214,-8395,1302,-3,3,-2,0
3377016,253,-8392,1232,-3,4,-2,0
3377021,286,-8388,1184,-3,4,-2,0
3377026,301,-8384,1159,-3,4,-2,0
3377031,300,-8380,1150,-3,4,-2,0
3377036,300,-8378,1119,-3,4,-2,0
3377041,305,-8375,1068,-3,4,-2,0
3377046,318,-8374,999,-3,4,-1,0
3377051,346,-8370,906,-3,4,-1,0
3377056,381,-8367,818,-3,4,-1,0
3377061,420,-8367,755,-3,4,-2,0
3377066,451,-8364,717,-3,3,-2,0
3377071,467,-8361,694,-3,3,-2,0
3377076,471,-8358,689,-3,3,-2,0
3377081,469,-8357,668,-2,2,-2,0
3377086,476,-8356,633,-2,2,-1,0
3377091,493,-8353,584,-2,2,-1,0
3377096,524,-8355,517,-2,2,-1,0
3377101,566,-8352,451,-2,2,-1,0
3377106,609,-8349,399,-2,2,-1,0
3377111,641,-8347,362,-2,1,-1,0
3377116,658,-8347,348,-2,1,-1,0
3377121,656,-8346,345,-1,0,-1,0
3377126,646,-8346,333,-1,0,-1,0
3377131,638,-8345,314,-1,-1,-1,0
3377136,637,-8346,283,-1,-1,-1,0
3377141,644,-8347,234,-1,-1,-1,0
3377146,660,-8350,199,0,-1,0,0
3377151,678,-8351,179,0,-1,0,0
3377156,689,-8354,185,0,-2,0,0
3377161,691,-8356,213,0,-2,0,0
3377166,682,-8356,255,0,-2,0,0
3377171,664,-8358,280,0,-2,0,0
3377176,645,-8361,298,1,-2,0,0
3377181,628,-8362,305,1,-2,0,0
3377186,617,-8362,305,1,-2,0,0
3377191,616,-8363,299,1,-2,0,0
3377196,621,-8364,305,1,-2,0,0
3377201,629,-8364,328,1,-3,0,0
3377206,633,-8362,369,1,-3,0,0
3377211,629,-8363,412,1,-3,0,0
3377216,617,-8362,455,1,-3,0,0
3377221,595,-8361,481,1,-3,0,0
3377226,564,-8363,488,1,-3,0,0
3377231,528,-8365,489,1,-3,0,0
3377236,497,-8367,484,1,-3,0,0
3377241,478,-8366,486,1,-3,0,0
3377246,470,-8367,504,1,-3,0,0
3377251,468,-8368,530,1,-3,0,0
3377256,471,-8371,569,1,-3,0,0
3377261,476,-8373,605,1,-3,0,0
3377266,478,-8374,635,2,-3,0,0
3377271,483,-8378,656,2,-3,0,0
3377276,481,-8380,665,2,-3,0,0
3377281,474,-8380,664,2,-3,0,0
3377286,463,-8380,661,2,-3,0,0
3377291,447,-8379,664,2,-3,0,0
3377296,435,-8380,681,1,-3,0,0
3377301,426,-8376,707,2,-3,0,0
3377306,420,-8374,733,2,-3,0,0
3377311,419,-8371,761,2,-3,0,0
3377316,417,-8371,783,2,-3,0,0
3377321,415,-8372,783,2,-3,0,0
3377326,416,-8369,783,2,-3,0,0
3377331,412,-8368,785,2,-3,0,0
3377336,404,-8367,787,1,-3,0,0
3377341,394,-8367,801,1,-3,0,0
3377345,380,-8369,820,1,-3,0,0
3377351,365,-8371,835,1,-3,0,0
3377356,353,-8371,848,2,-3,0,0
3377361,343,-8372,852,2,-4,0,0
3377366,342,-8374,848,2,-4,0,0
3377371,342,-8375,840,2,-5,0,0
3377376,339,-8377,828,2,-6,0,0
3377380,331,-8378,825,1,-7,0,0
3377385,322,-8376,837,1,-7,0,0
3377391,314,-8376,855,1,-6,0,0
3377395,311,-8377,880,1,-6,0,0
3377401,307,-8379,910,1,-6,0,0
3377406,310,-8383,929,1,-6,0,0
3377410,307,-8382,939,1,-6,0,0
3377415,308,-8383,944,1,-6,0,0
3377420,310,-8383,947,1,-6,0,0
3377425,307,-8381,956,1,-6,0,0
3377430,303,-8382,977,1,-6,0,0
3377435,295,-8384,1003,1,-6,0,0
3377440,280,-8385,1033,1,-6,0,0
3377446,262,-8385,1059,1,-5,0,0
3377451,246,-8382,1081,1,-4,0,0
3377455,233,-8381,1091,1,-3,0,0
3377460,226,-8382,1091,1,-2,0,0
3377465,226,-8384,1085,1,-2,0,0
3377470,230,-8383,1088,0,-1,0,0
3377475,247,-8383,1091,0,-1,0,0
3377480,265,-8382,1095,0,-1,0,0
3377485,284,-8383,1106,0,-1,0,0
3377490,301,-8384,1112,0,-1,0,0
3377495,311,-8384,1114,0,-1,0,0
3377500,319,-8385,1109,0,-1,0,0
3377505,325,-8386,1098,0,-1,0,0
3377510,335,-8386,1085,0,0,0,0
3377515,350,-8385,1074,0,0,0,0
3377520,369,-8384,1067,0,0,0,0
3377525,390,-8383,1060,0,0,0,0
3377530,405,-8382,1049,0,0,0,0
3377535,420,-8384,1040,0,0,0,0
3377540,436,-8385,1031,0,0,0,0
3377545,450,-8381,1014,0,0,0,0
3377550,461,-8381,991,0,0,0,0
3377555,466,-8382,966,0,0,0,0
3377560,470,-8385,929,0,0,0,0
3377565,472,-8383,895,0,0,0,0
3377570,471,-8381,871,0,0,0,0
3377575,470,-8381,845,0,0,0,0
3377580,474,-8380,825,0,0,0,0
3377585,482,-8380,809,0,0,0,0
3377590,489,-8377,789,0,0,0,0
3377595,492,-8377,773,0,-1,0,0
3377600,496,-8376,758,0,-1,0,0
3377605,494,-8371,747,0,-1,0,0
3377610,485,-8369,746,0,-1,0,0
3377615,470,-8367,749,0,-1,0,0
3377620,455,-8366,752,0,-1,0,0
3377625,442,-8366,762,0,-1,0,0
3377630,430,-8365,772,0,-1,1,0
3377635,421,-8366,783,0,-1,0,0
3377640,415,-8364,799,0,-1,1,0
3377645,403,-8363,809,0,-1,0,0
3377650,393,-8364,813,0,-1,0,0
3377655,380,-8368,829,0,-1,0,0
3377660,362,-8371,845,0,-1,0,0
3377665,340,-8373,855,0,-1,0,0
3377670,317,-8370,878,0,-1,0,0
3377675,289,-8370,895,0,-1,0,0
3377680,267,-8370,908,0,-1,0,0
3377685,254,-8371,926,0,-1,0,0
3377690,242,-8372,940,0,-1,0,0
3377695,235,-8373,956,0,0,0,0
3377700,232,-8374,971,0,0,0,0
3377705,227,-8375,980,0,0,0,0
3377710,215,-8376,991,0,0,0,0
3377715,204,-8377,1005,0,0,0,0
3377720,190,-8379,1014,0,0,0,0
3377725,177,-8377,1025,0,0,0,0
3377730,167,-8377,1035,0,0,0,0
3377735,159,-8377,1043,0,0,0,0
3377740,154,-8376,1053,0,0,0,0
3377745,147,-8378,1057,0,1,0,0
3377750,143,-8379,1060,-1,1,0,0
3377755,138,-8379,1066,-1,1,0,0
3377760,131,-8380,1066,-1,1,-1,0
3377765,119,-8383,1058,-1,1,-1,0
3377770,111,-8384,1053,-1,1,-1,0
3377775,110,-8383,1049,-1,1,-1,0
3377780,117,-8382,1045,-1,1,-1,0
3377785,128,-8380,1041,-1,1,-1,0
3377790,138,-8382,1037,-1,1,-1,0
3377795,153,-8383,1035,-1,1,-1,0
3377800,165,-8381,1033,-1,1,-1,0
3377805,173,-8378,1029,-1,1,-1,0
3377810,184,-8376,1027,-1,1,-1,0
3377815,198,-8373,1018,-1,1,-1,0
3377820,210,-8372,1004,-1,1,-1,0
3377825,224,-8373,987,-1,1,-1,0
3377830,241,-8375,975,-1,1,-1,0
3377835,263,-8375,964,-1,1,-1,0
3377840,285,-8374,957,-1,1,-1,0
3377845,311,-8374,950,-1,1,-1,0
3377850,332,-8377,943,-1,1,-1,0
3377855,353,-8376,929,-1,1,-1,0
3377860,366,-8373,914,-1,0,-1,0
3377865,378,-8371,899,-1,0,-1,0
3377870,390,-8371,882,-1,0,-1,0
3377875,405,-8369,870,-1,0,-1,0
3377880,418,-8367,864,-1,0,-1,0
3377885,430,-8365,865,-1,-1,-1,0
3377890,443,-8366,871,-1,-1,-1,0
3377895,458,-8367,878,-1,-1,-1,0
3377900,463,-8370,884,-1,-1,-1,0
3377905,463,-8373,892,-1,-1,-1,0
3377910,456,-8376,900,-1,-1,-1,0
3377915,451,-8375,900,-1,-1,-1,0
3377920,442,-8377,904,-1,-1,-1,0
3377925,439,-8378,906,-1,-1,-1,0
3377930,440,-8378,917,-1,-1,-1,0
3377935,441,-8380,936,-1,0,-1,0
3377940,444,-8379,946,-1,0,0,0
3377945,442,-8379,953,-1,0,0,0
3377950,439,-8380,961,-1,0,0,0
3377955,433,-8380,966,-1,0,0,0
3377960,431,-8381,970,-1,0,0,0
3377965,428,-8379,979,-1,0,0,0
3377970,424,-8377,985,-1,0,0,0
3377975,422,-8375,992,-1,0,0,0
3377980,422,-8374,995,-1,1,0,0
3377985,427,-8376,996,-1,1,0,0
3377990,433,-8375,996,-1,1,0,0
3377995,438,-8375,996,-1,1,0,0
3378000,441,-8376,991,-2,1,0,0
3378005,440,-8374,982,-2,1,0,0
3378010,435,-8373,972,-2,1,0,0
3378015,432,-8371,960,-2,2,0,0
3378020,427,-8373,954,-2,2,0,0
3378025,424,-8374,946,-2,2,0,0
3378030,423,-8374,934,-2,2,0,0
3378035,426,-8372,924,-2,2,0,0
3378040,433,-8372,909,-2,3,0,0
3378045,443,-8373,898,-2,3,0,0
3378050,457,-8373,882,-2,2,0,0
3378055,468,-8372,873,-2,2,0,0
3378060,475,-8370,867,-2,2,0,0
3378065,476,-8370,859,-2,2,0,0
3378070,481,-8370,855,-2,2,0,0
3378075,481,-8368,849,-2,2,0,0
3378080,480,-8365,844,-1,1,0,0
3378085,476,-8364,836,-1,1,0,0
3378090,463,-8364,823,-1,1,0,0
3378095,447,-8364,810,-1,1,0,0
3378100,430,-8364,800,-1,1,0,0
3378105,410,-8366,797,-1,1,0,0
3378110,389,-8367,800,-1,1,0,0
3378115,369,-8368,808,-1,1,0,0
3378120,351,-8370,817,-1,1,0,0
3378125,332,-8369,820,-1,1,0,0
3378130,317,-8370,818,-1,1,0,0
3378135,297,-8374,814,-1,1,0,0
3378140,283,-8376,807,-1,2,0,0
3378145,262,-8375,799,-1,1,0,0
3378150,243,-8378,801,-1,1,0,0
3378155,234,-8378,804,-1,1,0,0
3378160,231,-8380,814,-1,1,0,0
3378165,232,-8379,832,-1,1,0,0
3378170,240,-8378,847,-1,1,0,0
3378175,240,-8378,857,-1,1,0,0
3378180,233,-8379,864,-1,1,0,0
3378185,216,-8379,866,-1,2,0,0
3378190,196,-8381,868,-1,2,0,0
3378195,178,-8384,870,-1,2,0,0
3378200,160,-8384,881,-2,3,0,0
3378205,155,-8380,894,-2,4,0,0
3378210,158,-8378,910,-2,5,0,0
3378215,171,-8376,927,-2,5,0,0
3378220,185,-8375,934,-2,5,0,0
3378225,193,-8371,927,-2,6,0,0
3378230,197,-8379,927,-2,7,0,0
3378235,217,-8381,927,-2,8,0,0
3378240,231,-8383,934,-2,6,0,0
3378245,242,-8382,935,-2,5,0,0
3378250,261,-8380,926,-2,4,0,0
3378255,268,-8379,919,-2,4,0,0
3378260,275,-8380,903,-2,5,0,0
3378265,277,-8380,891,-2,5,0,0
3378270,264,-8379,873,-2,4,-1,0
3378275,253,-8378,849,-2,4,-1,0
3378280,238,-8378,836,-2,5,0,0
3378285,235,-8377,826,-2,5,0,0
3378290,242,-8375,823,-2,5,0,0
3378295,252,-8374,827,-2,5,0,0
3378300,271,-8371,820,-2,5,0,0
3378305,290,-8373,814,-2,5,-1,0
3378310,305,-8374,802,-2,5,-1,0
3378314,317,-8375,784,-2,4,-1,0
3378320,318,-8375,769,-2,4,-1,0
3378325,317,-8372,752,-2,4,-1,0
3378330,316,-8371,745,-2,4,0,0
3378335,314,-8372,743,-2,4,0,0
3378340,321,-8373,738,-2,4,0,0
3378345,331,-8372,739,-2,3,0,0
3378350,345,-8375,738,-2,3,0,0
3378355,355,-8375,731,-1,3,0,0
3378360,360,-8376,725,-1,2,-1,0
3378365,365,-8377,721,-1,2,-1,0
3378370,369,-8377,712,-1,2,0,0
3378375,376,-8374,707,-1,2,0,0
3378380,387,-8371,705,-1,1,0,0
3378384,395,-8368,694,-1,1,0,0
3378390,398,-8365,679,-1,1,0,0
3378395,397,-8367,664,-1,1,0,0
3378400,388,-8367,644,-1,1,0,0
3378405,378,-8370,629,-1,1,0,0
3378409,369,-8373,619,-1,1,0,0
3378415,362,-8374,614,-1,1,0,0
3378420,363,-8371,613,-1,0,0,0
3378424,371,-8370,614,-1,0,0,0
3378429,383,-8372,615,-1,-1,0,0
3378434,388,-8373,613,-1,-1,0,0
3378439,392,-8371,613,-1,-1,0,0
3378444,381,-8371,607,-1,-1,0,0
3378449,363,-8370,595,0,-1,0,0
3378454,345,-8368,590,0,-1,0,0
3378459,332,-8364,583,0,-1,0,0
3378464,328,-8363,585,0,-1,0,0
3378469,329,-8365,590,0,-1,0,0
3378474,339,-8365,603,0,-1,0,0
3378479,352,-8364,607,0,-1,0,0
3378484,361,-8361,611,0,-1,0,0
3378489,363,-8360,619,0,-1,0,0
3378494,359,-8358,622,0,-2,0,0
3378499,353,-8358,627,0,-2,0,0
3378504,346,-8360,627,0,-2,0,0
3378509,331,-8363,633,0,-2,0,0
3378514,322,-8366,642,0,-1,0,0
3378519,313,-8366,648,0,-1,0,0
3378524,308,-8365,649,0,-1,0,0
3378529,306,-8368,657,0,-1,0,0
3378534,309,-8367,666,0,-1,0,0
3378539,315,-8370,669,0,-1,0,0
3378544,322,-8371,675,0,-1,0,0
3378549,329,-8376,683,0,-1,0,0
3378554,333,-8374,700,0,-2,0,0
3378559,334,-8370,717,0,-2,0,0
3378564,332,-8370,736,0,-2,0,0
3378569,330,-8372,750,0,-2,0,0
3378574,322,-8372,759,0,-1,0,0
3378579,312,-8371,764,0,-1,0,0
3378584,298,-8371,765,0,-1,0,0
3378589,284,-8376,765,0,-1,0,0
3378594,276,-8379,765,0,-1,0,0
3378599,273,-8382,768,0,-1,0,0
3378604,275,-8383,775,0,-1,0,0
3378609,280,-8383,782,0,-1,0,0
3378614,285,-8384,794,0,-1,0,0
3378619,287,-8380,801,0,-1,0,0
3378624,283,-8378,807,0,-1,0,0
3378629,271,-8378,811,0,-1,0,0
3378634,257,-8377,813,0,-1,0,0
3378639,240,-8379,810,0,-1,0,0
3378644,225,-8379,804,0,-1,0,0
3378649,221,-8379,807,0,-1,0,0
3378654,225,-8379,811,0,-1,0,0
3378659,232,-8382,820,0,-1,0,0
3378664,239,-8380,829,0,-1,0,0
3378669,244,-8378,835,0,-1,-1,0
3378674,249,-8377,842,0,-1,-1,0
3378679,246,-8376,844,0,-1,-1,0
3378684,236,-8377,845,0,-1,-1,0
3378689,228,-8377,851,0,-1,-1,0
3378694,221,-8378,861,0,-1,-1,0
3378699,219,-8375,874,0,-1,-1,0
3378704,221,-8375,892,0,-1,-1,0
3378709,232,-8377,900,0,-1,-1,0
3378714,242,-8376,911,0,-1,-1,0
3378719,246,-8380,919,0,-1,-1,0
3378724,249,-8380,924,0,-1,-1,0
3378729,253,-8379,920,0,0,-1,0
3378734,244,-8377,909,0,0,-1,0
3378739,237,-8374,897,0,0,-1,0
3378744,233,-8373,882,0,0,-1,0
3378749,230,-8374,869,0,0,-1,0
3378754,233,-8373,866,0,0,-1,0
3378759,239,-8373,865,0,0,-1,0
3378764,248,-8373,868,0,-1,-1,0
3378769,258,-8372,871,0,0,-1,0
3378774,263,-8370,875,0,0,-1,0
3378779,271,-8369,877,0,0,-1,0
3378784,275,-8369,880,0,0,-1,0
3378789,275,-8369,879,0,-1,-1,0
3378794,277,-8370,874,0,0,-1,0
3378799,274,-8368,868,0,0,-1,0
3378804,265,-8366,860,0,0,-1,0
3378809,259,-8366,852,0,0,-1,0
3378814,257,-8369,853,0,0,-1,0
3378819,260,-8371,853,0,0,-1,0
3378824,269,-8371,852,0,0,-1,0
3378829,281,-8371,857,0,0,-1,0
3378834,295,-8370,858,0,0,-1,0
3378839,304,-8370,859,0,0,-1,0
3378844,314,-8369,859,0,0,-1,0
3378849,322,-8371,857,0,0,-1,0
3378854,326,-8373,853,0,-1,-1,0
3378859,327,-8373,849,0,-1,-1,0
3378864,331,-8372,851,0,-1,-1,0
3378869,336,-8375,853,0,-1,-1,0
3378874,337,-8376,860,0,-1,-1,0
3378879,335,-8377,868,0,-1,-1,0
3378884,328,-8379,883,-1,-1,-1,0
3378889,322,-8380,898,-1,-1,-1,0
3378894,310,-8379,912,-1,-1,-1,0
3378899,299,-8379,923,-1,-1,-1,0
3378904,288,-8381,935,-1,-1,-1,0
3378909,285,-8380,947,-1,0,-1,0
3378914,285,-8378,961,-1,0,-1,0
3378919,290,-8378,975,-1,0,-1,0
3378924,302,-8375,989,-1,0,-1,0
3378929,316,-8375,994,-1,0,-1,0
3378934,323,-8378,999,-1,0,-1,0
3378939,334,-8381,1000,-1,0,-1,0
3378944,334,-8382,999,-1,0,-1,0
3378949,326,-8381,1001,-1,0,-1,0
3378954,312,-8379,996,-1,0,-1,0
3378959,300,-8381,991,-1,0,-1,0
3378964,289,-8380,986,-1,0,-1,0
3378969,282,-8380,982,-1,0,-1,0
3378974,274,-8379,976,-1,0,-1,0
3378979,269,-8378,959,-1,0,-1,0
3378984,261,-8379,945,-1,0,-1,0
3378989,247,-8378,929,-1,0,-1,0
3378994,232,-8378,912,-1,0,-1,0
3378999,243,-8382,925,-2,1,-1,0
3379004,244,-8381,938,-2,1,-1,0
3379009,253,-8380,948,-2,0,-1,0
3379014,273,-8383,968,-2,1,-1,0
3379019,265,-8384,955,-1,0,-1,0
3379024,261,-8384,925,-1,0,-1,0
3379029,241,-8383,882,-1,0,-2,0
3379034,219,-8381,843,-2,0,-2,0
3379039,201,-8381,808,-2,1,-1,0
3379044,183,-8380,784,-2,1,-1,0
3379049,186,-8376,777,-2,1,-1,0
3379054,184,-8373,772,-2,1,-2,0
3379059,192,-8371,766,-1,1,-2,0
3379064,203,-8372,752,-1,1,-2,0
3379069,207,-8371,712,-1,1,-2,0
3379074,213,-8372,682,-1,0,-2,0
3379079,219,-8367,649,-1,0,-2,0
3379084,224,-8363,629,-1,0,-2,0
3379089,232,-8362,633,-1,0,-2,0
3379094,242,-8362,651,-1,-1,-2,0
3379099,258,-8363,678,-1,-1,-2,0
3379104,279,-8366,703,-1,-1,-2,0
3379109,300,-8367,710,-1,-1,-2,0
3379114,318,-8368,704,-1,-1,-2,0
3379119,335,-8369,694,-1,-1,-2,0
3379124,346,-8369,685,-1,-1,-2,0
3379129,350,-8370,682,-1,-1,-2,0
3379134,356,-8367,689,-1,-1,-2,0
3379139,360,-8366,707,-1,-1,-2,0
3379144,370,-8369,727,-1,-1,-2,0
3379149,390,-8371,750,-1,-1,-2,0
3379154,409,-8373,755,-1,-1,-2,0
3379159,430,-8374,753,-1,-1,-2,0
3379164,446,-8374,744,-1,-1,-2,0
3379169,454,-8374,728,-1,-1,-2,0
3379174,455,-8373,717,-1,-1,-2,0
3379179,452,-8374,717,-1,-1,-2,0
3379184,447,-8372,726,-1,-1,-2,0
3379189,444,-8371,736,-1,-1,-2,0
3379194,450,-8373,745,-1,-1,-1,0
3379199,462,-8375,744,-1,-1,-1,0
3379204,481,-8374,737,-1,-1,-1,0
3379209,502,-8373,724,-1,-1,-1,0
3379214,513,-8372,708,-1,-1,-1,0
3379219,516,-8374,704,-1,-1,-1,0
3379224,509,-8373,709,-1,-1,-1,0
3379229,494,-8370,712,-1,-1,-1,0
3379234,483,-8370,724,-1,-1,-1,0
3379239,475,-8369,733,0,-1,-1,0
3379244,474,-8369,736,0,-1,-1,0
3379249,480,-8370,737,0,-1,-1,0
3379254,489,-8369,729,0,0,-1,0
3379259,494,-8367,714,0,0,-1,0
3379264,491,-8365,700,0,0,-1,0
3379269,486,-8363,702,0,0,-1,0
3379274,472,-8363,710,0,-1,-1,0
3379278,457,-8363,713,0,-1,-1,0
3379284,450,-8364,713,0,-1,-1,0
3379289,441,-8369,709,0,-1,-1,0
3379294,442,-8369,703,0,-1,-1,0
3379299,449,-8372,692,0,-1,-1,0
3379303,452,-8373,682,0,-1,-1,0
3379308,448,-8373,680,0,-1,-1,0
3379313,436,-8371,684,0,-1,-1,0
3379319,425,-8372,694,0,-1,-1,0
3379323,412,-8373,703,0,-1,-1,0
3379328,402,-8374,718,0,-1,-1,0
3379333,399,-8374,733,0,-1,-1,0
3379338,399,-8375,743,0,-1,-1,0
3379343,403,-8374,748,0,-1,-1,0
3379348,408,-8374,755,0,-1,-1,0
3379353,407,-8374,766,0,-1,-1,0
3379358,403,-8372,776,0,-1,-1,0
3379363,396,-8372,790,0,-1,-1,0
3379368,386,-8369,799,0,-1,-1,0
3379373,377,-8369,802,0,-1,-1,0
3379378,376,-8372,800,0,0,-1,0
3379383,382,-8372,795,0,0,-1,0
3379388,393,-8372,791,0,0,-1,0
3379393,410,-8374,793,0,0,-1,0
3379398,423,-8372,793,0,-1,-1,0
3379403,438,-8371,794,0,-1,-1,0
3379408,447,-8373,796,0,-1,-1,0
3379413,451,-8373,797,0,-1,-1,0
3379418,452,-8372,797,0,-1,-1,0
3379423,453,-8370,800,0,-1,-1,0
3379428,454,-8370,801,0,-1,-1,0
3379433,452,-8373,793,0,-1,-1,0
3379438,453,-8374,791,0,-1,-1,0
3379443,458,-8371,790,0,-1,-1,0
3379448,457,-8370,796,0,-1,-1,0
3379453,453,-8371,810,0,-1,-1,0
3379458,447,-8370,820,0,-1,-1,0
3379463,443,-8369,828,0,-1,-1,0
3379468,438,-8368,833,0,-1,-1,0
3379473,435,-8368,838,0,-1,-1,0
3379478,430,-8369,848,0,-1,-1,0
3379483,426,-8371,853,0,-1,-1,0
3379488,417,-8373,864,0,-1,-1,0
3379493,407,-8373,868,0,-1,-1,0
3379498,396,-8374,875,0,-1,-1,0
3379503,381,-8373,882,0,-1,-1,0
3379508,370,-8372,892,0,-1,-1,0
3379513,364,-8369,893,0,0,-1,0
3379518,356,-8368,894,0,0,-1,0
3379523,354,-8368,893,0,-1,-1,0
3379528,356,-8367,888,0,-1,-1,0
3379533,357,-8367,894,0,-1,-1,0
3379538,355,-8367,899,0,0,-1,0
3379543,353,-8368,903,0,0,-1,0
3379548,348,-8369,910,0,0,-1,0
3379553,340,-8371,911,0,0,-1,0
3379558,334,-8371,913,-1,0,-1,0
3379563,327,-8373,915,-1,0,-1,0
3379568,324,-8373,911,-1,0,-1,0
3379573,329,-8374,909,-1,0,-1,0
3379578,334,-8375,914,-1,0,-1,0
3379583,341,-8374,918,-1,0,-1,0
3379588,347,-8375,919,-1,0,-1,0
3379593,348,-8371,927,-1,0,-1,0
3379598,348,-8373,931,-1,0,-1,0
3379603,344,-8371,932,-1,0,-1,0
3379608,337,-8373,930,-1,0,-1,0
3379613,331,-8376,931,-1,0,-1,0
3379618,329,-8378,923,-1,0,-1,0
3379623,330,-8382,921,-1,0,-1,0
3379628,337,-8381,925,-1,0,-1,0
3379633,349,-8381,930,-1,1,-1,0
3379638,361,-8380,938,-1,1,-1,0
3379643,377,-8379,939,-1,1,-1,0
3379648,388,-8378,937,-1,1,-1,0
3379653,396,-8377,937,-1,1,-1,0
3379658,402,-8379,935,-1,1,-1,0
3379663,406,-8380,927,-1,1,-1,0
3379668,407,-8381,919,-1,1,-1,0
3379673,408,-8378,913,-1,1,-1,0
3379678,412,-8379,907,-1,1,-1,0
3379683,413,-8381,906,-1,1,-1,0
3379688,417,-8382,906,-1,1,-1,0
3379693,420,-8382,904,-1,1,-1,0
3379698,421,-8381,906,-1,1,-1,0
3379703,426,-8377,907,-1,1,-1,0
3379708,433,-8373,901,-1,1,-1,0
3379713,443,-8375,902,-1,1,-1,0
3379718,456,-8371,904,-1,1,-1,0
3379723,466,-8369,904,-1,1,-1,0
3379728,472,-8370,904,-2,1,-1,0
3379733,476,-8373,899,-1,1,-1,0
3379738,471,-8371,889,-1,1,-1,0
3379743,465,-8369,873,-2,1,-1,0
3379748,459,-8371,862,-1,1,-1,0
3379753,455,-8369,847,-2,1,-1,0
3379758,457,-8370,835,-2,1,-1,0
3379763,458,-8370,828,-2,1,-1,0
3379768,461,-8369,826,-2,1,-1,0
3379773,465,-8368,827,-2,1,-1,0
3379778,459,-8371,831,-2,0,-1,0
3379783,449,-8371,826,-2,0,-1,0
3379788,436,-8371,824,-2,0,-1,0
3379793,419,-8372,815,-2,0,-1,0
3379798,405,-8369,811,-2,0,-1,0
3379803,396,-8368,802,-2,0,-1,0
3379808,396,-8370,801,-2,0,-1,0
3379813,397,-8370,804,-2,0,-1,0
3379818,403,-8372,811,-2,0,-1,0
3379823,406,-8374,815,-2,1,-1,0
3379828,410,-8374,814,-2,1,-1,0
3379833,412,-8374,806,-2,0,-1,0
3379838,406,-8374,796,-2,0,-1,0
3379843,399,-8373,786,-1,0,-1,0
3379848,392,-8372,783,-2,0,-1,0
3379853,386,-8371,780,-2,0,-1,0
3379858,383,-8364,778,-2,0,-1,0
3379863,381,-8365,774,-2,0,-2,0
3379868,381,-8365,775,-2,0,-2,0
3379873,380,-8361,778,-2,0,-2,0
3379878,377,-8361,776,-1,0,-2,0
3379883,372,-8361,767,-2,0,-2,0
3379888,365,-8360,763,-2,0,-2,0
3379893,363,-8361,761,-2,1,-2,0
3379898,364,-8360,760,-2,1,-2,0
3379903,370,-8361,760,-2,1,-2,0
3379908,374,-8364,757,-1,1,-2,0
3379913,375,-8368,754,-1,1,-2,0
3379918,382,-8370,742,-2,1,-2,0
3379923,391,-8369,734,-1,2,-2,0
3379928,403,-8368,732,-1,2,-2,0
3379933,417,-8368,729,-1,2,-2,0
3379938,439,-8367,721,-1,2,-2,0
3379943,460,-8366,716,-1,2,-2,0
3379948,483,-8364,708,-1,2,-2,0
3379953,505,-8365,702,-1,2,-2,0
3379958,523,-8366,697,-1,2,-2,0
3379963,540,-8368,690,-1,2,-2,0
3379968,557,-8366,676,-1,2,-2,0
3379973,572,-8365,660,-1,2,-2,0
3379978,589,-8366,643,-1,2,-2,0
3379983,613,-8365,628,-1,2,-1,0
3379988,639,-8365,613,-1,1,-1,0
3379993,659,-8362,596,-1,1,-1,0
3379998,678,-8359,582,-1,1,-1,0
3380003,698,-8358,569,-1,1,-1,0
3380008,714,-8358,558,-1,0,-1,0
3380013,730,-8358,556,-1,0,-1,0
3380018,737,-8357,555,-1,-1,-1,0
3380023,744,-8359,556,-1,-1,-1,0
3380028,748,-8360,555,-1,-1,-1,0
3380033,743,-8360,560,0,-1,-1,0
3380038,744,-8360,564,0,-1,-1,0
3380043,744,-8359,567,0,-1,-1,0
3380048,739,-8360,575,0,-1,-1,0
3380053,735,-8363,576,0,-1,0,0
3380058,728,-8366,583,0,-1,0,0
3380063,724,-8370,588,0,-1,0,0
3380068,722,-8371,589,0,-1,0,0
3380073,718,-8372,597,0,-1,0,0
3380078,710,-8369,604,0,-2,0,0
3380083,700,-8367,617,0,-2,0,0
3380088,685,-8363,623,0,-2,0,0
3380093,667,-8361,629,0,-2,0,0
3380098,650,-8361,639,0,-2,0,0
3380103,628,-8362,646,0,-1,0,0
3380108,610,-8365,658,0,-1,0,0
3380113,598,-8365,674,0,-1,0,0
3380118,584,-8366,682,0,-2,0,0
3380123,575,-8368,689,0,-1,0,0
3380128,562,-8368,699,0,-1,0,0
3380133,545,-8368,713,0,-1,0,0
3380138,523,-8366,724,0,-1,0,0
3380143,501,-8369,735,0,-1,0,0
3380148,482,-8372,739,0,-1,0,0
3380153,469,-8372,740,0,-1,0,0
3380158,461,-8370,741,0,-1,0,0
3380163,457,-8369,747,0,-1,0,0
3380168,457,-8368,751,0,-1,0,0
3380173,457,-8367,753,0,-1,0,0
3380178,448,-8369,746,0,0,0,0
3380183,432,-8369,746,0,0,0,0
3380188,413,-8369,745,0,0,0,0
3380193,396,-8371,742,0,0,0,0
3380198,379,-8371,737,0,0,0,0
3380203,366,-8370,736,0,0,0,0
3380207,357,-8371,729,0,0,0,0
3380213,349,-8371,722,0,0,0,0
3380217,348,-8371,724,0,0,-1,0
3380222,340,-8370,723,0,0,-1,0
3380227,326,-8372,722,0,1,-1,0
3380233,306,-8371,719,0,1,-1,0
3380237,273,-8370,715,0,1,-1,0
3380242,243,-8369,708,0,2,-1,0
3380247,221,-8367,697,0,2,-1,0
3380252,216,-8366,686,0,2,-1,0
3380258,231,-8368,688,0,2,-1,0
3380262,256,-8368,699,0,2,-1,0
3380267,295,-8369,721,0,1,-1,0
3380273,333,-8369,747,0,1,-1,0
3380278,362,-8371,781,0,1,-1,0
3380282,384,-8370,811,0,1,-1,0
3380287,398,-8371,840,0,1,-1,0
3380292,404,-8373,861,0,1,-1,0
3380297,402,-8374,872,0,1,-1,0
3380302,401,-8374,877,0,2,-1,0
3380307,400,-8375,874,0,2,-1,0
3380312,399,-8373,871,0,3,-1,0
3380317,400,-8371,869,0,3,-1,0
3380322,405,-8370,867,0,3,-1,0
3380327,412,-8371,869,0,3,-1,0
3380332,429,-8373,878,0,2,-1,0
3380337,445,-8372,889,0,1,-1,0
3380342,453,-8374,893,0,0,-1,0
3380347,456,-8375,899,0,1,-1,0
3380352,455,-8373,906,0,1,-1,0
3380357,450,-8371,912,0,1,-1,0
3380362,443,-8372,924,0,1,-1,0
3380367,437,-8372,939,0,2,-1,0
3380372,441,-8374,951,0,2,-1,0
3380377,451,-8378,961,0,3,-1,0
3380382,471,-8379,976,-1,4,-1,0
3380387,497,-8378,986,-1,4,-1,0
3380392,521,-8375,993,-1,4,-1,0
3380397,545,-8372,994,-1,4,-1,0
3380402,563,-8371,988,-1,4,-1,0
3380407,575,-8374,977,-1,4,-1,0
3380412,573,-8375,961,-1,4,-1,0
3380417,569,-8379,945,-1,4,-1,0
3380422,568,-8380,932,-1,4,-1,0
3380427,572,-8379,917,-1,3,-1,0
3380432,580,-8377,900,-1,3,-1,0
3380437,591,-8375,889,-1,3,-1,0
3380442,604,-8374,880,-1,3,-1,0
3380447,613,-8373,874,-1,3,-1,0
3380452,619,-8374,869,-1,3,-1,0
3380457,626,-8373,864,-1,2,-1,0
3380462,628,-8373,860,-1,2,-1,0
3380467,623,-8376,849,-1,2,-1,0
3380472,619,-8377,837,-1,2,-1,0
3380477,613,-8375,832,-1,3,-1,0
3380482,604,-8377,830,-1,3,-1,0
3380487,604,-8375,829,-1,4,-1,0
3380492,609,-8374,827,-1,4,-1,0
3380497,617,-8374,821,-1,3,0,0
3380502,626,-8373,815,-1,3,0,0
3380507,639,-8373,805,-1,2,0,0
3380512,642,-8372,798,-1,2,0,0
3380517,638,-8372,789,-1,2,0,0
3380522,630,-8371,782,-1,1,0,0
3380527,616,-8371,776,-1,1,-1,0
3380532,606,-8371,771,-1,1,0,0
3380537,596,-8371,765,-1,1,0,0
3380542,587,-8371,763,-1,1,0,0
3380547,589,-8369,765,-1,1,0,0
3380552,595,-8369,763,-1,0,0,0
3380557,600,-8372,767,-1,0,0,0
3380562,602,-8374,770,-1,0,0,0
3380567,597,-8375,775,-1,0,0,0
3380572,585,-8372,772,-1,0,0,0
3380577,563,-8370,770,-1,0,0,0
3380582,543,-8371,774,-1,0,0,0
3380587,523,-8372,777,-1,0,0,0
3380592,500,-8372,782,-1,0,0,0
3380597,490,-8372,783,-1,0,0,0
3380602,483,-8373,782,-1,0,0,0
3380607,481,-8373,784,-1,0,0,0
3380612,481,-8371,785,-1,0,0,0
3380617,476,-8371,784,-1,0,0,0
3380622,473,-8371,780,-1,0,0,0
3380627,464,-8368,775,-1,0,-1,0
3380632,450,-8368,766,-1,0,-1,0
3380637,435,-8368,753,-1,0,-1,0
3380642,419,-8368,741,-1,1,-1,0
3380647,404,-8369,731,-1,1,-1,0
3380652,395,-8368,722,-1,2,-1,0
3380657,388,-8367,707,-1,2,-1,0
3380662,387,-8366,691,-1,3,-1,0
3380667,394,-8365,676,-1,4,-1,0
3380672,411,-8366,668,-1,5,-1,0
3380677,435,-8367,663,-1,4,-1,0
3380682,458,-8368,659,-1,3,-1,0
3380687,479,-8369,654,-1,2,-1,0
3380692,496,-8368,649,-1,1,-1,0
3380697,511,-8367,643,0,1,-1,0
3380702,521,-8366,639,0,0,-1,0
3380707,529,-8366,640,0,0,-1,0
3380712,533,-8364,640,0,0,-1,0
3380717,533,-8364,641,0,0,-1,0
3380722,534,-8365,649,0,-1,-1,0
3380727,537,-8366,658,0,-1,-1,0
3380732,548,-8366,666,0,-1,-1,0
3380737,564,-8366,667,0,-1,-1,0
3380742,581,-8364,670,0,-1,-1,0
3380747,596,-8366,673,0,-1,-1,0
3380752,602,-8367,675,0,-1,-1,0
3380757,603,-8365,672,0,-1,-1,0
3380762,598,-8365,674,0,-1,-1,0
3380767,588,-8367,677,0,-1,-1,0
3380772,577,-8367,675,0,-1,-1,0
3380777,566,-8365,672,0,-1,-1,0
3380782,564,-8366,668,0,-1,-1,0
3380787,564,-8366,671,0,-1,0,0
3380792,574,-8369,678,0,-1,0,0
3380797,584,-8372,681,0,-1,-1,0
3380802,589,-8373,690,0,-1,-1,0
3380807,589,-8371,699,0,-1,-1,0
3380812,587,-8374,716,0,-1,-1,0
3380817,583,-8374,722,0,-1,-1,0
3380822,569,-8372,726,0,-1,0,0
3380827,560,-8373,727,0,-1,0,0
3380832,550,-8370,726,0,-1,0,0
3380837,540,-8369,722,0,-1,-1,0
3380842,530,-8370,716,0,-1,-1,0
3380847,524,-8369,716,0,-1,-1,0
3380852,520,-8367,723,0,-1,0,0
3380857,517,-8369,730,0,-1,0,0
3380862,518,-8372,734,0,-1,-1,0
3380867,521,-8372,739,0,-1,-1,0
3380872,525,-8371,743,0,-1,-1,0
3380877,525,-8372,745,0,-1,-1,0
3380882,530,-8370,751,0,-1,-1,9
3380887,536,-8370,751,0,-1,-1,9
3380892,536,-8368,747,0,-1,-1,9
3380897,534,-8367,748,0,-1,-1,9
3380902,532,-8365,752,0,-1,-1,9
3380907,529,-8366,754,1,-1,-1,9
3380912,529,-8365,754,0,-1,-1,9
3380917,532,-8365,757,1,-1,0,9
3380922,538,-8362,756,0,-1,0,9
3380927,545,-8363,758,0,-1,0,9
3380932,550,-8362,764,1,-1,-1,9
3380937,555,-8360,770,0,-1,-1,9
3380942,558,-8363,779,1,-1,-1,9
3380947,552,-8364,780,1,-1,-1,9
3380952,547,-8364,783,1,-1,0,9
3380957,537,-8365,781,1,-1,0,9
3380962,527,-8365,782,1,-1,0,9
3380967,520,-8364,773,1,-1,-1,9
3380972,508,-8364,763,1,-1,-1,9
3380977,498,-8364,762,1,-1,-1,9
3380982,490,-8363,762,1,-1,0,9
3380987,483,-8362,760,1,-1,-1,9
3380992,482,-8361,763,1,-1,-1,9
3380997,485,-8361,766,1,-1,-1,9
3381002,488,-8361,773,1,-2,-1,9
3381007,496,-8364,775,1,-2,-1,9
3381012,500,-8368,782,1,-2,-1,9
3381017,500,-8369,789,1,-2,-1,9
3381022,502,-8369,792,1,-2,-1,9
3381027,500,-8369,794,1,-2,-1,9
3381032,497,-8371,789,1,-2,-1,9
3381037,494,-8370,785,1,-1,-1,9
3381042,497,-8370,788,1,-1,-1,9
3381047,505,-8371,794,1,-1,-1,9
3381052,520,-8369,797,1,-2,-1,9
3381057,535,-8365,799,1,-2,-1,9
3381062,550,-8363,799,1,-2,-1,9
3381067,563,-8363,803,1,-2,-1,9
3381072,566,-8366,808,1,-2,-1,9
3381077,562,-8366,808,1,-2,-1,9
3381082,553,-8366,811,1,-2,-1,9
3381087,541,-8364,814,1,-2,0,9
3381092,534,-8362,806,1,-2,0,9
3381097,528,-8363,799,1,-2,0,9
3381102,522,-8364,787,1,-2,0,9
3381107,525,-8365,777,1,-2,0,9
3381112,530,-8365,774,1,-2,-1,9
3381117,534,-8363,773,1,-2,-1,9
3381122,541,-8365,776,1,-2,-1,9
3381127,546,-8366,781,1,-3,-1,9
3381132,546,-8365,789,1,-3,-1,9
3381137,548,-8366,798,1,-3,-1,9
3381141,546,-8368,810,1,-3,-1,9
3381146,540,-8370,824,1,-3,-1,9
3381152,536,-8370,836,1,-3,-1,9
3381157,532,-8369,845,1,-3,0,9
3381162,528,-8366,851,1,-2,-1,9
3381167,524,-8367,862,1,-2,-1,9
3381171,520,-8367,874,1,-2,0,9
3381177,519,-8368,887,1,-2,0,9
3381182,520,-8371,899,1,-2,0,9
3381187,522,-8374,907,1,-2,-1,9
3381191,526,-8374,914,1,-2,-1,9
3381197,525,-8374,925,1,-2,-1,9
3381202,517,-8377,933,1,-2,-1,9
3381207,510,-8377,939,1,-2,-1,9
3381212,501,-8376,942,1,-2,-1,9
3381216,497,-8376,949,1,-2,-1,9
3381221,495,-8377,950,1,-1,-1,9
3381226,499,-8378,955,1,-1,0,9
3381232,508,-8382,958,1,-1,-1,9
3381236,526,-8384,969,1,-1,-1,9
3381241,545,-8381,984,1,-2,-1,9
3381247,565,-8380,998,1,-2,0,9
3381252,581,-8375,1016,1,-2,0,9
3381256,593,-8375,1033,0,-3,-1,9
3381261,600,-8373,1057,0,-3,0,9
3381267,605,-8374,1083,0,-3,0,9
3381271,610,-8376,1103,0,-3,0,9
3381276,612,-8380,1128,0,-4,0,9
3381281,614,-8382,1146,0,-4,0,9
3381286,616,-8386,1173,0,-4,0,9
3381291,618,-8383,1207,0,-4,0,9
3381296,619,-8384,1245,0,-5,0,9
3381301,615,-8386,1290,-1,-5,0,9
3381306,608,-8389,1337,-1,-6,0,9
3381311,596,-8394,1387,-1,-7,0,9
3381316,583,-8397,1443,-1,-8,0,9
3381321,573,-8400,1514,-1,-9,0,9
3381326,562,-8404,1594,-2,-11,0,9
3381331,552,-8407,1686,-2,-13,-1,9
3381336,533,-8411,1796,-3,-16,-1,9
3381341,485,-8417,1915,-3,-20,-1,9
3381346,426,-8425,2068,-4,-25,-1,9
3381351,387,-8435,2285,-5,-32,-1,9
3381356,357,-8444,2563,-6,-38,-2,9
3381361,314,-8456,2885,-6,-45,-3,9
3381366,242,-8466,3227,-7,-53,-4,9
3381371,112,-8477,3570,-8,-61,-5,9
3381376,-84,-8488,3902,-9,-68,-5,9
3381381,-325,-8498,4216,-11,-70,-6,9
3381386,-571,-8505,4496,-13,-68,-6,9
3381391,-793,-8506,4737,-15,-63,-6,9
3381396,-974,-8499,4956,-16,-53,-6,9
3381401,-1095,-8515,5301,-18,-38,-5,9
3381406,-1210,-8544,5922,-21,-19,-5,9
3381411,-1309,-8568,6574,-26,-8,-7,9
3381416,-1248,-8528,7068,-30,0,-9,9
3381421,-1226,-8519,7637,-31,9,-9,9
3381426,-1408,-8508,8087,-32,14,-9,9
3381431,-1552,-8478,8415,-34,19,-9,9
3381436,-1641,-8437,8640,-36,30,-9,9
3381441,-1770,-8386,8744,-38,44,-8,9
3381446,-1835,-8328,8696,-40,66,-7,9
3381451,-1811,-8265,8535,-42,95,-7,9
3381456,-1677,-8197,8317,-44,120,-7,9
3381461,-1462,-8122,8037,-47,139,-7,9
3381466,-1195,-8041,7815,-49,150,-8,9
3381471,-909,-7954,7587,-51,157,-9,9
3381476,-601,-7867,7302,-52,161,-10,9
3381481,-260,-7778,7018,-52,161,-10,9
3381486,48,-7693,6595,-53,159,-11,9
3381491,311,-7601,6065,-53,159,-12,9
3381496,489,-7508,5495,-53,164,-13,9
3381501,592,-7432,4790,-52,170,-13,9
3381506,658,-7346,4076,-52,177,-14,9
3381511,632,-7274,3488,-52,185,-15,9
3381516,699,-7206,2948,-52,192,-15,9
3381521,969,-7126,2307,-51,200,-15,9
3381526,1494,-7042,1343,-48,209,-13,9
3381531,2326,-7002,-173,-41,220,-11,9
3381536,3381,-6988,-1721,-36,232,-12,9
3381541,4525,-6982,-3310,-35,233,-13,9
3381546,5686,-6985,-5073,-34,228,-14,9
3381551,6598,-7005,-6624,-32,217,-15,9
3381556,7348,-7035,-7897,-29,194,-14,9
3381561,7944,-7079,-8997,-25,165,-12,9
3381566,8408,-7117,-9977,-19,130,-10,9
3381571,8901,-7165,-10892,-12,98,-6,9
3381576,9484,-7213,-11676,-6,74,-3,9
3381581,10139,-7253,-12349,0,53,-1,9
3381586,10855,-7292,-12925,4,32,1,9
3381591,11483,-7325,-13419,8,11,3,9
3381596,11916,-7343,-13842,10,-11,5,9
3381601,12169,-7344,-14115,13,-30,7,9
3381606,12250,-7325,-13999,17,-48,9,9
3381611,12204,-7297,-13620,22,-70,12,9
3381616,12066,-7268,-13145,28,-94,15,9
3381621,11860,-7234,-12695,33,-115,17,9
3381626,11623,-7196,-12333,37,-131,19,9
3381631,11343,-7147,-12020,40,-141,20,9
3381636,11014,-7088,-11670,43,-150,21,9
3381641,10634,-7022,-11201,44,-159,22,9
3381646,10177,-6945,-10550,46,-167,22,9
3381651,9664,-6869,-9750,48,-175,22,9
3381656,9088,-6798,-8866,51,-182,23,9
3381661,8492,-6734,-7978,54,-188,23,9
3381666,7892,-6675,-7177,57,-192,23,9
3381671,7305,-6621,-6492,60,-196,23,9
3381676,6739,-6572,-5903,62,-199,22,9
3381681,6209,-6531,-5342,63,-203,21,9
3381686,5698,-6491,-4720,63,-207,20,9
3381691,5203,-6459,-3969,62,-212,19,9
3381696,4699,-6443,-3076,62,-216,17,9
3381701,4186,-6442,-2030,63,-217,16,9
3381706,3680,-6459,-930,63,-217,14,9
3381711,3161,-6493,163,63,-215,12,9
3381716,2666,-6539,1201,63,-213,11,9
3381721,2260,-6601,2169,62,-206,10,9
3381726,1877,-6706,3285,59,-189,9,9
3381731,1379,-6870,4840,54,-170,8,9
3381736,1070,-6965,6138,45,-151,4,9
3381741,785,-7124,7601,42,-126,2,9
3381746,289,-7246,8686,37,-105,1,9
3381751,78,-7407,9785,34,-92,0,9
3381756,-197,-7557,10727,31,-75,0,9
3381761,-702,-7727,11535,30,-67,1,9
3381766,-1267,-7905,12227,28,-63,1,9
3381771,-1755,-8056,12821,25,-54,2,9
3381776,-2092,-8207,13329,21,-37,2,9
3381781,-2285,-8341,13652,15,-18,3,9
3381786,-2212,-8453,13913,8,-1,3,9
3381791,-2078,-8557,14266,1,8,1,9
3381796,-1940,-8639,14568,-5,9,0,9
3381801,-1838,-8713,14827,-10,11,-2,9
3381806,-1875,-8762,15049,-14,12,-3,9
3381811,-1943,-8796,15240,-17,12,-3,9
3381816,-2094,-8819,15403,-20,17,-4,9
3381821,-2249,-8812,15543,-24,22,-4,9
3381826,-2376,-8791,15615,-29,31,-4,9
3381831,-2505,-8752,15510,-35,42,-5,9
3381836,-2562,-8692,15367,-41,54,-6,9
3381841,-2607,-8626,15453,-47,68,-7,9
3381846,-2612,-8535,15582,-51,82,-8,9
3381851,-2586,-8430,15696,-55,98,-8,9
3381856,-2534,-8309,15757,-57,113,-9,9
3381861,-2401,-8163,15550,-59,126,-10,9
3381866,-2221,-8005,15090,-61,138,-11,9
3381871,-1949,-7833,14430,-65,147,-12,9
3381876,-1613,-7654,13657,-68,156,-13,9
3381881,-1259,-7467,12849,-72,165,-14,9
3381886,-852,-7285,12128,-75,171,-16,9
3381891,-469,-7101,11487,-77,175,-17,9
3381896,-102,-6923,10868,-78,176,-19,9
3381901,245,-6753,10254,-78,179,-20,9
3381906,560,-6575,9504,-78,183,-21,9
3381911,879,-6403,8608,-78,188,-22,9
3381916,1190,-6237,7652,-78,194,-22,9
3381921,1292,-6106,6855,-79,198,-23,9
3381926,1362,-5963,6165,-80,197,-25,9
3381931,1827,-5795,5419,-81,199,-26,9
3381936,2515,-5630,4476,-79,214,-22,9
3381941,3138,-5535,3321,-71,227,-18,9
3381946,4543,-5457,1739,-63,238,-19,9
3381951,5351,-5494,185,-59,248,-19,9
3381956,6601,-5424,-1341,-57,235,-21,9
3381961,7998,-5469,-3489,-57,233,-24,9
3381966,8836,-5530,-5330,-56,230,-25,9
3381971,9626,-5553,-6909,-55,201,-27,9
3381976,9956,-5685,-8172,-53,173,-27,9
3381981,9884,-5784,-9029,-48,144,-24,9
3381986,9834,-5898,-9843,-41,119,-21,9
3381991,9796,-6105,-10595,-34,107,-17,9
3381996,9995,-6248,-11422,-27,99,-13,9
3382001,10422,-6395,-12130,-22,93,-10,9
3382006,11058,-6524,-12738,-17,87,-7,9
3382011,11819,-6647,-13259,-14,76,-5,9
3382016,12470,-6754,-13705,-10,61,-3,9
3382021,13029,-6845,-14088,-6,41,-2,9
3382026,13427,-6920,-14416,-1,19,0,9
3382031,13568,-6965,-14697,5,-4,3,9
3382036,13561,-6985,-14938,12,-23,7,9
3382041,13482,-6990,-15144,18,-42,11,9
3382046,13380,-6986,-15321,24,-64,14,9
3382051,13273,-6969,-15473,28,-85,16,9
3382056,13154,-6934,-15603,32,-103,18,9
3382061,12984,-6881,-15690,35,-120,19,9
3382066,12732,-6815,-15435,38,-138,20,9
3382071,12367,-6740,-14855,42,-153,20,9
3382076,11902,-6654,-14108,47,-165,21,9
3382081,11365,-6568,-13298,52,-174,22,9
3382086,10795,-6480,-12556,57,-179,23,9
3382091,10233,-6390,-11937,61,-181,24,9
3382096,9723,-6293,-11406,64,-180,25,9
3382101,9292,-6188,-10923,67,-178,26,9
3382106,8934,-6080,-10382,68,-177,26,9
3382111,8640,-5971,-9732,70,-179,26,9
3382116,8360,-5855,-8982,71,-183,25,9
3382121,8050,-5752,-8148,74,-189,25,9
3382126,7741,-5655,-7288,76,-194,24,9
3382131,7459,-5573,-6381,79,-201,24,9
3382136,7177,-5497,-5487,80,-210,23,9
3382141,6907,-5428,-4637,82,-219,22,9
3382146,6640,-5377,-3745,83,-227,21,9
3382151,6331,-5343,-2822,83,-233,19,9
3382156,6004,-5336,-1829,82,-237,17,9
3382161,5639,-5348,-728,81,-239,15,9
3382166,5258,-5367,350,80,-238,14,9
3382171,4918,-5412,1429,80,-232,12,9
3382176,4581,-5531,2937,78,-223,12,9
3382181,4109,-5687,4815,72,-214,10,9
3382186,3773,-5842,6467,65,-203,6,9
3382190,3208,-6033,7883,60,-181,5,9
3382196,2784,-6243,9097,55,-159,3,9
3382201,2592,-6444,10137,51,-133,1,9
3382206,1987,-6678,11029,49,-113,1,9
3382211,1304,-6929,11794,48,-102,0,9
3382216,592,-7161,12449,45,-89,1,9
3382221,-228,-7390,13011,43,-73,3,9
3382225,-977,-7601,13492,37,-56,4,9
3382230,-1435,-7782,13605,31,-33,5,9
3382235,-1671,-7940,13639,24,-7,6,9
3382240,-1597,-8067,13654,17,8,6,9
3382245,-1334,-8172,13791,12,14,5,9
3382250,-1028,-8265,13907,9,13,4,9
3382255,-676,-8346,13924,8,11,3,9
3382260,-461,-8412,13741,7,8,2,9
3382266,-367,-8461,13174,5,5,1,9
3382270,-370,-8500,12425,3,6,1,9
3382275,-482,-8525,11496,0,8,1,9
3382280,-586,-8537,10552,-4,9,1,9
3382285,-659,-8544,9845,-7,12,1,9
3382290,-654,-8539,9256,-10,14,1,9
3382295,-566,-8530,8858,-11,15,1,9
3382300,-430,-8525,8549,-11,15,1,9
3382305,-260,-8510,8118,-10,14,0,9
3382310,-131,-8493,7596,-10,13,0,9
3382315,-48,-8480,6911,-10,11,-1,9
3382320,-20,-8464,6137,-11,11,-1,9
3382325,-42,-8448,5424,-13,12,-2,9
3382330,-71,-8432,4835,-15,13,-2,9
3382335,-110,-8415,4427,-16,14,-2,9
3382340,-127,-8395,4181,-17,14,-2,9
3382345,-107,-8378,4017,-16,15,-2,9
3382350,-68,-8359,3797,-15,14,-2,9
3382355,-2,-8343,3478,-14,14,-2,9
3382360,62,-8329,3039,-13,14,-2,9
3382365,118,-8316,2486,-14,13,-3,9
3382370,157,-8304,1977,-14,13,-3,9
3382375,167,-8295,1572,-15,13,-3,9
3382380,177,-8284,1278,-16,13,-3,9
3382385,193,-8276,1147,-16,12,-3,9
3382390,219,-8267,1066,-15,10,-3,9
3382395,261,-8260,969,-13,9,-3,9
3382400,312,-8254,817,-12,9,-3,9
3382405,374,-8256,568,-11,10,-3,9
3382410,411,-8257,297,-11,12,-3,9
3382415,426,-8256,47,-11,14,-4,9
3382420,459,-8249,-201,-12,17,-4,9
3382425,462,-8246,-325,-11,20,-3,9
3382430,482,-8243,-367,-11,21,-3,9
3382435,517,-8244,-435,-10,23,-3,9
3382440,599,-8249,-448,-9,24,-3,9
3382445,702,-8248,-501,-8,19,-3,9
3382450,750,-8247,-607,-7,14,-3,9
3382455,799,-8247,-712,-7,14,-3,9
3382460,850,-8246,-811,-6,15,-3,9
3382465,898,-8249,-894,-6,15,-3,9
3382470,954,-8250,-952,-6,14,-2,9
3382475,1009,-8252,-957,-5,13,-2,9
3382480,1064,-8253,-947,-5,11,-2,9
3382485,1128,-8255,-912,-4,9,-2,9
3382490,1176,-8262,-837,-3,7,-2,9
3382495,1206,-8268,-802,-3,4,-2,9
3382500,1230,-8277,-740,-2,3,-2,9
3382505,1235,-8284,-684,-2,1,-2,9
3382510,1231,-8287,-656,-2,1,-2,9
3382515,1225,-8290,-574,-2,1,-2,9
3382520,1207,-8292,-513,-1,1,-1,9
3382525,1188,-8295,-458,-1,2,-1,9
3382530,1163,-8297,-393,0,2,-1,9
3382535,1131,-8298,-365,0,3,-1,9
3382540,1092,-8299,-346,0,5,-1,9
3382545,1045,-8302,-333,1,6,-1,9
3382550,1013,-8301,-334,1,8,-1,9
3382555,998,-8300,-326,1,8,-1,9
3382560,999,-8302,-312,1,7,-1,9
3382565,1016,-8304,-297,2,5,-1,9
3382570,1050,-8304,-280,2,4,0,9
3382575,1099,-8304,-263,3,2,0,9
3382580,1147,-8303,-258,3,0,0,9
3382585,1182,-8304,-242,3,-1,0,9
3382590,1204,-8309,-215,3,-2,0,9
3382595,1195,-8311,-190,4,-4,0,9
3382600,1176,-8316,-132,4,-4,0,9
3382605,1147,-8319,-58,4,-5,0,9
3382610,1120,-8319,27,4,-5,0,9
3382615,1109,-8322,133,4,-6,0,9
3382620,1101,-8326,238,4,-6,0,9
3382625,1112,-8325,329,5,-5,0,9
3382630,1133,-8327,424,5,-7,0,9
3382635,1134,-8331,496,5,-7,1,9
3382640,1144,-8330,551,5,-7,1,9
3382645,1142,-8332,615,5,-7,1,9
3382650,1108,-8334,672,4,-8,1,9
3382655,1085,-8338,749,4,-8,1,9
3382660,1043,-8340,837,4,-8,1,9
3382665,1005,-8343,927,4,-9,1,9
3382670,977,-8347,1010,4,-9,1,9
3382675,946,-8350,1090,4,-9,1,9
3382680,918,-8355,1154,4,-9,1,9
3382685,884,-8362,1207,4,-9,1,9
3382690,845,-8365,1260,4,-8,1,9
3382695,799,-8368,1304,3,-8,1,9
3382700,753,-8370,1360,3,-7,1,9
3382705,707,-8370,1412,3,-7,1,9
3382710,666,-8372,1456,3,-6,1,9
3382715,633,-8373,1497,3,-5,1,9
3382720,608,-8374,1514,3,-5,1,9
3382725,592,-8378,1522,2,-4,1,9
3382730,585,-8381,1534,2,-3,1,9
3382735,577,-8381,1533,2,-2,1,9
3382740,567,-8382,1538,2,-2,1,9
3382745,556,-8382,1544,2,-1,1,9
3382750,543,-8384,1547,1,-1,1,9
3382755,531,-8382,1551,1,-1,1,9
3382760,531,-8383,1552,1,0,1,9
3382765,537,-8382,1547,1,0,1,9
3382770,550,-8382,1539,1,0,1,9
3382775,566,-8382,1531,1,0,1,9
3382780,579,-8385,1522,1,0,0,9
3382785,584,-8385,1520,0,0,0,9
3382790,585,-8384,1517,0,0,0,9
3382795,585,-8381,1502,0,0,0,9
3382800,588,-8381,1489,0,0,0,9
3382805,592,-8378,1473,0,0,0,9
3382810,601,-8375,1442,0,0,1,9
3382815,619,-8374,1419,0,0,0,9
3382820,634,-8371,1391,0,0,0,9
3382825,642,-8373,1375,0,0,0,9
3382830,640,-8373,1377,0,0,0,9
3382835,632,-8372,1374,-1,0,0,9
3382840,620,-8371,1368,-1,0,0,9
3382845,606,-8371,1363,-1,0,0,9
3382850,589,-8370,1344,-1,0,0,9
3382855,582,-8371,1315,-1,0,0,9
3382860,584,-8372,1293,-1,0,0,9
3382865,592,-8370,1268,-1,0,0,9
3382870,606,-8369,1257,-1,-1,0,9
3382875,616,-8369,1260,-1,-1,0,9
3382880,620,-8371,1259,-1,-1,0,0
3382885,616,-8372,1272,-1,-1,0,0
3382890,610,-8373,1287,-1,-1,0,0
3382895,596,-8377,1291,-1,-1,0,0
3382900,580,-8379,1291,-1,-1,0,0
3382905,566,-8380,1286,-1,-1,0,0
3382910,556,-8378,1276,-1,-1,0,0
3382915,550,-8379,1280,-2,-1,0,0
3382920,547,-8380,1286,-2,-1,0,0
3382925,537,-8379,1291,-2,-1,0,0
3382930,525,-8378,1307,-2,-1,0,0
3382935,507,-8380,1316,-2,-2,0,0
3382940,487,-8378,1316,-2,-2,0,0
3382945,473,-8376,1320,-2,-1,0,0
3382950,460,-8376,1321,-2,-1,-1,0
3382955,451,-8376,1324,-2,-1,-1,0
3382960,445,-8375,1334,-2,-1,-1,0
3382965,442,-8374,1342,-2,0,-1,0
3382970,446,-8375,1355,-2,0,-1,0
3382975,453,-8376,1365,-3,1,-1,0
3382980,458,-8373,1357,-3,1,-1,0
3382985,464,-8373,1341,-3,1,-1,0
3382990,471,-8374,1316,-3,1,-1,0
3382995,472,-8372,1281,-3,2,-1,0
3383000,480,-8372,1242,-3,2,-1,0
3383005,485,-8371,1210,-3,2,-1,0
3383010,495,-8370,1174,-3,2,-1,0
3383015,511,-8370,1150,-3,2,-1,0
3383020,529,-8371,1121,-3,2,-1,0
3383025,550,-8368,1096,-3,2,-1,0
3383030,575,-8368,1068,-3,2,-1,0
3383035,597,-8366,1028,-3,2,-1,0
3383040,614,-8363,991,-3,2,-1,0
3383045,625,-8363,963,-3,2,-1,0
3383050,636,-8359,937,-3,2,-1,0
3383055,647,-8358,923,-3,2,-1,0
3383060,657,-8357,913,-3,2,-1,0
3383065,669,-8358,904,-3,2,-1,0
3383070,675,-8358,890,-2,2,-1,0
3383075,680,-8357,880,-2,2,-1,0
3383080,685,-8356,863,-2,3,-1,0
3383085,685,-8354,847,-2,3,-1,0
3383090,689,-8354,827,-2,3,-1,0
3383095,694,-8352,810,-2,3,-1,0
3383100,709,-8351,795,-2,3,-1,0
3383105,728,-8350,790,-2,2,-1,0
3383110,750,-8348,794,-2,2,-1,0
3383115,774,-8348,800,-2,1,-1,0
3383120,798,-8349,808,-2,1,-1,0
3383125,811,-8349,820,-2,1,-1,0
3383130,819,-8348,827,-2,1,-1,0
3383135,823,-8349,833,-2,1,-1,0
3383140,821,-8352,836,-2,0,-1,0
3383145,813,-8353,843,-2,0,-1,0
3383150,809,-8353,851,-2,1,0,0
3383155,807,-8353,861,-2,1,0,0
3383160,805,-8354,874,-2,1,0,0
3383165,805,-8357,890,-2,1,0,0
3383170,803,-8360,897,-2,1,0,0
3383175,802,-8363,903,-2,1,0,0
3383180,797,-8363,905,-2,1,0,0
3383185,793,-8362,908,-2,1,0,0
3383189,794,-8365,910,-2,1,0,0
3383195,795,-8365,910,-2,1,0,0
3383200,793,-8365,903,-2,1,0,0
3383205,793,-8361,893,-2,1,0,0
3383209,795,-8359,891,-2,1,0,0
3383215,792,-8362,890,-2,1,0,0
3383220,791,-8365,885,-2,1,0,0
3383225,791,-8366,891,-2,0,0,0
3383229,788,-8366,897,-2,0,0,0
3383234,782,-8368,903,-2,0,0,0
3383240,780,-8367,904,-2,0,0,0
3383245,774,-8369,900,-2,1,0,0
3383250,767,-8368,894,-2,1,0,0
3383255,764,-8371,889,-2,1,0,0
3383259,763,-8371,881,-2,1,0,0
3383264,767,-8372,873,-2,1,0,0
3383269,770,-8370,872,-1,1,0,0
3383274,774,-8368,869,-1,1,0,0
3383279,773,-8366,863,-1,1,0,0
3383284,765,-8363,859,-1,0,0,0
3383289,756,-8361,846,-1,0,0,0
3383294,743,-8358,837,-1,0,0,0
3383299,729,-8359,825,-1,0,1,0
3383304,718,-8357,815,-1,0,1,0
3383309,707,-8355,811,-1,0,1,0
3383314,697,-8356,814,-1,0,0,0
3383319,693,-8355,814,-1,0,1,0
3383324,692,-8356,811,-1,0,1,0
3383329,689,-8359,808,-1,0,1,0
3383334,688,-8359,801,-1,0,1,0
3383339,684,-8360,799,-1,0,0,0
3383344,685,-8361,796,-1,0,0,0
3383349,680,-8361,798,-1,0,0,0
3383354,678,-8359,806,-1,0,0,0
3383359,671,-8359,807,-1,0,0,0
3383364,661,-8360,814,-1,0,1,0
3383369,651,-8358,816,-1,0,1,0
3383374,638,-8361,813,-1,0,1,0
3383379,628,-8360,811,-1,0,1,0
3383384,619,-8360,812,-1,0,0,0
3383389,615,-8357,812,-1,-1,0,0
3383394,611,-8357,821,-1,-1,0,0
3383399,605,-8357,833,-1,-1,0,0
3383404,591,-8357,844,-1,-1,0,0
3383409,576,-8355,861,-1,-1,0,0
3383414,560,-8355,880,-1,0,0,0
3383419,544,-8358,879,-1,0,0,0
3383424,531,-8361,883,-1,0,0,0
3383429,520,-8365,876,-1,0,0,0
3383434,514,-8364,864,-1,0,0,0
3383439,514,-8364,862,-1,0,0,0
3383444,518,-8368,861,-1,0,0,0
3383449,522,-8369,858,-1,0,0,0
3383454,523,-8370,865,-1,0,0,0
3383459,530,-8370,875,-1,0,0,0
3383464,533,-8371,879,-1,-1,0,0
3383469,537,-8370,890,-1,-1,0,0
3383474,541,-8373,901,-1,-1,0,0
3383479,546,-8374,909,-1,-1,0,0
3383484,554,-8375,925,-1,0,0,0
3383489,564,-8374,942,-1,0,0,0
3383494,574,-8373,964,-1,0,0,0
3383499,587,-8373,990,-1,0,0,0
3383504,601,-8376,1005,-1,0,0,0
3383509,606,-8377,1014,-1,0,0,0
3383514,615,-8379,1030,-1,0,0,0
3383519,626,-8380,1038,-1,0,0,0
3383524,635,-8379,1037,-1,0,0,0
3383529,643,-8378,1039,-1,1,0,0
3383534,648,-8376,1038,-1,1,0,0
3383539,656,-8377,1035,-1,1,0,0
3383544,661,-8376,1028,-1,1,0,0
3383549,669,-8375,1014,-1,1,0,0
3383554,677,-8376,1001,-1,0,0,0
3383559,687,-8375,992,-1,0,0,0
3383564,697,-8373,984,-1,0,0,0
3383569,706,-8372,977,-1,0,0,0
3383574,721,-8371,976,-1,0,0,0
3383579,731,-8371,972,-1,0,0,0
3383584,746,-8372,980,-1,0,0,0
3383589,756,-8372,989,-1,0,0,0
3383594,768,-8374,997,-1,0,1,0
3383599,777,-8371,1003,-1,0,1,0
3383604,778,-8370,1013,-1,0,1,0
3383609,776,-8370,1016,-1,0,1,0
3383614,771,-8370,1018,-1,0,1,0
3383619,760,-8371,1017,-1,0,1,0
3383624,742,-8373,1018,-2,0,1,0
3383629,721,-8372,1016,-2,0,1,0
3383634,703,-8374,1004,-1,0,1,0
3383639,683,-8374,994,-1,0,1,0
3383644,661,-8373,977,-1,0,1,0
3383649,636,-8374,957,-1,0,1,0
3383654,608,-8374,933,-1,0,1,0
3383659,580,-8370,906,-1,0,1,0
3383664,549,-8371,879,-1,0,1,0
3383669,520,-8369,853,-1,0,1,0
3383674,493,-8365,833,-1,-1,1,0
3383679,466,-8361,815,-1,-1,0,0
3383684,438,-8360,796,-1,-1,0,0
3383689,410,-8358,783,-1,-1,0,0
3383694,386,-8360,767,-1,-1,0,0
3383699,363,-8361,747,-1,-1,0,0
3383704,346,-8359,739,-1,-1,0,0
3383709,331,-8360,727,-1,-1,0,0
3383714,318,-8361,725,-1,-1,0,0
3383719,308,-8362,729,-1,-1,0,0
3383724,295,-8362,733,-1,-1,0,0
3383729,279,-8364,738,-1,-1,-1,0
3383734,261,-8367,737,-1,-1,-1,0
3383739,240,-8367,738,-1,-1,-1,0
3383744,217,-8364,737,-1,-1,-1,0
3383749,198,-8362,734,-1,-1,-1,0
3383754,193,-8362,733,-1,-1,-1,0
3383759,195,-8361,736,-1,-1,-1,0
3383764,204,-8362,745,-1,-1,-1,0
3383769,220,-8361,759,0,-1,-1,0
3383774,238,-8362,772,0,-1,-2,0
3383779,253,-8364,784,0,-1,-2,0
3383784,264,-8363,796,0,-1,-2,0
3383789,275,-8363,803,0,0,-2,0
3383794,286,-8363,810,0,0,-2,0
3383799,303,-8362,818,0,0,-2,0
3383804,329,-8363,825,0,0,-2,0
3383809,365,-8360,830,0,0,-2,0
3383814,402,-8360,837,0,0,-2,0
3383819,440,-8361,843,0,0,-2,0
3383824,476,-8362,852,0,0,-2,0
3383829,500,-8364,862,0,0,-2,0
3383834,517,-8366,875,0,0,-2,0
3383839,533,-8364,884,0,0,-2,0
3383844,551,-8363,892,0,0,-2,0
3383849,570,-8363,897,0,0,-2,0
3383854,599,-8362,897,0,0,-2,0
3383859,632,-8364,894,0,0,-2,0
3383864,666,-8366,897,0,0,-2,0
3383869,696,-8368,899,0,0,-2,0
3383874,721,-8367,895,0,0,-2,0
3383879,738,-8365,892,0,0,-2,0
3383884,746,-8365,886,0,0,-2,0
3383889,749,-8369,880,0,0,-1,0
3383894,748,-8371,875,0,0,-1,0
3383899,753,-8371,869,0,0,-1,0
3383904,764,-8370,858,0,0,-1,0
3383909,778,-8368,856,0,0,-1,0
3383914,793,-8365,860,0,-1,-1,0
3383919,805,-8365,870,0,-1,-1,0
3383924,815,-8367,880,0,-1,-1,0
3383929,820,-8367,890,0,-1,-1,0
3383934,822,-8371,898,0,-1,-1,0
3383939,821,-8373,904,0,-1,-1,0
3383944,814,-8374,901,0,-1,-1,0
3383949,808,-8376,896,0,-1,-1,0
3383954,799,-8376,896,0,-1,-1,0
3383959,789,-8376,895,0,-1,-1,0
3383964,778,-8374,903,-1,-1,-1,0
3383969,766,-8374,916,0,-1,-1,0
3383974,753,-8375,932,-1,-1,-1,0
3383979,738,-8374,949,-1,-1,-1,0
3383984,721,-8373,961,0,-1,-1,0
3383989,701,-8370,959,0,-1,-1,0
3383994,680,-8372,955,-1,-1,-1,0
3383999,659,-8372,949,-1,0,-1,0
3384004,634,-8371,946,-1,0,-1,0
3384009,616,-8371,950,-1,0,-1,0
3384014,603,-8369,958,-1,0,-1,0
3384019,589,-8367,963,-1,0,-1,0
3384024,578,-8369,968,-1,0,-1,0
3384029,566,-8368,973,-1,0,-1,0
3384034,554,-8368,971,-1,0,-1,0
3384039,546,-8369,964,-1,0,-1,0
3384044,534,-8370,950,-1,0,-1,0
3384049,523,-8373,939,-1,0,-1,0
3384054,518,-8371,929,-1,0,-1,0
3384059,515,-8372,922,-1,0,-1,0
3384064,516,-8375,917,-1,0,-1,0
3384069,516,-8377,917,-1,1,-1,0
3384074,516,-8375,909,-1,1,-1,0
3384079,519,-8377,891,-1,1,-1,0
3384084,523,-8376,872,-1,1,-1,0
3384089,527,-8378,858,-1,1,-1,0
3384094,534,-8379,844,-1,1,-1,0
3384098,545,-8380,836,-1,1,-1,0
3384104,560,-8378,834,-1,1,-1,0
3384109,581,-8376,833,-1,1,-1,0
3384113,599,-8375,842,-1,1,-1,0
3384118,619,-8375,845,-1,1,-1,0
3384123,645,-8373,850,-1,0,-1,0
3384128,670,-8371,853,-1,0,-1,0
3384133,689,-8369,860,-1,0,-1,0
3384138,709,-8368,870,-1,1,-1,0
3384143,727,-8367,881,-1,1,-1,0
3384149,744,-8369,890,-1,1,-1,0
3384154,758,-8370,895,-1,1,-1,0
3384158,768,-8369,894,-1,1,-1,0
3384164,778,-8368,895,-1,1,-1,0
3384169,787,-8367,893,-1,1,-1,0
3384173,794,-8366,889,-1,1,-1,0
3384178,798,-8368,887,-1,0,-1,0
3384183,804,-8366,884,-1,0,-1,0
3384188,812,-8363,886,-1,0,-1,0
3384193,820,-8365,893,-1,0,0,0
3384198,827,-8366,903,-1,0,0,0
3384203,834,-8364,911,-1,0,0,0
3384208,838,-8363,921,-1,0,0,0
3384213,837,-8363,919,-1,0,0,0
3384218,833,-8363,916,-1,0,0,0
3384223,825,-8362,906,-1,0,0,0
3384228,819,-8362,896,-1,0,0,0
3384233,814,-8360,891,-1,0,0,0
3384238,810,-8361,901,-1,0,0,0
3384243,808,-8361,916,-1,0,0,0
3384248,806,-8366,934,-1,0,0,0
3384253,801,-8367,945,-1,0,0,0
3384258,798,-8369,952,-1,0,0,0
3384263,791,-8369,947,-1,-1,0,0
3384268,778,-8368,940,-1,-1,0,0
3384273,762,-8366,935,-1,0,0,0
3384278,747,-8365,929,-1,0,0,0
3384283,736,-8364,922,-1,0,0,0
3384288,730,-8363,923,-1,-1,0,0
3384293,729,-8362,933,-1,-1,0,0
3384298,730,-8363,947,-1,-1,0,0
3384303,733,-8365,960,-1,-1,0,0
3384308,733,-8367,966,-1,-1,0,0
3384313,727,-8368,963,-1,-1,0,0
3384318,713,-8370,967,-1,-1,0,0
3384323,697,-8369,971,-1,-1,0,0
3384328,678,-8370,975,-1,-1,0,0
3384333,663,-8372,983,-1,0,0,0
3384338,655,-8372,991,-1,0,0,0
3384343,651,-8371,998,-1,0,0,0
3384348,653,-8373,1006,-1,0,1,0
3384353,658,-8371,1007,-1,0,0,0
3384358,661,-8368,1014,-1,0,0,0
3384363,656,-8370,1013,-2,0,0,0
3384368,644,-8369,1011,-2,0,0,0
3384373,627,-8368,1005,-2,0,0,0
3384378,611,-8369,1004,-2,0,0,0
3384383,599,-8371,1008,-2,0,0,0
3384388,592,-8370,1016,-2,0,0,0
3384393,588,-8372,1028,-2,0,0,0
3384398,590,-8371,1030,-2,0,1,0
3384403,598,-8371,1034,-2,1,0,0
3384408,602,-8372,1029,-2,1,0,0
3384413,598,-8371,1022,-2,1,0,0
3384418,585,-8371,1020,-2,1,0,0
3384423,568,-8370,1011,-2,1,0,0
3384428,552,-8369,1000,-2,2,0,0
3384433,541,-8367,996,-2,2,0,0
3384438,533,-8365,987,-2,2,0,0
3384443,530,-8367,981,-2,3,0,0
3384448,532,-8366,972,-2,3,0,0
3384453,537,-8366,965,-2,3,0,0
3384458,543,-8367,958,-2,3,0,0
3384463,538,-8366,948,-2,3,0,0
3384468,521,-8366,935,-2,3,0,0
3384473,501,-8367,921,-2,3,0,0
3384478,480,-8365,905,-2,4,0,0
3384483,465,-8365,890,-2,4,0,0
3384488,458,-8365,875,-2,5,0,0
3384493,461,-8365,870,-2,5,0,0
3384498,478,-8364,870,-2,5,0,0
3384503,499,-8363,876,-2,5,0,0
3384508,516,-8357,885,-2,4,0,0
3384513,530,-8358,890,-2,3,0,0
3384518,531,-8359,892,-2,3,0,0
3384523,518,-8359,892,-2,3,0,0
3384528,500,-8363,885,-2,3,0,0
3384533,478,-8368,877,-2,4,0,0
3384538,457,-8369,872,-2,4,0,0
3384543,447,-8369,869,-2,5,0,0
3384548,446,-8368,870,-2,6,0,0
3384553,451,-8367,869,-3,6,0,0
3384558,466,-8368,865,-2,6,0,0
3384563,478,-8372,859,-2,6,0,0
3384568,487,-8373,855,-2,6,0,0
3384573,487,-8370,845,-2,6,-1,0
3384578,478,-8371,832,-2,6,-1,0
3384583,467,-8370,816,-2,7,-1,0
3384588,461,-8369,806,-2,7,-1,0
3384593,462,-8371,790,-2,8,-1,0
3384598,472,-8371,774,-2,8,0,0
3384603,490,-8372,763,-2,8,0,0
3384608,514,-8369,750,-2,7,-1,0
3384613,537,-8365,732,-2,7,-1,0
3384618,547,-8363,714,-2,7,-1,0
3384623,556,-8361,701,-2,7,-1,0
3384628,553,-8363,683,-2,6,-1,0
3384633,547,-8362,664,-2,6,-1,0
3384638,540,-8361,651,-2,6,-1,0
3384643,538,-8359,641,-2,6,-1,0
3384648,542,-8357,638,-2,6,-1,0
3384653,556,-8359,631,-2,6,-1,0
3384658,579,-8360,622,-2,5,-1,0
3384663,602,-8361,616,-2,5,-1,0
3384668,622,-8360,603,-2,4,-1,0
3384673,636,-8360,593,-2,4,-1,0
3384678,640,-8360,581,-1,3,-1,0
3384683,642,-8360,576,-1,3,-1,0
3384688,645,-8359,580,-1,3,-1,0
3384693,650,-8357,587,-1,3,-1,0
3384698,662,-8353,595,-1,2,-1,0
3384703,682,-8354,599,-1,2,0,0
3384708,700,-8353,600,-1,2,0,0
3384713,719,-8352,597,-1,2,-1,0
3384718,736,-8349,598,-1,2,-1,0
3384723,742,-8347,598,-1,2,-1,0
3384728,744,-8347,601,-1,1,0,0
3384733,740,-8350,598,-1,1,0,0
3384738,739,-8352,595,-1,1,0,0
3384743,745,-8354,586,-1,1,0,0
3384748,757,-8357,582,-1,0,0,0
3384753,771,-8358,577,-1,0,0,0
3384758,785,-8359,570,-1,0,0,0
3384763,797,-8361,562,0,-1,0,0
3384768,800,-8361,552,0,-1,0,0
3384773,795,-8362,549,0,-1,0,0
3384778,786,-8364,554,0,-1,0,0
3384783,773,-8366,554,0,-1,0,0
3384788,764,-8365,558,0,-1,0,0
3384793,756,-8367,558,0,-1,0,0
3384798,754,-8368,555,0,-1,0,0
3384803,753,-8369,556,0,-1,0,0
3384808,750,-8367,553,0,-1,0,0
3384813,743,-8365,548,0,-1,0,0
3384818,728,-8364,551,0,-1,0,0
3384823,708,-8364,555,0,-1,0,0
3384828,687,-8362,556,0,-1,0,0
3384833,670,-8364,554,0,-1,0,0
3384838,658,-8364,552,0,-1,0,0
3384843,653,-8367,556,1,-2,1,0
3384848,657,-8367,567,1,-1,1,0
3384853,663,-8366,587,1,-1,1,0
3384858,668,-8367,600,1,-1,1,0
3384863,669,-8368,616,1,-2,1,0
3384868,663,-8368,631,1,-2,1,0
3384873,646,-8370,640,1,-2,1,0
3384878,627,-8369,648,1,-2,1,0
3384883,612,-8370,659,1,-2,1,0
3384888,602,-8372,662,1,-2,1,0
3384893,602,-8369,672,1,-2,1,0
3384898,602,-8369,678,1,-2,1,0
3384903,607,-8369,690,1,-2,1,0
3384908,606,-8368,707,1,-1,1,0
3384913,600,-8370,718,1,-1,1,0
3384918,588,-8369,723,1,-1,1,0
3384923,571,-8370,727,1,-2,1,0
3384928,559,-8369,729,1,-2,1,0
3384933,546,-8367,727,1,-2,1,0
3384938,542,-8366,737,1,-2,1,0
3384943,543,-8370,750,1,-2,1,0
3384948,546,-8370,764,1,-2,1,0
3384953,550,-8373,781,1,-1,0,0
3384958,552,-8372,796,1,-1,0,0
3384963,546,-8372,813,1,-1,0,0
3384968,532,-8371,820,1,-2,0,0
3384973,514,-8368,822,1,-1,0,0
3384978,496,-8369,822,1,-1,0,0
3384983,481,-8372,822,1,-1,0,0
3384988,475,-8371,820,1,-1,0,0
3384993,477,-8370,822,1,-1,0,0
3384998,482,-8370,823,1,-1,0,0
3385003,489,-8371,826,1,-1,0,0
3385008,496,-8371,833,1,-1,0,0
3385013,500,-8372,840,1,-1,0,0
3385017,501,-8371,845,1,-1,0,0
3385023,499,-8371,839,1,-1,0,0
3385028,495,-8369,835,1,-1,0,0
3385033,492,-8369,829,1,-1,0,0
3385038,492,-8369,823,1,-1,0,0
3385043,492,-8370,819,1,-1,0,0
3385048,495,-8371,817,1,-1,0,0
3385052,502,-8372,818,1,-1,0,0
3385058,506,-8372,816,1,-1,0,0
3385062,504,-8373,813,1,-1,0,0
3385067,499,-8371,812,1,-1,0,0
3385073,493,-8371,811,1,-1,0,0
3385078,489,-8369,809,1,-1,0,0
3385082,485,-8367,807,1,-1,0,0
3385087,486,-8366,806,1,-1,0,0
3385092,493,-8368,806,1,-1,0,0
3385097,502,-8373,802,1,-2,0,0
3385102,512,-8374,804,1,-2,0,0
3385107,516,-8371,807,1,-2,0,0
3385112,515,-8371,814,1,-2,0,0
3385117,517,-8372,825,1,-2,0,0
3385122,517,-8373,836,1,-2,0,0
3385127,517,-8376,849,1,-2,0,0
3385132,515,-8377,859,1,-2,0,0
3385137,513,-8380,868,1,-2,0,0
3385142,513,-8380,874,1,-2,0,0
3385147,504,-8378,881,1,-2,0,0
3385152,500,-8379,887,1,-2,0,0
3385157,492,-8379,891,1,-2,0,0
3385162,485,-8382,898,1,-2,0,0
3385167,479,-8383,908,1,-1,0,0
3385172,478,-8384,916,1,-2,0,0
3385177,481,-8383,923,1,-1,0,0
3385182,491,-8380,924,1,-1,0,0
3385187,505,-8380,922,1,-1,0,0
3385192,525,-8378,921,1,-1,0,0
3385197,539,-8378,921,1,-1,0,0
3385202,552,-8377,926,1,-1,0,0
3385207,562,-8377,934,1,-1,0,0
3385212,563,-8375,937,1,-1,0,0
3385217,564,-8375,940,1,-1,0,0
3385222,559,-8374,938,1,-1,0,0
3385227,556,-8373,923,1,-1,0,0
3385232,559,-8370,900,1,-1,0,0
3385237,564,-8367,881,1,-1,0,0
3385242,574,-8365,857,1,-1,0,0
3385247,584,-8366,837,1,0,0,0
3385252,594,-8367,812,1,0,0,0
3385257,601,-8367,787,1,-1,0,0
3385262,604,-8366,752,1,-1,0,0
3385267,597,-8362,705,1,-1,0,0
3385272,582,-8357,655,1,-1,0,0
3385277,564,-8353,603,1,-2,0,0
3385282,545,-8350,557,1,-2,0,0
3385287,528,-8352,516,2,-2,0,0
3385292,512,-8351,479,2,-2,0,0
3385297,505,-8352,439,2,-2,0,0
3385302,508,-8352,399,2,-3,0,0
3385307,526,-8350,361,2,-3,0,0
3385312,552,-8347,311,3,-3,0,0
3385317,585,-8343,264,3,-4,0,0
3385322,628,-8338,214,3,-5,0,0
3385327,674,-8331,168,3,-7,0,0
3385332,724,-8326,137,4,-10,0,0
3385337,772,-8322,123,4,-14,0,0
3385342,814,-8322,128,4,-19,0,0
3385347,848,-8323,159,4,-26,0,0
3385352,854,-8323,217,4,-33,0,0
3385357,825,-8324,287,5,-39,0,0
3385362,764,-8330,369,5,-41,-1,0
3385367,670,-8339,462,5,-43,-1,0
3385372,551,-8345,563,5,-42,-1,0
3385377,422,-8353,667,5,-41,-1,0
3385382,301,-8362,771,5,-40,-1,0
3385387,199,-8369,877,5,-37,-1,0
3385392,125,-8376,988,5,-34,-1,0
3385397,82,-8377,1099,4,-30,-2,0
3385402,67,-8382,1215,4,-26,-2,0
3385407,76,-8386,1331,4,-22,-2,0
3385412,90,-8391,1439,3,-19,-2,0
3385417,111,-8395,1544,3,-16,-2,0
3385422,137,-8398,1637,3,-13,-2,0
3385427,163,-8399,1718,3,-10,-2,0
3385432,193,-8400,1785,2,-8,-2,0
3385437,226,-8404,1841,2,-6,-2,0
3385442,262,-8408,1892,1,-5,-1,0
3385447,299,-8409,1932,1,-3,-1,0
3385452,334,-8408,1970,1,-1,-1,0
3385457,363,-8408,1998,0,0,-1,0
3385462,388,-8408,2005,0,1,-1,0
3385467,400,-8408,1996,0,1,-1,0
3385472,406,-8409,1970,0,2,-1,0
3385477,413,-8409,1928,-1,3,-1,0
3385482,423,-8408,1876,-1,4,-1,0
3385487,443,-8407,1823,-1,4,-1,0
3385492,473,-8402,1772,-1,5,-1,0
3385497,514,-8401,1723,-2,5,-1,0
3385502,560,-8401,1679,-2,5,-1,0
3385507,599,-8401,1637,-2,5,-1,0
3385512,632,-8397,1589,-2,5,-1,0
3385517,654,-8394,1533,-2,5,-1,0
3385522,661,-8394,1475,-2,5,-1,0
3385527,658,-8395,1420,-2,6,-1,0
3385532,643,-8391,1358,-2,6,-1,0
3385537,620,-8390,1294,-2,7,-1,0
3385542,598,-8389,1234,-2,8,-1,0
3385547,578,-8385,1172,-2,9,0,0
3385552,564,-8384,1109,-2,9,-1,0
3385557,553,-8380,1041,-2,10,0,0
3385562,547,-8377,970,-2,10,0,0
3385567,542,-8373,900,-2,10,-1,0
3385572,545,-8372,840,-1,10,-1,0
3385577,553,-8370,787,-1,9,-1,9
3385582,563,-8365,747,-1,8,-1,9
3385587,578,-8363,709,-1,7,-1,9
3385592,590,-8359,676,-1,6,-1,9
3385597,602,-8356,649,-1,5,-1,9
3385602,613,-8355,624,0,5,-1,9
3385607,617,-8354,604,0,4,-1,9
3385612,619,-8352,582,0,3,-1,9
3385617,618,-8352,567,0,2,-1,9
3385622,614,-8354,561,0,1,-1,9
3385627,612,-8354,564,0,0,-1,9
3385632,608,-8351,577,0,0,-1,9
3385637,607,-8353,593,0,-1,-1,9
3385642,610,-8354,611,1,-1,-1,9
3385647,612,-8354,630,1,-1,-1,9
3385652,613,-8355,648,1,-1,-1,9
3385657,609,-8357,666,1,-2,-1,9
3385662,601,-8358,684,1,-1,-1,9
3385667,596,-8360,700,1,-1,-1,9
3385672,595,-8359,721,1,-1,-1,9
3385677,597,-8358,743,1,-2,-1,9
3385682,606,-8356,769,1,-2,-1,9
3385687,616,-8354,793,1,-2,-1,9
3385692,629,-8354,817,1,-2,-1,9
3385697,639,-8358,845,1,-2,-1,9
3385702,641,-8358,872,1,-2,-1,9
3385707,637,-8358,896,1,-2,-1,9
3385712,629,-8360,917,1,-2,-1,9
3385717,619,-8363,936,1,-2,-1,9
3385722,607,-8366,956,1,-2,-1,9
3385727,597,-8368,980,1,-2,0,9
3385732,596,-8368,994,1,-1,0,9
3385737,600,-8366,1009,1,-1,0,9
3385742,608,-8364,1021,1,-1,0,9
3385747,618,-8364,1033,1,-1,0,9
3385752,627,-8365,1045,1,-1,0,9
3385757,630,-8363,1058,1,-1,0,9
3385762,630,-8362,1064,1,-1,0,9
3385767,629,-8364,1072,1,-1,0,9
3385772,630,-8369,1072,1,-1,0,9
3385777,631,-8367,1067,1,0,0,9
3385782,635,-8368,1059,1,0,0,9
3385787,643,-8371,1054,1,0,0,9
3385792,653,-8372,1047,1,-1,0,9
3385797,661,-8371,1039,1,-1,0,9
3385802,665,-8365,1034,1,-1,0,9
3385807,666,-8363,1033,1,-1,0,9
3385812,663,-8362,1031,1,-1,0,9
3385817,657,-8359,1028,1,-1,0,9
3385822,650,-8358,1026,1,-2,0,9
3385827,640,-8357,1029,1,-2,0,9
3385832,632,-8358,1025,1,-2,0,9
3385837,622,-8357,1029,1,-2,0,9
3385842,614,-8360,1035,1,-2,0,9
3385847,607,-8360,1046,1,-2,0,9
3385852,600,-8363,1055,1,-2,0,9
3385857,595,-8363,1076,1,-2,0,9
3385862,586,-8365,1093,1,-2,0,9
3385867,574,-8367,1106,1,-2,0,9
3385872,554,-8367,1119,1,-2,0,9
3385877,534,-8368,1129,1,-2,0,9
3385882,518,-8370,1142,1,-2,0,9
3385887,499,-8369,1153,1,-2,0,9
3385892,482,-8368,1163,1,-2,0,9
3385897,471,-8370,1177,1,-2,0,9
3385902,465,-8372,1190,1,-2,0,9
3385907,464,-8373,1206,0,-2,0,9
3385912,458,-8376,1221,0,-2,0,9
3385917,451,-8375,1234,0,-2,0,9
3385922,437,-8376,1248,0,-2,0,9
3385927,424,-8378,1262,0,-2,0,9
3385932,411,-8381,1274,0,-1,0,9
3385937,406,-8382,1290,0,-1,0,9
3385942,401,-8382,1303,0,-1,0,9
3385947,403,-8380,1313,0,-1,0,9
3385952,404,-8380,1321,0,-1,0,9
3385957,407,-8379,1330,0,0,-1,9
3385962,409,-8377,1336,0,0,-1,9
3385967,406,-8380,1337,0,0,-1,9
3385972,398,-8381,1337,-1,0,-1,9
3385976,392,-8382,1335,-1,0,-1,9
3385981,386,-8380,1335,-1,0,-1,9
3385986,382,-8380,1334,-1,0,-1,9
3385991,384,-8381,1332,-1,0,-1,9
3385996,390,-8381,1330,-1,0,-1,9
3386002,401,-8381,1325,-1,0,-1,9
3386007,408,-8383,1323,-1,0,-1,9
3386011,416,-8381,1320,-1,0,-1,9
3386017,412,-8383,1311,-1,1,-1,9
3386021,404,-8382,1303,-1,1,-1,9
3386027,394,-8384,1291,-1,1,-1,9
3386032,387,-8384,1267,-1,1,-1,9
3386037,383,-8381,1238,-1,1,-1,9
3386041,379,-8378,1200,-1,1,-1,9
3386046,380,-8376,1158,-1,1,-1,9
3386051,377,-8375,1119,-1,1,-1,9
3386056,369,-8377,1075,-1,1,-1,9
3386062,348,-8375,1033,-1,1,-2,9
3386066,321,-8371,993,-1,1,-2,9
3386071,288,-8368,950,-1,1,-2,9
3386076,252,-8365,906,-1,1,-2,9
3386081,225,-8364,865,-1,0,-2,9
3386086,209,-8365,829,0,0,-2,9
3386091,207,-8362,798,0,0,-2,9
3386096,223,-8358,777,0,-1,-2,9
3386101,252,-8357,777,0,-1,-2,9
3386106,290,-8357,797,0,-2,-3,9
3386111,338,-8358,836,0,-4,-3,9
3386116,392,-8357,903,0,-5,-3,9
3386121,449,-8361,1006,0,-7,-3,9
3386126,518,-8370,1140,-1,-9,-3,9
3386131,606,-8377,1316,-1,-13,-3,9
3386136,707,-8387,1529,-1,-19,-3,9
3386141,824,-8395,1771,-2,-27,-3,9
3386146,938,-8406,2048,-2,-38,-3,9
3386151,1013,-8420,2360,-3,-48,-3,9
3386156,1056,-8435,2701,-4,-54,-4,9
3386161,1066,-8453,3087,-5,-57,-4,9
3386166,1029,-8473,3520,-6,-58,-4,9
3386171,981,-8492,3991,-8,-57,-4,9
3386176,913,-8513,4501,-10,-56,-3,9
3386181,819,-8528,5036,-11,-55,-3,9
3386186,704,-8542,5570,-13,-51,-3,9
3386191,568,-8555,6092,-16,-43,-3,9
3386196,423,-8565,6596,-18,-32,-2,9
3386201,272,-8570,7063,-20,-20,-2,9
3386206,122,-8570,7506,-23,-7,-2,9
3386211,-10,-8564,7912,-26,3,-2,9
3386216,-126,-8551,8271,-28,10,-2,9
3386221,-223,-8532,8574,-31,16,-1,9
3386226,-297,-8499,8803,-33,25,-1,9
3386231,-358,-8459,8954,-36,36,-1,9
3386236,-415,-8414,9035,-38,51,-1,9
3386241,-444,-8363,9067,-41,69,-2,9
3386246,-441,-8309,9073,-44,84,-2,9
3386251,-414,-8243,9074,-47,95,-2,9
3386256,-350,-8175,9054,-49,103,-2,9
3386261,-239,-8096,9016,-52,110,-2,9
3386266,-80,-8014,8957,-54,116,-2,9
3386271,107,-7923,8843,-56,121,-3,9
3386276,298,-7832,8678,-57,126,-4,9
3386281,479,-7732,8445,-59,132,-4,9
3386286,621,-7628,8155,-61,138,-5,9
3386291,725,-7524,7817,-63,145,-6,9
3386296,797,-7418,7434,-64,154,-6,9
3386301,841,-7299,7014,-65,165,-7,9
3386306,901,-7192,6537,-66,179,-7,9
3386311,1000,-7086,6008,-67,192,-7,9
3386316,1140,-6981,5409,-67,204,-8,9
3386321,1319,-6883,4767,-66,213,-9,9
3386326,1422,-6802,4201,-67,219,-10,9
3386331,1483,-6724,3715,-67,220,-11,9
3386336,1727,-6636,3238,-67,223,-13,9
3386341,2329,-6506,2479,-66,231,-10,9
3386346,2774,-6428,1410,-59,240,-6,9
3386351,3919,-6392,10,-51,248,-6,9
3386356,4780,-6440,-1536,-48,259,-6,9
3386361,5686,-6398,-2763,-45,250,-7,9
3386366,7214,-6409,-4609,-44,245,-10,9
3386371,8103,-6465,-6291,-44,247,-11,9
3386376,8942,-6468,-7648,-43,218,-13,9
3386381,9440,-6563,-8833,-40,186,-13,9
3386386,9406,-6636,-9619,-36,152,-11,9
3386391,9389,-6711,-10404,-29,119,-8,9
3386396,9367,-6811,-11215,-22,100,-4,9
3386401,9465,-6891,-11953,-15,83,-1,9
3386406,9781,-6972,-12586,-9,69,1,9
3386411,10167,-7049,-13128,-5,59,3,9
3386416,10624,-7119,-13593,-2,45,4,9
3386421,10953,-7173,-13992,1,28,5,9
3386426,11080,-7204,-14334,4,11,6,9
3386431,11040,-7215,-14558,9,-5,8,9
3386436,10828,-7207,-14491,14,-19,11,9
3386441,10606,-7189,-14326,21,-34,14,9
3386446,10431,-7169,-14230,27,-52,16,9
3386451,10300,-7142,-14184,32,-73,19,9
3386456,10228,-7109,-14208,36,-95,20,9
3386461,10153,-7060,-14117,38,-113,21,9
3386466,10036,-6994,-13777,40,-131,21,9
3386471,9822,-6915,-13193,41,-149,20,9
3386476,9473,-6844,-12305,44,-166,20,9
3386481,9027,-6770,-11273,48,-180,20,9
3386486,8501,-6706,-10246,52,-191,20,9
3386491,7941,-6651,-9315,57,-198,20,9
3386496,7384,-6596,-8601,60,-200,20,9
3386501,6874,-6545,-8044,62,-201,20,9
3386506,6419,-6493,-7546,63,-202,20,9
3386511,6001,-6436,-7019,64,-205,19,9
3386516,5630,-6384,-6349,64,-209,18,9
3386521,5257,-6335,-5534,64,-216,16,9
3386526,4859,-6306,-4578,66,-224,14,9
3386531,4436,-6291,-3551,67,-231,12,9
3386536,4080,-6302,-2388,67,-235,11,9
3386541,3630,-6320,-1306,67,-236,10,9
3386546,3229,-6363,-260,66,-234,9,9
3386551,2923,-6416,792,66,-225,7,9
3386556,2600,-6480,1755,65,-215,5,9
3386561,2357,-6561,2659,63,-206,3,9
3386566,2051,-6689,3862,60,-192,2,9
3386571,1583,-6861,5289,54,-175,1,9
3386576,1334,-6954,6602,46,-155,-2,9
3386581,993,-7129,7999,43,-129,-3,9
3386586,496,-7242,8929,38,-109,-4,9
3386591,489,-7390,9994,36,-91,-4,9
3386596,216,-7536,10906,34,-69,-3,9
3386601,-242,-7712,11688,33,-65,-2,9
3386606,-569,-7875,12359,31,-64,-2,9
3386611,-911,-8018,12933,28,-53,-1,9
3386616,-1109,-8164,13276,24,-38,0,9
3386621,-1178,-8279,13227,17,-19,0,9
3386626,-1119,-8392,13406,10,-1,0,9
3386631,-977,-8484,13655,4,8,-1,9
3386636,-865,-8564,14045,-2,11,-2,9
3386641,-768,-8636,14379,-5,12,-2,9
3386646,-724,-8686,14665,-8,14,-2,9
3386651,-682,-8727,14910,-10,16,-2,9
3386656,-671,-8756,15109,-13,22,-2,9
3386661,-659,-8762,14922,-17,30,-2,9
3386666,-649,-8767,14710,-22,40,-2,9
3386671,-666,-8748,14373,-28,50,-2,9
3386676,-664,-8719,14176,-33,60,-3,9
3386681,-692,-8678,14176,-38,70,-3,9
3386686,-676,-8624,14268,-41,79,-3,9
3386691,-648,-8559,14383,-44,88,-3,9
3386696,-592,-8478,14346,-46,96,-3,9
3386701,-470,-8389,14133,-48,104,-4,9
3386706,-335,-8281,13669,-51,114,-4,9
3386711,-160,-8170,13108,-54,123,-5,9
3386716,4,-8053,12570,-58,133,-5,9
3386721,151,-7925,12049,-62,142,-6,9
3386726,298,-7795,11694,-66,149,-7,9
3386731,407,-7652,11393,-68,155,-8,9
3386736,554,-7511,11065,-69,159,-8,9
3386741,714,-7367,10705,-70,162,-9,9
3386746,899,-7216,10172,-71,166,-9,9
3386751,1126,-7066,9496,-72,173,-10,9
3386756,1356,-6920,8746,-73,182,-11,9
3386761,1596,-6767,7955,-75,189,-12,9
3386766,1841,-6635,7217,-76,195,-13,9
3386771,2065,-6502,6546,-77,200,-14,9
3386776,2279,-6371,5909,-78,203,-15,9
3386781,2477,-6263,5297,-77,206,-16,9
3386786,2535,-6171,4869,-77,208,-17,9
3386791,2563,-6074,4536,-77,207,-19,9
3386796,2896,-5940,4074,-78,209,-19,9
3386801,3408,-5696,2896,-75,221,-15,9
3386806,3707,-5681,1775,-64,234,-11,9
3386811,4773,-5686,291,-59,248,-12,9
3386816,5417,-5709,-1108,-56,261,-11,9
3386821,6909,-5657,-2800,-54,264,-13,9
3386826,8262,-5723,-4740,-54,277,-16,9
3386831,9268,-5749,-6403,-53,273,-18,9
3386836,10200,-5791,-7828,-51,246,-20,9
3386841,10660,-5912,-9050,-48,217,-18,9
3386846,10899,-5993,-10097,-41,183,-15,9
3386851,11216,-6135,-10995,-34,156,-11,9
3386856,11610,-6268,-11765,-26,136,-6,9
3386861,12204,-6393,-12424,-19,115,-2,9
3386866,12801,-6523,-12990,-14,95,1,9
3386871,13312,-6638,-13475,-9,73,3,9
3386876,13751,-6743,-13890,-6,45,4,9
3386881,14127,-6818,-14246,-2,13,6,9
3386886,14374,-6853,-14552,3,-18,8,9
3386891,14353,-6857,-14813,10,-45,10,9
3386896,14120,-6857,-15038,17,-73,14,9
3386901,13810,-6849,-15230,25,-103,17,9
3386906,13474,-6829,-15395,31,-125,20,9
3386910,13178,-6795,-15536,36,-142,22,9
3386916,12908,-6744,-15657,39,-156,23,9
3386921,12594,-6673,-15620,42,-170,24,9
3386926,12229,-6580,-15234,45,-185,23,9
3386931,11761,-6480,-14519,49,-200,23,9
3386936,11208,-6378,-13572,53,-213,23,9
3386940,10610,-6274,-12545,58,-223,23,9
3386946,9998,-6189,-11556,63,-229,23,9
3386951,9411,-6106,-10692,67,-231,24,9
3386956,8873,-6017,-9915,70,-230,24,9
3386961,8394,-5929,-9208,72,-230,23,9
3386966,7957,-5843,-8498,73,-230,23,9
3386970,7557,-5758,-7696,74,-231,21,9
3386975,7165,-5685,-6804,75,-235,20,9
3386981,6758,-5622,-5834,76,-242,18,9
3386985,6429,-5597,-4672,77,-253,17,9
3386990,6068,-5566,-3490,77,-263,16,9
3386995,5704,-5567,-2294,77,-273,14,9
3387001,5433,-5594,-972,78,-276,12,9
3387005,5108,-5649,327,77,-274,9,9
3387010,4761,-5718,1542,76,-270,6,9
3387015,4369,-5807,2647,75,-262,4,9
3387020,3940,-5944,3816,73,-243,4,9
3387025,3456,-6111,5393,68,-219,3,9
3387030,2992,-6299,6960,60,-203,1,9
3387035,2547,-6455,8305,54,-182,-2,9
3387040,1834,-6648,9337,49,-156,-2,9
3387045,1647,-6850,10343,45,-129,-4,9
3387050,1272,-7036,11205,43,-97,-4,9
3387055,619,-7251,11945,42,-83,-4,9
3387060,86,-7446,12579,41,-76,-4,9
3387065,-442,-7613,13032,39,-62,-2,9
3387070,-907,-7769,13044,36,-45,0,9
3387075,-1102,-7902,12576,31,-24,1,9
3387080,-1041,-8018,12127,25,-2,2,9
3387085,-777,-8112,11728,18,9,2,9
3387090,-399,-8192,11537,14,12,1,9
3387095,-37,-8264,11658,11,11,0,9
3387100,250,-8323,11620,10,7,-1,9
3387105,445,-8376,11564,10,3,-1,9
3387110,521,-8419,11213,10,0,-1,9
3387115,525,-8448,10436,9,-1,0,9
3387120,493,-8474,9587,7,0,0,9
3387125,447,-8487,8601,3,2,1,9
3387130,436,-8493,7788,0,3,1,9
3387135,451,-8496,7281,-3,4,1,9
3387140,496,-8494,6938,-4,4,0,9
3387145,529,-8496,6774,-4,4,0,9
3387150,541,-8494,6575,-3,3,0,9
3387155,524,-8487,6216,-2,3,0,9
3387160,434,-8482,5640,-1,2,0,9
3387165,338,-8475,4939,-2,3,-1,9
3387170,227,-8467,4215,-4,5,-1,9
3387175,129,-8456,3579,-6,5,-1,9
3387180,82,-8445,3210,-8,7,-1,9
3387185,60,-8434,3019,-8,8,-1,9
3387190,86,-8425,2972,-8,8,-1,9
3387195,116,-8418,2995,-6,7,-1,9
3387200,136,-8410,2853,-5,6,-2,9
3387205,149,-8408,2593,-4,4,-2,9
3387210,135,-8406,2225,-4,4,-2,9
3387215,108,-8402,1788,-5,3,-2,9
3387220,74,-8400,1487,-7,3,-3,9
3387225,44,-8395,1360,-8,3,-3,9
3387230,18,-8391,1398,-9,3,-3,9
3387235,7,-8384,1599,-8,3,-3,9
3387240,21,-8379,1815,-7,3,-3,9
3387245,44,-8377,1931,-6,5,-3,9
3387250,84,-8375,1914,-5,8,-3,9
3387255,118,-8376,1749,-5,12,-3,9
3387260,161,-8383,1503,-6,17,-3,9
3387265,197,-8383,1282,-8,21,-3,9
3387270,228,-8382,1167,-9,23,-3,9
3387275,243,-8375,1150,-9,25,-3,9
3387280,273,-8368,1239,-9,26,-3,9
3387285,298,-8360,1335,-8,27,-3,9
3387290,339,-8352,1342,-7,29,-3,9
3387295,393,-8347,1262,-6,31,-2,9
3387300,462,-8344,1052,-6,33,-2,9
3387305,536,-8342,780,-6,33,-3,9
3387310,565,-8340,534,-7,32,-3,9
3387315,596,-8337,350,-7,34,-3,9
3387320,638,-8332,291,-8,35,-3,9
3387325,677,-8326,324,-8,31,-3,9
3387330,724,-8324,384,-7,26,-2,9
3387335,781,-8320,421,-5,23,-2,9
3387340,861,-8316,364,-4,21,-2,9
3387345,951,-8311,221,-4,19,-2,9
3387350,1016,-8311,50,-4,17,-2,9
3387355,1056,-8313,-111,-4,15,-3,9
3387360,1070,-8313,-199,-5,14,-3,9
3387365,1075,-8314,-186,-5,12,-2,9
3387370,1071,-8316,-99,-5,11,-2,9
3387375,1077,-8317,24,-4,10,-2,9
3387380,1099,-8315,131,-3,9,-2,9
3387385,1132,-8315,166,-2,8,-2,9
3387390,1170,-8319,131,-2,7,-2,9
3387395,1210,-8321,48,-2,6,-2,9
3387400,1231,-8325,-38,-2,5,-1,9
3387405,1235,-8329,-71,-3,5,-1,9
3387410,1223,-8332,-33,-3,4,-1,9
3387415,1200,-8332,61,-3,4,-1,9
3387420,1176,-8335,198,-2,3,-1,9
3387425,1156,-8337,311,-2,2,-1,9
3387430,1144,-8336,354,-1,2,-1,9
3387435,1143,-8336,343,-1,1,0,9
3387440,1151,-8337,274,-1,1,0,9
3387445,1156,-8337,196,-1,1,0,9
3387450,1155,-8339,164,-1,1,0,9
3387455,1140,-8336,178,-2,1,0,9
3387460,1111,-8337,242,-1,0,0,9
3387465,1080,-8338,333,-1,-1,0,9
3387470,1049,-8341,404,0,-1,0,9
3387475,1020,-8345,434,0,-2,0,9
3387480,1004,-8345,416,0,-2,0,9
3387485,986,-8345,361,0,-1,0,9
3387490,975,-8344,306,0,-1,0,9
3387495,957,-8346,285,0,-1,0,9
3387500,927,-8348,303,0,-2,0,9
3387505,894,-8349,370,0,-2,0,9
3387510,856,-8350,456,0,-2,0,9
3387515,822,-8351,520,0,-3,0,9
3387520,797,-8353,561,1,-3,0,9
3387525,783,-8353,556,1,-2,0,9
3387530,773,-8354,523,1,-2,0,9
3387535,766,-8355,500,1,-2,0,9
3387540,761,-8354,497,0,-2,0,9
3387545,744,-8353,531,0,-2,0,9
3387550,721,-8357,614,0,-2,0,9
3387555,691,-8358,700,0,-2,0,9
3387560,654,-8361,773,0,-2,0,9
3387565,619,-8364,823,1,-2,0,9
3387570,592,-8366,820,1,-1,0,9
3387575,578,-8364,798,1,-1,0,0
3387580,574,-8366,770,0,-1,0,0
3387585,576,-8367,756,0,0,0,0
3387590,578,-8366,774,0,0,0,0
3387595,575,-8366,825,0,0,0,0
3387600,565,-8365,871,0,0,0,0
3387605,550,-8364,916,0,-1,0,0
3387610,541,-8363,922,0,0,0,0
3387615,536,-8364,890,0,0,0,0
3387620,539,-8367,846,0,0,0,0
3387625,556,-8366,792,0,0,0,0
3387630,570,-8364,753,0,0,0,0
3387635,580,-8365,763,0,0,0,0
3387640,584,-8364,788,0,0,0,0
3387645,577,-8363,817,0,-1,0,0
3387650,564,-8364,842,0,-1,0,0
3387655,547,-8363,834,0,-1,0,0
3387660,533,-8364,803,0,-1,0,0
3387665,529,-8365,778,0,-1,0,0
3387670,534,-8364,751,0,-1,0,0
3387675,544,-8365,750,0,-1,0,0
3387680,557,-8369,779,0,-1,0,0
3387685,566,-8371,816,0,-1,-1,0
3387690,562,-8368,871,0,-1,-1,0
3387695,552,-8369,914,0,-1,-1,0
3387700,538,-8368,926,0,-1,-1,0
3387705,531,-8370,922,0,-1,-1,0
3387710,527,-8373,899,0,-1,-1,0
3387715,528,-8371,870,0,-1,-1,0
3387720,530,-8371,865,-1,-1,-1,0
3387725,530,-8372,879,-1,-1,-1,0
3387730,529,-8373,904,-1,-1,-1,0
3387735,524,-8372,942,-1,-1,-1,0
3387740,522,-8372,965,-1,-1,-1,0
3387745,518,-8371,968,0,-1,-1,0
3387750,515,-8373,961,0,-1,-1,0
3387755,517,-8373,928,-1,-1,-1,0
3387760,514,-8372,887,-1,-1,-1,0
3387765,512,-8370,867,-1,0,-1,0
3387770,512,-8369,856,-1,0,-1,0
3387775,508,-8369,863,-1,-1,-1,0
3387780,508,-8368,884,-1,-1,-1,0
3387785,513,-8365,889,-1,-1,-1,0
3387790,520,-8366,891,-1,-1,-1,0
3387795,532,-8367,884,-1,0,-1,0
3387800,548,-8368,866,-1,0,-1,0
3387805,564,-8370,852,-1,-1,-1,0
3387810,580,-8371,848,-1,-1,-1,0
3387815,588,-8371,853,-1,0,-1,0
3387820,599,-8372,876,-1,0,-1,0
3387825,609,-8372,895,-1,0,-1,0
3387830,621,-8371,906,-1,0,-1,0
3387835,635,-8371,911,-1,0,-1,0
3387840,653,-8371,898,-1,0,-1,0
3387845,672,-8373,875,-1,0,-1,0
3387849,691,-8373,853,-1,0,-1,0
3387855,705,-8374,826,-1,0,-1,0
3387860,709,-8374,810,-1,0,-1,0
3387865,712,-8369,814,-1,0,-1,0
3387869,706,-8369,821,-1,0,-1,0
3387874,703,-8372,823,-1,0,-1,0
3387880,695,-8372,818,-1,0,-1,0
3387885,689,-8370,795,-1,-1,-1,0
3387889,688,-8366,768,-1,-1,-1,0
3387894,692,-8366,735,-1,-1,-1,0
3387899,693,-8365,713,-1,-1,-1,0
3387905,690,-8361,713,-1,-1,-1,0
3387909,682,-8360,726,-1,-1,-1,0
3387914,672,-8360,737,-1,-1,-1,0
3387919,659,-8358,749,-1,-1,-1,0
3387924,649,-8358,753,-1,-1,-1,0
3387929,642,-8359,741,-1,0,-1,0
3387934,641,-8361,728,-1,0,-1,0
3387939,648,-8363,715,-1,0,-1,0
3387944,655,-8365,715,-1,0,-1,0
3387950,659,-8365,734,-1,0,-1,0
3387954,662,-8365,755,-1,0,-1,0
3387959,659,-8365,780,-1,0,-1,0
3387964,654,-8365,806,-1,0,-1,0
3387969,653,-8364,815,-1,0,-1,0
3387974,654,-8364,813,-1,0,-1,0
3387979,662,-8365,802,-1,0,-1,0
3387984,676,-8364,787,-1,0,-1,0
3387989,696,-8366,785,-1,1,-1,0
3387994,721,-8364,794,-1,1,-1,0
3387999,751,-8364,809,-1,0,-1,0
3388004,777,-8365,828,-1,0,-1,0
3388009,796,-8366,842,-1,-1,-1,0
3388014,806,-8370,840,-1,-1,-1,0
3388019,809,-8368,830,-1,-1,-1,0
3388024,805,-8366,806,-1,-1,-1,0
3388029,795,-8361,776,-1,-1,-1,0
3388034,783,-8360,748,-1,-1,-1,0
3388039,782,-8360,721,-1,-1,-1,0
3388044,785,-8358,704,-1,-1,-1,0
3388049,788,-8357,701,-1,-1,-1,0
3388054,796,-8355,702,-1,-1,-1,0
3388059,810,-8356,699,-1,-1,-1,0
3388064,817,-8355,683,-1,-2,-1,0
3388069,818,-8354,649,-1,-2,-1,0
3388074,811,-8356,618,-1,-2,-1,0
3388079,795,-8357,587,-1,-2,-1,0
3388084,775,-8353,562,-1,-2,-1,0
3388089,756,-8351,550,-1,-2,-1,0
3388094,743,-8349,543,-1,-1,-1,0
3388099,735,-8348,533,0,-1,-1,0
3388104,737,-8350,528,0,0,-1,0
3388109,751,-8349,519,0,0,-1,0
3388114,771,-8351,510,0,1,-1,0
3388119,800,-8354,507,0,1,-1,0
3388124,836,-8352,508,0,1,0,0
3388129,879,-8351,517,0,1,0,0
3388134,923,-8349,533,0,1,0,0
3388139,955,-8351,550,0,1,0,0
3388144,979,-8353,565,0,2,0,0
3388149,983,-8354,586,0,3,0,0
3388154,977,-8357,600,0,4,0,0
3388159,966,-8358,605,0,5,0,0
3388164,941,-8360,598,0,6,1,0
3388169,913,-8360,579,0,8,1,0
3388174,885,-8357,550,1,12,1,0
3388179,836,-8355,527,1,15,1,0
3388184,786,-8357,503,1,19,1,0
3388189,747,-8357,490,1,24,1,0
3388194,738,-8355,498,1,27,2,0
3388199,756,-8355,527,0,28,2,0
3388204,803,-8354,564,1,28,2,0
3388209,864,-8351,614,1,28,2,0
3388214,942,-8352,677,1,27,2,0
3388219,1030,-8358,733,1,27,2,0
3388224,1087,-8358,803,0,26,2,0
3388229,1062,-8372,867,0,27,2,0
3388234,957,-8361,925,0,33,2,0
3388239,850,-8363,973,0,41,2,0
3388244,708,-8370,1006,0,49,3,0
3388249,608,-8372,1032,0,53,4,0
3388254,545,-8378,1048,-1,57,4,0
3388259,492,-8384,1073,-1,63,4,0
3388264,458,-8390,1119,-1,72,4,0
3388269,375,-8393,1162,-1,85,4,0
3388274,133,-8406,1149,-1,103,4,0
3388279,-171,-8361,1072,-1,131,3,0
3388284,-404,-8363,962,0,156,4,0
3388289,-606,-8365,843,-1,175,5,0
3388294,-655,-8362,727,-1,183,6,0
3388299,-627,-8359,663,-1,187,7,0
3388304,-527,-8360,661,-2,191,7,0
3388309,-404,-8364,688,-1,197,6,0
3388314,-328,-8362,753,-1,206,6,0
3388319,-320,-8366,800,-1,217,5,0
3388324,-394,-8368,854,0,229,5,0
3388329,-503,-8374,883,0,243,6,0
3388334,-617,-8380,922,-1,259,7,0
3388339,-685,-8385,1008,-1,277,8,0
3388344,-645,-8395,1143,-1,293,8,0
3388349,-492,-8388,1334,-2,300,9,0
3388354,-425,-8394,1498,-2,306,9,0
3388359,-394,-8399,1680,-2,316,9,0
3388364,-415,-8410,1818,-2,331,8,0
3388369,-487,-8425,1949,-2,346,8,0
3388374,-576,-8426,2026,-2,361,9,0
3388379,-657,-8434,2063,-2,376,10,0
3388384,-710,-8430,2080,-2,391,10,0
3388389,-751,-8421,2076,-2,408,11,0
3388394,-773,-8412,2034,-2,427,11,0
3388399,-770,-8399,1965,-2,449,11,0
3388404,-754,-8389,1913,-1,472,12,0
3388409,-735,-8383,1890,-1,497,13,0
3388414,-698,-8383,1884,-1,521,14,0
3388419,-637,-8387,1928,-1,543,15,0
3388424,-535,-8387,2024,-1,562,16,0
3388429,-429,-8392,2147,-1,574,16,0
3388434,-280,-8389,2343,-1,577,17,0
3388439,-120,-8407,2558,-1,569,16,0
3388444,37,-8408,2782,-1,551,16,0
3388449,190,-8420,2964,-1,528,15,0
3388454,315,-8422,3104,-1,500,14,0
3388459,363,-8431,3210,-1,472,13,0
3388464,264,-8471,3241,-1,451,12,0
3388469,46,-8456,3224,-1,440,11,0
3388474,-180,-8428,3064,0,434,10,0
3388479,-337,-8429,2893,0,429,9,0
3388484,-376,-8420,2772,0,421,9,0
3388489,-162,-8417,2757,-1,405,10,0
3388494,192,-8424,2837,-2,378,11,0
3388499,517,-8412,2915,-3,350,11,0
3388504,885,-8409,2987,-2,323,9,0
3388509,1250,-8421,3027,-2,293,8,0
3388514,1556,-8423,3004,-2,259,6,0
3388519,1775,-8426,2916,-2,221,5,0
3388524,1930,-8419,2768,-2,181,3,0
3388529,2038,-8417,2584,-2,137,2,0
3388534,2099,-8418,2405,-2,93,1,0
3388539,2144,-8411,2221,-2,47,0,0
3388544,1989,-8397,1936,-2,3,-1,0
3388549,1685,-8392,1662,-1,-17,-3,0
3388554,1234,-8395,1428,-1,-10,-3,0
3388559,696,-8398,1211,-2,11,-3,0
3388564,106,-8388,1041,-2,37,-2,0
3388569,-496,-8373,824,-2,77,-1,0
3388574,-1081,-8371,611,-1,135,2,0
3388579,-1717,-8377,606,0,204,4,0
3388584,-2233,-8384,642,-2,266,4,0
3388589,-2618,-8393,721,-2,308,4,0
3388594,-2806,-8388,869,-2,329,4,0
3388599,-2764,-8367,1061,-2,337,6,0
3388604,-2559,-8346,1248,-2,341,7,0
3388609,-2274,-8354,1426,-1,347,7,0
3388614,-1962,-8365,1563,-1,356,6,0
3388619,-1712,-8370,1637,-1,367,5,0
3388624,-1515,-8362,1691,-1,377,5,0
3388629,-1345,-8374,1728,-1,383,5,0
3388634,-1185,-8367,1736,-1,382,5,0
3388639,-1053,-8354,1713,0,378,6,0
3388644,-903,-8356,1664,0,376,6,0
3388649,-733,-8359,1605,0,375,6,0
3388654,-557,-8357,1559,0,375,6,0
3388659,-398,-8354,1510,1,376,6,0
3388664,-242,-8357,1475,1,376,6,0
3388669,-110,-8352,1438,1,375,6,0
3388674,6,-8350,1389,1,374,7,0
3388679,116,-8346,1324,2,372,7,0
3388684,219,-8344,1266,2,368,7,0
3388689,300,-8342,1164,3,357,7,0
3388694,385,-8336,1059,3,341,6,0
3388699,443,-8332,962,4,323,6,0
3388704,499,-8328,859,4,305,6,0
3388709,539,-8328,779,4,288,6,0
3388714,501,-8317,679,4,271,5,0
3388719,554,-8318,614,5,253,5,0
3388724,564,-8316,544,5,235,4,0
3388729,572,-8315,465,6,213,3,0
3388734,554,-8312,371,6,186,1,0
3388739,514,-8312,277,7,156,0,0
3388744,498,-8305,172,7,125,0,0
3388749,472,-8304,84,7,97,-1,0
3388754,479,-8304,41,7,73,-2,0
3388759,489,-8303,-1,8,54,-2,0
3388764,503,-8299,0,8,37,-3,0
3388769,510,-8299,-3,8,24,-4,0
3388774,501,-8299,-16,9,11,-5,0
3388779,494,-8299,-12,9,2,-5,0
3388784,460,-8301,-20,9,-3,-5,0
3388789,478,-8309,14,9,1,-4,0
3388794,524,-8310,63,9,8,-3,0
3388799,612,-8314,172,9,15,-3,0
3388804,700,-8313,258,9,16,-3,0
3388809,786,-8317,339,9,13,-4,0
3388814,848,-8318,393,10,0,-4,0
3388819,846,-8330,475,9,-15,-5,0
3388824,855,-8355,708,8,-27,-4,0
3388828,899,-8384,1039,6,-33,-3,0
3388833,941,-8392,1481,4,-36,-2,0
3388839,1006,-8389,1963,4,-31,-2,0
3388844,1061,-8385,2336,5,-19,-2,0
3388849,1119,-8374,2546,7,-7,-2,0
3388853,1137,-8386,2506,8,3,-2,0
3388859,1145,-8409,2313,7,5,-2,0
3388863,1162,-8423,2121,4,1,-1,0
3388869,1176,-8432,2013,2,-8,0,0
3388874,1220,-8427,1978,1,-16,0,0
3388879,1270,-8418,2005,1,-25,0,0
3388884,1320,-8408,2023,2,-35,-1,0
3388889,1342,-8400,1941,3,-49,-2,0
3388894,1335,-8393,1768,4,-66,-2,0
3388898,1316,-8396,1581,4,-86,-2,0
3388903,1289,-8394,1415,3,-108,-2,0
3388908,1278,-8394,1303,2,-128,-3,0
3388914,1282,-8394,1258,1,-146,-3,0
3388918,1274,-8389,1245,2,-161,-4,0
3388923,1250,-8382,1246,2,-174,-5,0
3388928,1199,-8374,1214,3,-187,-6,0
3388933,1139,-8372,1154,4,-200,-6,0
3388938,1085,-8373,1079,4,-214,-6,0
3388943,1031,-8388,1019,3,-226,-6,0
3388948,996,-8382,937,3,-235,-6,0
3388953,956,-8361,830,4,-237,-6,0
3388958,899,-8344,683,4,-230,-6,0
3388963,834,-8330,504,5,-213,-5,0
3388968,757,-8328,380,6,-190,-4,0
3388973,689,-8333,270,6,-166,-3,0
3388978,649,-8332,187,6,-148,-2,0
3388983,629,-8332,135,7,-138,-2,0
3388988,626,-8334,100,7,-137,-2,0
3388993,613,-8336,85,6,-143,-3,0
3388998,593,-8335,95,6,-153,-3,0
3389003,575,-8337,158,6,-166,-4,0
3389008,562,-8335,248,6,-177,-4,0
3389013,554,-8327,423,6,-186,-4,0
3389018,439,-8352,894,6,-192,-5,0
3389023,260,-8409,1466,3,-193,-6,0
3389028,114,-8446,1875,0,-188,-7,0
3389033,-18,-8453,2276,-1,-175,-7,0
3389038,-156,-8452,2769,-1,-155,-6,0
3389043,-329,-8456,3142,0,-128,-5,0
3389048,-495,-8450,3278,2,-98,-4,0
3389053,-618,-8451,3102,4,-70,-2,0
3389058,-661,-8443,2794,4,-49,-1,0
3389063,-665,-8428,2473,4,-33,-1,0
3389068,-635,-8410,2187,4,-22,-2,0
3389073,-602,-8403,1965,4,-14,-2,0
3389078,-555,-8442,1947,4,-5,-2,0
3389083,-456,-8475,2043,0,3,-2,0
3389088,-501,-8405,1374,-2,6,-1,0
3389093,-437,-8352,788,2,0,-2,0
3389098,-289,-8377,706,3,-2,-1,0
3389103,-318,-8381,192,0,-2,0,0
3389108,-58,-8374,144,-2,-1,0,0
3389113,80,-8362,83,-2,11,1,0
3389118,257,-8351,331,-1,18,1,0
3389123,451,-8354,599,0,22,1,0
3389128,462,-8349,689,2,26,1,0
3389133,542,-8367,891,2,26,1,0
3389138,453,-8379,807,2,30,1,0
3389143,460,-8387,834,1,25,2,0
3389148,427,-8401,893,-1,20,2,0
3389153,404,-8405,960,-1,12,1,0
3389158,404,-8409,1170,-1,1,1,0
3389163,273,-8404,1230,-1,-6,0,0
3389168,255,-8401,1348,0,-6,0,0
3389173,191,-8397,1306,0,2,1,0
3389178,220,-8396,1193,0,5,1,0
3389183,269,-8397,1056,-1,4,1,0
3389188,314,-8387,866,-1,3,1,0
3389193,390,-8381,793,-1,5,1,0
3389198,392,-8371,723,-1,13,2,0
3389203,373,-8372,748,-1,26,2,0
3389208,325,-8367,745,-1,41,2,0
3389213,271,-8363,804,0,51,2,0
3389218,211,-8368,869,0,58,3,0
3389223,152,-8369,836,0,61,3,0
3389228,142,-8373,853,0,60,4,0
3389233,145,-8373,809,0,57,4,0
3389238,171,-8373,781,0,52,3,0
3389243,215,-8373,804,0,48,3,0
3389248,258,-8371,782,0,46,3,0
3389253,288,-8369,777,0,44,3,0
3389258,301,-8369,807,0,41,3,0
3389263,298,-8366,816,0,40,3,0
3389268,279,-8364,791,0,41,3,0
3389273,245,-8370,790,0,42,3,0
3389278,226,-8372,759,0,43,3,0
3389283,209,-8371,744,0,46,3,0
3389288,190,-8371,774,0,52,4,0
3389293,188,-8369,774,0,59,4,0
3389298,187,-8369,799,0,67,4,0
3389303,200,-8372,850,0,73,4,0
3389308,217,-8372,892,-1,77,5,0
3389313,218,-8374,955,-1,81,5,0
3389318,213,-8380,1024,-1,83,5,0
3389323,199,-8382,1097,-1,85,5,0
3389328,179,-8385,1186,-1,86,5,0
3389333,160,-8389,1265,-1,87,5,0
3389338,151,-8391,1312,-2,86,5,0
3389343,175,-8391,1323,-2,83,5,0
3389348,220,-8390,1307,-2,77,5,0
3389353,281,-8391,1247,-2,70,4,0
3389358,343,-8390,1153,-2,63,4,0
3389363,395,-8386,1037,-2,58,4,0
3389368,426,-8382,954,-2,52,4,0
3389373,426,-8378,884,-2,46,3,0
3389378,376,-8372,839,-2,38,3,0
3389383,310,-8372,806,-2,30,3,0
3389388,234,-8369,767,-1,20,2,0
3389393,177,-8370,733,-1,10,2,0
3389398,126,-8372,678,-1,0,2,0
3389403,67,-8373,601,-1,-6,2,0
3389408,41,-8368,569,-1,-8,1,0
3389413,41,-8373,600,-1,-10,1,0
3389418,60,-8375,679,-1,-19,0,0
3389423,88,-8382,838,-1,-32,0,0
3389428,153,-8386,999,-1,-51,-1,0
3389433,259,-8384,1162,-1,-74,-1,0
3389438,349,-8382,1318,-1,-99,-2,0
3389443,418,-8392,1461,-1,-120,-2,0
3389448,450,-8397,1548,-2,-134,-3,0
3389453,436,-8394,1573,-2,-140,-3,0
3389458,365,-8396,1584,-2,-137,-3,0
3389463,239,-8404,1572,-2,-126,-3,0
3389468,24,-8440,1649,-3,-109,-3,0
3389473,-285,-8459,1885,-5,-95,-4,0
3389478,-357,-8432,1629,-6,-89,-5,0
3389483,-562,-8416,1690,-5,-82,-4,0
3389488,-717,-8414,1617,-4,-83,-4,0
3389493,-775,-8390,1444,-3,-89,-3,0
3389498,-814,-8393,1344,-2,-97,-2,0
3389503,-730,-8392,1124,-3,-104,-3,0
3389508,-691,-8386,961,-3,-106,-4,0
3389513,-699,-8381,734,-3,-105,-5,0
3389518,-828,-8362,376,-2,-93,-6,0
3389523,-960,-8330,-124,0,-54,-4,0
3389528,-1051,-8326,-411,2,-14,-2,0
3389533,-994,-8372,-343,1,-5,-2,0
3389538,-771,-8394,-264,-2,-19,-2,0
3389543,-575,-8382,-24,-5,-39,-2,0
3389548,-361,-8350,159,-6,-57,-3,0
3389553,-228,-8351,327,-5,-64,-3,0
3389558,-153,-8357,557,-5,-60,-3,0
3389563,-119,-8362,740,-5,-47,-3,0
3389568,-212,-8362,947,-5,-26,-2,0
3389573,-301,-8357,1122,-4,2,-1,0
3389578,-362,-8359,1223,-3,33,1,0
3389583,-409,-8375,1290,-2,64,2,0
3389588,-472,-8382,1223,-2,102,3,0
3389593,-565,-8387,1101,-2,147,4,0
3389598,-667,-8397,1002,-3,193,5,0
3389603,-770,-8399,960,-4,233,7,0
3389608,-844,-8402,971,-4,263,8,0
3389613,-879,-8399,1023,-4,283,8,0
3389618,-868,-8393,1092,-4,293,9,0
3389623,-778,-8385,1130,-3,293,9,0
3389628,-648,-8379,1150,-3,284,8,0
3389633,-473,-8376,1150,-3,271,8,0
3389638,-282,-8367,1125,-3,257,7,0
3389643,-101,-8364,1118,-3,245,7,0
3389648,57,-8372,1126,-3,237,7,0
3389653,181,-8372,1155,-3,234,7,0
3389658,247,-8378,1218,-4,240,7,0
3389663,279,-8394,1308,-4,254,7,0
3389668,285,-8391,1402,-4,273,8,0
3389673,240,-8405,1517,-4,296,9,0
3389678,150,-8408,1624,-5,323,10,0
3389683,-39,-8412,1723,-5,353,11,0
3389688,-207,-8419,1806,-5,383,12,0
3389693,-377,-8421,1818,-5,412,13,0
3389698,-533,-8412,1777,-5,437,14,0
3389703,-645,-8410,1650,-4,456,14,0
3389708,-698,-8393,1484,-4,471,15,0
3389713,-683,-8389,1325,-4,483,15,0
3389718,-600,-8384,1184,-4,490,15,0
3389723,-451,-8369,1065,-4,491,16,0
3389728,-253,-8364,959,-4,487,16,0
3389733,24,-8364,846,-3,473,15,0
3389738,339,-8355,753,-2,449,14,0
3389743,655,-8363,681,-1,416,13,0
3389748,965,-8366,649,-1,373,12,0
3389753,1272,-8342,668,-1,323,11,0
3389758,1516,-8366,778,-1,273,9,0
3389763,1636,-8396,979,-2,237,8,0
3389768,1675,-8378,1194,-3,213,7,0
3389773,1618,-8401,1437,-3,200,6,0
3389778,1480,-8418,1634,-2,196,5,0
3389783,1243,-8415,1750,-2,192,5,0
3389788,966,-8421,1755,-2,190,5,0
3389793,684,-8419,1664,-2,194,5,0
3389798,403,-8411,1510,-2,205,6,0
3389803,172,-8407,1345,-3,220,7,0
3389808,6,-8398,1201,-3,235,7,0
3389813,-95,-8386,1080,-3,246,7,0
3389818,-109,-8381,980,-3,248,7,0
3389823,-34,-8371,882,-3,240,7,0
3389828,108,-8361,771,-3,221,6,0
3389833,296,-8351,659,-2,194,5,0
3389838,515,-8343,539,-2,163,5,0
3389843,690,-8331,380,-1,132,4,0
3389847,805,-8328,256,0,102,3,0
3389853,840,-8326,173,1,79,3,0
3389858,796,-8325,85,2,65,2,0
3389862,706,-8333,51,2,61,2,0
3389868,627,-8342,-33,1,66,1,0
3389872,564,-8348,-104,0,75,1,0
3389877,525,-8346,-125,-1,84,0,0
3389882,502,-8345,-82,-1,87,1,0
3389887,470,-8341,23,-1,87,1,0
3389892,430,-8335,105,0,89,2,0
3389897,367,-8338,156,0,99,2,0
3389903,284,-8341,141,1,115,3,0
3389908,174,-8343,103,1,135,3,0
3389913,48,-8345,63,1,155,3,0
3389917,-68,-8344,61,0,175,4,0
3389922,-156,-8348,126,0,191,5,0
3389927,-188,-8350,247,-1,204,6,0
3389932,-172,-8350,377,-1,212,6,0
3389937,-91,-8348,492,0,215,7,0
3389942,23,-8354,532,1,211,6,0
3389947,150,-8362,522,1,203,6,0
3389952,287,-8367,477,1,193,5,0
3389957,422,-8369,410,1,186,6,0
3389962,569,-8368,369,0,179,6,0
3389967,728,-8368,341,0,175,6,0
3389972,891,-8369,356,0,171,6,0
3389977,1061,-8368,408,0,163,6,0
3389982,1214,-8369,468,0,150,6,0
3389987,1332,-8367,538,0,132,5,0
3389992,1426,-8370,599,0,113,5,0
3389997,1498,-8371,656,0,92,4,0
3390002,1553,-8370,698,0,71,4,0
3390007,1603,-8368,736,0,51,4,0
3390012,1637,-8369,755,0,35,4,0
3390017,1656,-8369,754,0,23,3,0
3390022,1662,-8370,745,0,13,3,0
3390027,1633,-8373,729,0,5,3,0
3390032,1577,-8370,698,0,-4,3,0
3390037,1475,-8369,663,0,-10,3,0
3390042,1351,-8363,602,0,-13,3,0
3390047,1237,-8355,517,0,-14,3,0
3390052,1112,-8353,435,0,-11,4,0
3390057,1022,-8352,343,0,-8,4,0
3390062,953,-8352,271,0,-4,4,0
3390067,906,-8354,239,0,-2,4,0
3390072,895,-8352,224,0,-3,4,0
3390077,885,-8349,242,0,-7,4,0
3390082,925,-8346,261,0,-13,4,0
3390087,987,-8338,272,0,-22,4,0
3390092,1070,-8338,301,1,-34,4,0
3390097,1139,-8348,357,0,-47,4,0
3390102,1165,-8360,472,-1,-59,3,0
3390107,1153,-8375,699,-2,-71,2,0
3390112,1112,-8382,936,-2,-85,2,0
3390117,1054,-8387,1164,-3,-100,2,0
3390122,974,-8395,1443,-3,-115,1,0
3390127,889,-8397,1673,-3,-128,1,0
3390132,778,-8400,1865,-4,-138,0,0
3390137,621,-8399,1998,-4,-145,-1,0
3390142,429,-8391,2038,-4,-153,-1,0
3390147,141,-8386,1944,-4,-168,-3,0
3390152,-259,-8385,1727,-4,-182,-4,0
3390157,-708,-8374,1421,-4,-181,-5,0
3390162,-1183,-8367,1085,-3,-162,-6,0
3390167,-1580,-8375,784,-3,-127,-6,0
3390172,-1863,-8371,570,-3,-83,-5,0
3390177,-2088,-8370,459,-3,-44,-3,0
