millis,ax,ay,az,gx,gy,gz,label
1688174,789,-8285,260,-1,-1,-1,0
1688179,789,-8285,234,-1,-1,-1,0
1688184,788,-8283,217,-1,-1,-1,0
1688189,789,-8284,205,-1,-1,-1,0
1688194,787,-8283,186,-1,-1,-1,0
1688199,786,-8284,172,-1,-1,0,0
1688204,784,-8286,157,-1,-1,0,0
1688209,784,-8285,145,-1,-1,0,0
1688214,780,-8281,137,-1,-1,0,0
1688219,776,-8279,136,-1,-1,0,0
1688224,772,-8274,137,-1,0,0,0
1688229,769,-8275,142,-1,1,0,0
1688234,766,-8278,142,-1,1,0,0
1688239,764,-8278,134,-1,1,0,0
1688244,762,-8277,132,-1,1,0,0
1688249,761,-8276,127,-1,1,0,0
1688254,765,-8277,128,-1,1,0,0
1688259,767,-8279,133,-1,2,0,0
1688264,772,-8280,137,-1,3,0,0
1688269,778,-8276,144,-1,3,0,0
1688274,781,-8273,147,-1,3,0,0
1688279,778,-8274,148,0,4,0,0
1688284,776,-8274,148,0,4,0,0
1688289,774,-8276,154,0,4,0,0
1688294,774,-8278,164,0,4,0,0
1688299,776,-8280,175,-1,4,0,0
1688304,775,-8281,191,-1,4,0,0
1688309,769,-8281,208,-1,3,0,0
1688314,764,-8280,219,-1,3,1,0
1688319,759,-8277,228,0,2,1,0
1688324,749,-8276,230,0,1,1,0
1688329,736,-8277,232,0,-1,1,0
1688334,720,-8275,226,0,-4,1,0
1688339,691,-8275,215,0,-4,1,0
1688344,664,-8278,214,0,-3,0,0
1688349,650,-8276,215,0,-2,1,0
1688354,638,-8279,212,0,-2,0,0
1688359,630,-8280,210,0,-2,0,0
1688364,629,-8284,203,0,-1,1,0
1688369,630,-8285,202,0,-1,0,0
1688374,631,-8283,198,0,-2,0,0
1688379,628,-8288,196,0,-3,1,0
1688384,632,-8291,201,0,-3,0,0
1688389,633,-8294,206,0,-4,0,0
1688394,634,-8295,204,0,-5,1,0
1688399,632,-8297,204,0,-7,1,0
1688404,632,-8294,207,0,-7,1,0
1688409,636,-8291,213,0,-9,1,0
1688414,633,-8289,220,0,-10,1,0
1688419,630,-8288,223,0,-12,0,0
1688424,627,-8288,230,0,-13,0,0
1688429,624,-8286,242,0,-14,0,0
1688434,618,-8283,256,0,-14,1,0
1688439,612,-8284,264,0,-15,1,0
1688444,611,-8284,271,0,-15,1,0
1688449,611,-8283,279,0,-14,1,0
1688454,615,-8281,284,0,-13,1,0
1688459,620,-8280,293,0,-12,1,0
1688464,622,-8281,299,0,-12,1,0
1688469,628,-8281,308,-1,-11,1,0
1688474,628,-8282,317,-1,-10,1,0
1688479,626,-8281,322,-1,-9,1,0
1688484,625,-8280,328,-1,-9,1,0
1688489,622,-8280,329,-1,-8,1,0
1688494,619,-8279,331,-1,-7,1,0
1688499,616,-8280,326,-1,-7,1,0
1688504,609,-8281,320,-1,-7,1,0
1688509,601,-8284,309,-1,-7,1,0
1688514,593,-8284,305,-1,-7,1,0
1688519,582,-8286,304,-1,-7,1,0
1688524,570,-8286,296,-1,-7,1,0
1688529,561,-8287,293,-1,-7,1,0
1688534,555,-8285,286,-1,-7,1,0
1688539,545,-8284,277,-1,-7,1,0
1688544,536,-8284,269,-1,-7,1,0
1688549,528,-8286,266,-1,-7,0,0
1688554,519,-8287,271,-1,-7,0,0
1688559,516,-8289,273,-1,-7,0,0
1688564,509,-8289,266,-1,-7,0,0
1688569,502,-8289,263,-1,-7,0,0
1688574,494,-8287,257,-1,-6,0,0
1688579,484,-8290,254,-1,-6,0,0
1688584,475,-8289,250,-1,-5,0,0
1688589,469,-8288,243,-1,-5,0,0
1688594,462,-8290,232,-1,-5,0,0
1688599,455,-8289,220,-1,-5,0,0
1688604,449,-8288,221,-1,-5,0,0
1688609,444,-8288,216,-1,-5,0,0
1688614,438,-8288,214,-1,-4,0,0
1688619,435,-8287,212,-1,-4,0,0
1688624,433,-8287,208,-1,-4,0,0
1688629,436,-8286,208,-1,-4,0,0
1688634,437,-8285,208,-1,-4,0,0
1688639,436,-8283,207,-1,-3,0,0
1688644,437,-8284,205,-1,-3,0,0
1688649,435,-8286,199,-1,-2,0,0
1688654,437,-8285,193,-1,-1,0,0
1688659,436,-8282,183,-1,0,0,0
1688664,438,-8282,177,-1,0,0,0
1688669,444,-8282,165,-1,0,0,0
1688674,453,-8283,158,-1,0,0,0
1688679,461,-8284,155,-1,0,0,0
1688684,470,-8283,143,-1,0,0,0
1688689,481,-8281,135,-1,1,0,0
1688694,492,-8281,127,-1,1,0,0
1688699,501,-8283,119,-1,1,0,0
1688704,512,-8283,118,-1,1,0,0
1688709,528,-8282,118,-1,1,0,0
1688714,541,-8282,121,-1,1,0,0
1688719,547,-8281,120,-1,0,0,0
1688724,549,-8283,120,-1,0,0,0
1688729,546,-8283,129,0,0,0,0
1688734,541,-8282,132,0,1,0,0
1688739,538,-8281,142,0,1,0,0
1688744,535,-8281,147,-1,1,0,0
1688749,534,-8282,148,0,1,0,0
1688754,531,-8282,155,-1,2,0,0
1688759,530,-8281,162,-1,2,0,0
1688764,528,-8281,171,-1,3,0,0
1688769,526,-8282,177,0,3,0,0
1688774,524,-8281,181,-1,3,0,0
1688779,523,-8281,179,-1,4,0,0
1688784,519,-8281,183,-1,4,0,0
1688789,519,-8284,189,-1,4,0,0
1688794,521,-8283,192,-1,5,0,0
1688799,525,-8282,194,-1,5,0,0
1688804,532,-8284,192,-1,6,0,0
1688809,541,-8282,184,-1,7,0,0
1688814,549,-8282,174,-1,8,0,0
1688819,559,-8286,164,-1,8,0,0
1688824,569,-8285,157,-1,8,0,0
1688829,579,-8282,157,0,8,0,0
1688834,589,-8281,157,0,8,0,0
1688839,599,-8283,156,0,7,0,0
1688844,609,-8283,156,0,7,0,0
1688849,617,-8283,159,0,6,0,0
1688854,625,-8281,166,0,5,0,0
1688859,632,-8280,174,0,4,0,0
1688864,634,-8280,180,0,3,0,0
1688869,636,-8278,185,0,2,0,0
1688874,635,-8278,194,0,1,0,0
1688879,632,-8278,207,0,1,0,0
1688884,628,-8278,214,0,1,0,0
1688889,626,-8279,218,0,1,0,0
1688894,620,-8281,223,0,1,0,0
1688899,612,-8281,221,0,2,0,0
1688904,605,-8279,220,0,3,0,0
1688909,599,-8280,222,0,4,0,0
1688914,597,-8279,228,0,5,0,0
1688919,600,-8276,234,0,6,0,0
1688924,607,-8276,245,0,7,0,0
1688929,610,-8275,252,-1,7,0,0
1688934,618,-8276,265,-1,8,0,0
1688939,623,-8279,272,-1,8,0,0
1688944,628,-8281,273,-1,8,0,0
1688949,630,-8279,273,-1,8,0,0
1688954,634,-8281,270,-1,8,0,0
1688959,634,-8282,262,-1,8,0,0
1688964,632,-8282,245,-1,8,0,0
1688969,624,-8282,232,-1,8,0,0
1688974,617,-8282,216,-1,9,0,0
1688979,607,-8282,192,-1,10,0,0
1688984,599,-8283,171,-1,11,0,0
1688989,597,-8282,154,-1,11,0,0
1688994,597,-8283,144,-1,12,1,0
1688999,597,-8284,135,-1,12,1,0
1689004,598,-8285,133,0,11,0,0
1689009,601,-8286,133,0,10,0,0
1689014,603,-8285,127,0,9,0,0
1689019,602,-8286,122,0,7,1,0
1689024,599,-8288,119,0,6,1,0
1689029,591,-8289,107,0,5,1,0
1689034,578,-8290,95,0,4,1,0
1689039,563,-8291,81,0,3,0,0
1689044,549,-8293,62,0,3,1,0
1689049,533,-8292,47,0,3,0,0
1689054,517,-8291,39,0,4,0,0
1689059,509,-8292,37,0,4,1,0
1689064,502,-8291,43,0,4,0,0
1689069,500,-8291,56,0,3,0,0
1689074,505,-8292,66,0,3,0,0
1689079,511,-8289,80,0,2,0,0
1689084,511,-8289,92,0,2,0,0
1689089,512,-8287,108,0,1,0,0
1689094,510,-8285,119,0,0,0,0
1689099,506,-8283,128,0,0,0,0
1689104,501,-8281,140,0,0,0,0
1689109,497,-8280,154,0,0,0,0
1689114,493,-8279,167,0,0,0,0
1689119,492,-8278,177,0,0,0,0
1689124,488,-8281,191,0,0,0,0
1689129,487,-8280,200,0,0,0,0
1689134,483,-8283,213,0,0,0,0
1689139,478,-8282,227,0,0,0,0
1689144,474,-8283,240,0,-1,0,0
1689149,471,-8285,255,0,-1,0,0
1689154,467,-8285,270,0,-1,0,0
1689159,463,-8286,287,0,-1,0,0
1689164,460,-8287,296,0,-1,0,0
1689169,455,-8286,303,0,0,0,0
1689174,451,-8286,305,0,0,0,0
1689179,446,-8288,308,0,0,0,0
1689184,439,-8288,312,0,0,0,0
1689189,431,-8287,307,0,0,0,0
1689194,424,-8286,296,0,0,0,0
1689199,413,-8283,288,0,0,0,0
1689204,402,-8283,278,0,0,0,0
1689209,394,-8281,276,0,1,0,0
1689214,384,-8282,273,0,1,0,0
1689219,375,-8283,268,0,1,0,0
1689224,366,-8286,266,0,2,0,0
1689229,362,-8289,259,0,3,0,0
1689234,361,-8288,258,0,4,0,0
1689239,367,-8288,257,0,4,0,0
1689244,376,-8284,259,0,4,0,0
1689249,386,-8281,268,0,3,0,0
1689254,395,-8280,279,0,2,0,0
1689259,404,-8281,293,0,1,0,0
1689264,409,-8284,311,0,0,0,0
1689269,411,-8283,325,0,-1,0,0
1689274,406,-8282,333,0,-2,0,0
1689279,398,-8283,340,0,-2,0,0
1689284,393,-8286,340,0,-2,0,0
1689289,385,-8286,336,0,-2,-1,0
1689294,381,-8285,330,0,-2,-1,0
1689299,376,-8287,316,0,-2,-1,0
1689304,369,-8286,290,0,-1,-1,0
1689309,358,-8283,255,0,0,-1,0
1689314,354,-8285,212,0,1,-1,0
1689319,354,-8284,172,0,2,-1,0
1689324,359,-8288,142,0,1,-1,0
1689329,366,-8287,125,0,1,-1,0
1689334,376,-8286,129,0,-1,-1,0
1689339,393,-8288,163,0,-2,-1,0
1689344,416,-8289,219,0,-3,-1,0
1689349,442,-8289,288,0,-5,-1,0
1689354,468,-8289,350,0,-6,-1,0
1689359,484,-8287,394,0,-6,-1,0
1689364,488,-8288,410,0,-5,-1,0
1689369,483,-8288,398,0,-4,-1,0
1689374,470,-8288,359,0,-1,-1,0
1689379,460,-8289,321,0,1,-1,0
1689384,458,-8290,288,0,2,-1,0
1689389,464,-8289,278,-1,2,-1,0
1689394,477,-8287,289,-1,1,-1,0
1689399,496,-8284,316,-1,0,-1,0
1689404,514,-8283,348,-1,-1,-1,0
1689409,528,-8279,374,-1,-3,-1,0
1689414,536,-8278,387,-1,-4,-1,0
1689419,537,-8280,381,-1,-5,-1,0
1689424,533,-8283,355,-1,-6,-1,0
1689429,523,-8286,321,-1,-6,-1,0
1689434,512,-8286,283,-1,-6,-1,0
1689439,496,-8283,247,-1,-5,-1,0
1689444,480,-8283,223,-1,-4,-1,0
1689449,470,-8281,204,-1,-3,-1,0
1689454,462,-8282,197,-1,-2,-1,0
1689459,460,-8284,200,0,-1,-1,0
1689464,462,-8284,202,0,0,-1,0
1689469,473,-8281,206,0,0,-1,0
1689474,485,-8280,210,-1,0,-1,0
1689479,500,-8279,220,-1,0,-1,0
1689484,512,-8279,231,-1,-1,-1,0
1689489,518,-8279,236,-1,-1,-1,0
1689494,519,-8282,239,0,-1,-1,0
1689499,522,-8282,236,0,-1,-1,0
1689504,522,-8282,232,0,-1,-1,0
1689509,521,-8284,234,0,-1,-1,0
1689514,520,-8287,238,0,-2,-1,0
1689519,521,-8286,243,-1,-2,-1,0
1689524,521,-8286,250,-1,-1,-1,0
1689529,521,-8287,259,-1,-1,-1,0
1689534,518,-8287,267,-1,0,-1,0
1689539,518,-8289,276,-1,1,-1,0
1689544,518,-8290,282,0,1,-1,0
1689549,520,-8288,282,-1,2,-1,0
1689554,523,-8288,278,-1,1,-1,0
1689559,525,-8288,278,-1,1,-1,0
1689564,521,-8288,275,-1,1,-1,0
1689569,515,-8287,278,-1,1,-1,0
1689574,507,-8286,277,-1,1,-1,0
1689579,498,-8282,277,-1,1,-1,0
1689584,492,-8281,274,-1,2,-1,0
1689589,480,-8283,266,-1,5,-1,0
1689594,483,-8285,259,-1,8,-1,0
1689599,486,-8284,243,-1,10,-1,0
1689604,490,-8285,235,-1,10,-1,0
1689609,498,-8284,231,-1,10,-1,0
1689614,502,-8285,232,-1,8,-1,0
1689619,504,-8283,234,-1,6,-1,0
1689624,500,-8284,237,-1,5,-1,0
1689629,501,-8285,243,-1,4,-1,0
1689634,501,-8289,238,-1,3,-1,0
1689639,496,-8290,236,-1,3,-1,0
1689644,502,-8291,237,-1,3,-1,0
1689649,495,-8292,233,-1,5,-1,0
1689654,500,-8292,236,-1,7,-1,0
1689659,502,-8292,237,-1,9,-1,0
1689664,496,-8291,241,-1,9,-1,0
1689669,499,-8289,253,-1,8,-1,0
1689674,501,-8288,254,-1,7,-1,0
1689679,505,-8287,264,-1,5,-1,0
1689684,509,-8288,271,-1,4,-1,0
1689689,515,-8289,275,-1,2,-1,0
1689694,518,-8287,280,-1,2,-1,0
1689699,513,-8287,281,-1,2,-1,0
1689704,514,-8286,279,-1,2,-1,0
1689709,505,-8287,271,-1,3,-1,0
1689714,499,-8287,263,-1,5,-1,0
1689719,495,-8286,256,-1,6,-1,0
1689724,488,-8283,251,-1,7,-1,0
1689729,483,-8283,246,-1,8,-1,0
1689734,480,-8285,243,-1,8,-1,0
1689739,480,-8286,241,-1,8,-1,0
1689744,488,-8285,240,-1,8,-1,0
1689749,491,-8286,241,-1,7,-1,0
1689754,497,-8285,239,-1,6,-1,0
1689759,497,-8281,237,-1,4,-1,0
1689764,500,-8281,231,-1,2,-1,0
1689769,498,-8280,228,-1,0,-1,0
1689774,494,-8281,226,-1,-1,-1,0
1689779,485,-8281,219,-1,-2,-1,0
1689784,475,-8284,213,-1,-1,-1,0
1689789,469,-8285,212,-1,0,-1,0
1689794,475,-8286,212,-1,1,-1,0
1689799,488,-8288,218,-1,1,-1,0
1689804,508,-8288,227,-1,2,-1,0
1689809,528,-8289,233,-1,2,-1,0
1689814,549,-8287,238,-1,3,-1,0
1689819,567,-8286,240,-1,4,-1,0
1689824,580,-8286,239,-1,4,-1,0
1689829,594,-8286,239,-1,4,-1,0
1689834,601,-8286,238,-1,4,-1,0
1689839,606,-8286,237,-1,3,-1,0
1689844,602,-8287,239,-1,3,-1,0
1689849,591,-8290,242,-1,2,-1,0
1689854,582,-8290,244,-1,2,-1,0
1689859,570,-8288,246,-1,3,-1,0
1689864,559,-8287,250,-1,3,-1,0
1689869,548,-8284,250,-1,3,-1,0
1689874,542,-8279,245,-1,4,0,0
1689879,538,-8281,243,-1,4,-1,0
1689884,538,-8278,245,-1,5,-1,0
1689889,541,-8276,247,-1,6,-1,0
1689894,545,-8277,246,-1,7,0,0
1689899,557,-8280,248,-1,7,0,0
1689904,575,-8282,247,-1,8,0,0
1689909,595,-8282,244,-1,9,0,0
1689914,619,-8282,240,-1,9,0,0
1689919,643,-8285,232,-1,8,0,0
1689924,660,-8287,229,-1,7,0,0
1689929,671,-8287,233,-1,5,0,0
1689934,674,-8284,239,-1,3,0,0
1689939,669,-8285,250,-1,1,0,0
1689944,654,-8284,270,-1,0,0,0
1689949,624,-8285,277,-1,1,0,0
1689954,601,-8288,290,-1,2,0,0
1689959,564,-8293,285,-1,3,0,0
1689964,522,-8292,281,-1,3,0,0
1689969,476,-8294,269,-1,3,0,0
1689974,431,-8295,239,-1,4,0,0
1689979,392,-8292,216,-1,5,0,0
1689984,362,-8291,191,-1,6,0,0
1689989,349,-8292,166,-1,7,-1,0
1689994,343,-8292,151,-1,8,0,0
1689999,351,-8292,146,-1,8,-1,0
1690004,369,-8291,156,-1,8,-1,0
1690009,386,-8289,178,-1,7,-1,0
1690014,410,-8286,203,-1,6,-1,0
1690019,426,-8285,230,-1,4,-1,0
1690024,431,-8284,254,-1,2,-1,0
1690029,430,-8285,269,-1,1,-1,0
1690034,419,-8283,282,-1,0,-1,0
1690039,401,-8283,290,-1,-1,-1,0
1690044,383,-8284,289,-1,0,-1,0
1690049,363,-8285,287,-1,0,-1,0
1690054,346,-8285,282,-1,0,-1,0
1690059,333,-8283,285,-1,-1,-1,0
1690064,321,-8281,288,-1,-1,-1,0
1690069,309,-8281,284,-1,-1,-1,0
1690074,300,-8280,284,-1,-1,-1,0
1690079,301,-8280,275,-1,-1,-1,0
1690084,309,-8280,270,-1,-1,-2,0
1690089,322,-8280,273,-1,-1,-2,0
1690094,335,-8281,274,-1,-2,-2,0
1690099,354,-8282,271,-1,-2,-2,0
1690104,375,-8283,262,-1,-2,-2,0
1690109,396,-8281,255,-1,-2,-2,0
1690114,418,-8279,250,-1,-3,-2,0
1690119,435,-8276,249,-1,-3,-2,0
1690124,451,-8278,247,-1,-3,-2,0
1690129,464,-8281,247,-1,-3,-2,0
1690134,481,-8280,254,-1,-3,-2,0
1690139,495,-8279,260,-1,-3,-2,0
1690144,505,-8280,267,-1,-3,-2,0
1690149,509,-8282,273,-1,-3,-2,0
1690154,510,-8282,273,-1,-3,-2,0
1690159,511,-8281,273,-1,-3,-2,0
1690164,508,-8281,266,-1,-2,-2,0
1690169,512,-8284,260,-1,-2,-2,0
1690174,516,-8286,259,-1,-3,-2,0
1690179,524,-8285,257,-1,-3,-2,0
1690184,536,-8285,256,-1,-4,-2,0
1690189,543,-8285,255,-1,-5,-2,0
1690194,551,-8285,253,-1,-5,-2,0
1690199,552,-8285,253,-1,-6,-2,0
1690204,556,-8284,248,-1,-6,-2,0
1690209,561,-8286,239,-1,-5,-2,0
1690214,574,-8284,219,-1,-4,-2,0
1690219,588,-8283,204,-1,-3,-1,0
1690224,609,-8281,196,-1,-2,-2,0
1690229,631,-8281,191,-1,-2,-2,0
1690234,658,-8281,184,-1,-1,-1,0
1690239,688,-8281,183,-1,-1,-1,0
1690244,708,-8281,185,-1,-1,-1,0
1690249,720,-8281,189,-1,-1,-1,0
1690254,726,-8280,186,-1,-1,-1,0
1690259,728,-8280,184,-1,-1,-1,0
1690264,730,-8282,185,-1,0,-1,0
1690269,734,-8282,184,-1,0,-1,0
1690274,739,-8279,185,-1,0,-1,0
1690279,737,-8277,186,-1,0,-1,0
1690284,734,-8280,179,-1,0,-1,0
1690289,728,-8279,170,-1,0,-1,0
1690294,725,-8282,163,-1,0,-1,0
1690299,720,-8282,153,-1,0,-1,0
1690304,717,-8281,142,-1,0,-1,0
1690309,717,-8281,134,-1,0,-1,0
1690314,720,-8281,127,-1,-1,-1,0
1690319,720,-8282,128,-1,-1,0,0
1690324,723,-8281,127,0,-1,0,0
1690329,722,-8282,129,0,-1,0,0
1690334,716,-8284,126,0,-1,0,0
1690339,714,-8285,120,0,0,0,0
1690344,712,-8284,117,0,0,0,0
1690349,714,-8282,118,0,0,0,0
1690354,717,-8281,121,0,0,0,0
1690359,719,-8279,126,0,0,0,0
1690364,717,-8276,129,0,0,0,0
1690369,714,-8277,140,0,-1,0,0
1690374,707,-8281,148,0,-1,0,0
1690379,696,-8283,157,0,-1,0,0
1690384,682,-8285,164,0,-1,0,0
1690389,666,-8285,171,0,-1,0,0
1690394,645,-8285,178,0,-1,0,0
1690399,626,-8286,186,0,-1,0,0
1690404,605,-8285,192,0,-1,0,0
1690409,588,-8284,198,0,-1,0,0
1690414,570,-8285,199,0,-1,0,0
1690419,556,-8284,202,0,-1,0,0
1690424,548,-8284,207,0,-1,0,0
1690429,539,-8284,217,0,-1,0,0
1690434,533,-8287,224,0,-1,0,0
1690439,531,-8290,235,0,-1,0,0
1690444,533,-8290,242,0,0,0,0
1690449,532,-8287,244,0,0,0,0
1690454,532,-8286,242,0,0,0,0
1690459,527,-8287,245,0,0,0,0
1690464,522,-8289,243,0,0,0,0
1690469,514,-8286,241,0,0,0,0
1690474,509,-8284,241,0,0,0,0
1690479,502,-8281,248,0,0,0,0
1690484,497,-8279,249,0,0,0,0
1690489,494,-8279,251,0,0,0,0
1690494,492,-8281,254,0,0,0,0
1690499,492,-8283,254,0,0,0,0
1690504,492,-8279,256,0,0,0,0
1690509,495,-8280,255,0,0,0,0
1690514,492,-8282,253,0,0,0,0
1690519,488,-8285,253,0,0,0,0
1690524,488,-8283,251,0,-1,0,0
1690529,485,-8284,251,0,-1,0,0
1690534,483,-8283,251,0,-1,0,0
1690539,478,-8287,256,0,-1,0,0
1690544,472,-8289,256,0,-1,0,0
1690549,470,-8288,252,0,-1,0,0
1690554,469,-8288,247,0,0,-1,0
1690559,469,-8289,240,0,-1,-1,0
1690564,471,-8291,235,0,-1,-1,0
1690569,477,-8291,233,0,-1,-1,0
1690574,484,-8290,229,0,-1,-1,0
1690579,492,-8291,230,0,0,-1,0
1690584,499,-8290,229,0,0,-1,0
1690589,507,-8289,230,0,-1,-1,0
1690594,514,-8290,231,0,-1,-1,0
1690599,521,-8291,234,0,-1,-1,0
1690604,528,-8292,232,0,-1,-1,0
1690609,533,-8290,230,0,-1,-1,0
1690614,535,-8291,232,0,-1,-1,0
1690619,533,-8291,234,-1,-1,-1,0
1690624,531,-8292,238,-1,-1,-1,0
1690629,527,-8290,241,-1,-1,-1,0
1690634,523,-8288,240,-1,-1,-1,0
1690639,521,-8287,241,-1,0,-1,0
1690644,524,-8287,238,-1,0,-1,0
1690649,528,-8287,238,-1,0,-1,0
1690654,531,-8288,240,-1,0,-1,0
1690659,539,-8289,242,-1,0,-1,0
1690664,545,-8293,239,-1,0,-1,0
1690669,550,-8295,233,-1,0,-1,0
1690674,555,-8294,229,-1,0,-1,0
1690679,562,-8294,227,-1,0,-1,0
1690684,566,-8291,227,-1,0,-1,0
1690689,571,-8289,230,-1,0,-1,0
1690694,577,-8289,228,-1,0,-1,0
1690699,585,-8287,228,-1,0,-1,0
1690704,590,-8284,225,-1,0,-1,0
1690709,593,-8284,221,-1,0,0,0
1690714,597,-8284,223,-1,0,-1,0
1690719,599,-8286,222,-1,0,0,0
1690724,601,-8284,223,-1,0,0,0
1690729,601,-8285,222,-1,0,0,0
1690734,598,-8283,226,-1,0,0,0
1690739,599,-8284,232,-1,0,-1,0
1690744,598,-8286,230,-1,0,0,0
1690749,598,-8287,224,-1,0,0,0
1690754,596,-8287,218,-1,0,0,0
1690759,594,-8287,217,0,0,0,0
1690764,593,-8289,218,-1,0,0,0
1690769,592,-8290,214,-1,0,0,0
1690774,592,-8289,214,-1,0,0,0
1690779,590,-8290,211,0,0,0,0
1690784,588,-8292,206,0,0,0,0
1690789,585,-8292,203,0,0,0,0
1690794,584,-8292,199,0,0,0,0
1690799,587,-8291,196,0,0,0,0
1690804,583,-8287,201,0,0,0,0
1690809,583,-8287,204,0,0,0,0
1690814,584,-8285,203,0,0,0,0
1690819,586,-8283,203,0,0,0,0
1690824,586,-8281,202,0,0,0,0
1690829,585,-8280,203,0,0,0,0
1690834,582,-8281,208,0,0,0,0
1690839,577,-8282,217,-1,0,0,0
1690844,567,-8279,227,-1,-1,0,0
1690849,553,-8275,232,-1,-1,0,0
1690854,539,-8277,240,0,0,0,0
1690859,525,-8278,245,-1,0,0,0
1690864,517,-8280,249,-1,0,0,0
1690869,511,-8281,251,-1,0,0,0
1690874,514,-8282,247,-1,0,0,0
1690879,521,-8283,240,-1,0,0,0
1690884,524,-8284,237,-1,0,0,0
1690889,531,-8286,230,-1,0,0,0
1690894,535,-8286,225,0,0,0,0
1690899,537,-8283,222,0,0,0,0
1690904,542,-8282,220,-1,0,0,0
1690909,547,-8283,217,-1,0,0,0
1690914,549,-8281,219,-1,0,0,0
1690919,552,-8281,218,-1,0,0,0
1690924,551,-8284,219,-1,0,0,0
1690929,551,-8283,220,-1,0,0,0
1690934,547,-8283,223,0,0,0,0
1690939,544,-8282,227,0,0,0,0
1690944,540,-8284,228,0,0,0,0
1690949,541,-8283,231,0,0,0,0
1690954,538,-8284,224,-1,0,0,0
1690959,538,-8287,217,-1,0,0,0
1690964,537,-8286,212,0,0,0,0
1690969,536,-8283,208,0,0,0,0
1690974,537,-8283,210,0,0,0,0
1690979,536,-8285,209,0,0,0,0
1690984,536,-8285,209,-1,0,0,0
1690989,537,-8284,210,-1,0,0,0
1690994,538,-8283,212,0,0,0,0
1690999,539,-8284,214,0,0,0,0
1691004,539,-8287,216,0,0,0,0
1691009,536,-8286,211,0,0,0,0
1691014,536,-8288,205,0,0,0,0
1691019,536,-8289,201,0,0,0,0
1691024,535,-8290,194,0,0,0,0
1691029,539,-8288,193,0,0,0,0
1691034,539,-8285,190,0,0,0,0
1691039,538,-8285,189,0,0,0,0
1691044,536,-8286,191,0,0,0,0
1691049,536,-8285,192,0,0,0,0
1691054,533,-8287,201,0,0,0,0
1691059,529,-8288,208,0,0,0,0
1691064,524,-8286,213,0,0,-1,0
1691069,519,-8284,224,0,0,-1,0
1691074,517,-8284,230,0,-1,0,0
1691079,515,-8287,230,0,-1,0,0
1691084,516,-8289,232,0,-1,0,0
1691089,523,-8289,235,0,-1,-1,0
1691094,531,-8289,239,0,0,0,0
1691099,539,-8289,242,-1,0,0,0
1691104,543,-8289,239,-1,0,0,0
1691109,549,-8287,234,-1,-1,0,0
1691114,551,-8285,233,-1,-1,-1,0
1691119,553,-8285,236,-1,-1,-1,0
1691124,553,-8282,236,-1,-1,0,0
1691129,553,-8282,235,-1,-1,0,0
1691134,556,-8279,233,-1,0,-1,0
1691139,556,-8282,230,-1,0,0,0
1691144,558,-8285,232,-1,0,0,0
1691149,560,-8288,232,0,0,0,0
1691154,561,-8289,229,0,0,0,0
1691159,556,-8289,226,0,0,-1,0
1691164,551,-8289,223,0,0,0,0
1691169,548,-8288,225,-1,0,0,0
1691174,543,-8289,226,-1,-1,0,0
1691179,538,-8287,226,-1,-1,0,0
1691184,536,-8287,226,-1,0,0,0
1691189,535,-8285,230,-1,0,-1,0
1691194,539,-8286,229,-1,0,0,0
1691199,540,-8288,229,-1,-1,-1,0
1691204,543,-8287,228,-1,0,-1,0
1691209,541,-8286,231,-1,0,-1,0
1691214,545,-8287,231,-1,0,-1,0
1691219,550,-8287,224,-1,0,-1,0
1691224,558,-8286,217,-1,0,0,0
1691229,563,-8287,206,-1,0,0,0
1691234,568,-8285,199,0,0,0,0
1691239,570,-8284,194,0,0,0,0
1691244,569,-8283,195,-1,0,0,0
1691249,568,-8284,197,0,0,0,0
1691254,564,-8284,196,0,0,0,0
1691259,556,-8282,197,0,-1,0,0
1691264,545,-8283,200,0,-1,0,0
1691269,536,-8283,203,0,-1,0,0
1691274,529,-8281,207,0,-1,0,0
1691279,525,-8278,209,0,0,-1,0
1691284,522,-8276,216,0,-1,0,0
1691289,516,-8274,215,0,-1,0,0
1691294,516,-8271,216,-1,-1,-1,0
1691299,516,-8272,222,0,-1,0,0
1691304,520,-8276,220,0,0,0,0
1691309,521,-8278,217,0,0,-1,0
1691314,522,-8280,216,0,-1,-1,0
1691319,525,-8283,214,0,0,-1,0
1691324,527,-8285,212,0,0,-1,0
1691329,530,-8284,217,0,0,-1,0
1691334,536,-8285,221,0,0,-1,0
1691339,543,-8286,219,0,0,-1,0
1691344,547,-8285,217,0,-1,-1,0
1691349,550,-8284,216,0,-1,0,0
1691354,550,-8282,218,0,-1,-1,0
1691359,550,-8283,221,0,-1,-1,0
1691364,551,-8285,221,0,-1,0,0
1691369,548,-8283,226,0,-1,-1,0
1691374,545,-8284,222,0,-1,0,0
1691379,541,-8284,230,0,-1,0,0
1691384,538,-8285,230,0,-1,-1,0
1691389,537,-8285,227,0,0,-1,0
1691394,536,-8284,227,0,0,-1,0
1691399,536,-8285,225,-1,0,-1,0
1691404,537,-8286,223,0,-1,-1,0
1691409,539,-8287,222,0,0,-1,0
1691414,541,-8285,222,0,0,-1,0
1691419,542,-8285,222,0,0,-1,0
1691424,541,-8283,218,0,-1,-1,0
1691429,543,-8284,220,0,-1,-1,0
1691434,544,-8285,215,0,-1,-1,0
1691439,544,-8285,215,0,-1,-1,0
1691444,543,-8283,219,0,-1,-1,0
1691449,545,-8284,220,0,-1,-1,0
1691454,546,-8286,224,0,-1,0,0
1691459,546,-8287,225,0,-1,-1,0
1691464,546,-8285,228,0,-1,-1,0
1691469,549,-8283,233,0,-1,-1,0
1691474,549,-8278,236,0,-1,-1,0
1691479,548,-8276,243,0,-1,-1,0
1691484,548,-8273,247,-1,-1,-1,0
1691489,550,-8274,255,-1,0,-1,0
1691494,553,-8274,261,-1,0,-1,0
1691499,557,-8274,262,-1,0,-1,0
1691504,560,-8276,256,0,0,-1,0
1691509,565,-8278,257,-1,0,-1,0
1691514,567,-8283,257,-1,0,-1,0
1691519,568,-8286,253,-1,0,-1,0
1691524,566,-8285,251,-1,0,-1,0
1691529,566,-8287,245,-1,0,-1,0
1691534,568,-8286,244,-1,0,-1,0
1691539,569,-8289,237,-1,0,0,0
1691544,568,-8290,238,-1,0,-1,0
1691549,568,-8292,239,-1,-1,-1,0
1691554,569,-8292,241,-1,-1,0,0
1691559,569,-8289,240,-1,-1,-1,0
1691564,568,-8291,240,-1,-1,-1,0
1691569,571,-8289,238,-1,-1,-1,0
1691574,574,-8289,235,-1,-1,0,0
1691579,583,-8290,237,-1,-1,0,0
1691584,587,-8291,240,-1,-1,0,0
1691589,590,-8289,242,-1,-1,0,0
1691594,591,-8289,244,-1,0,0,0
1691599,591,-8290,242,-1,0,0,0
1691604,590,-8292,238,-1,0,0,0
1691609,583,-8291,228,-1,0,0,0
1691614,574,-8290,219,-1,0,0,0
1691619,565,-8290,204,-1,0,0,0
1691624,560,-8288,197,-1,0,0,0
1691629,553,-8287,194,-1,0,0,0
1691634,549,-8286,197,-1,0,0,0
1691639,544,-8287,205,-1,-1,0,0
1691644,543,-8286,213,-1,0,0,0
1691649,543,-8284,220,-1,-1,0,0
1691654,545,-8284,221,-1,0,0,0
1691659,546,-8283,219,-1,0,0,0
1691664,546,-8283,216,-1,0,0,0
1691669,547,-8283,213,-1,0,0,0
1691674,548,-8283,207,-1,0,0,0
1691679,546,-8281,203,-1,0,0,0
1691684,547,-8280,202,-1,0,0,0
1691689,545,-8278,195,-1,0,0,0
1691694,546,-8275,192,0,-1,-1,0
1691699,542,-8275,201,0,-1,-1,0
1691704,537,-8277,210,0,-1,0,0
1691709,533,-8279,218,0,-1,0,0
1691714,527,-8280,226,-1,0,-1,0
1691719,525,-8281,231,-1,0,-1,0
1691724,524,-8281,232,-1,0,0,0
1691729,524,-8280,241,-1,0,0,0
1691734,527,-8278,241,-1,0,0,0
1691739,529,-8279,239,-1,0,-1,0
1691744,532,-8280,238,-1,0,-1,0
1691749,535,-8280,239,-1,0,-1,0
1691754,540,-8281,234,-1,0,0,0
1691759,542,-8282,232,-1,0,-1,0
1691764,546,-8280,228,-1,0,0,0
1691769,553,-8279,228,-1,0,0,0
1691774,557,-8280,225,-1,0,0,0
1691779,559,-8280,223,-1,0,0,0
1691784,561,-8280,214,-1,-1,-1,0
1691789,561,-8282,205,-1,-1,0,0
1691794,561,-8281,197,-1,-1,0,0
1691799,559,-8281,193,-1,-1,0,0
1691804,556,-8282,195,-1,-1,0,0
1691809,551,-8283,197,-1,-1,0,0
1691814,546,-8282,207,-1,-1,0,0
1691819,542,-8284,212,0,-1,0,0
1691824,536,-8283,218,-1,-1,0,0
1691829,533,-8284,221,-1,0,0,0
1691834,532,-8285,227,-1,0,-1,0
1691839,534,-8287,233,-1,0,0,0
1691844,535,-8289,234,-1,0,0,0
1691849,534,-8287,236,-1,-1,0,0
1691854,534,-8287,235,-1,0,0,0
1691859,540,-8289,228,-1,0,-1,0
1691864,545,-8289,225,-1,0,0,0
1691869,553,-8288,227,-1,0,-1,0
1691874,557,-8286,230,-1,0,0,0
1691879,560,-8286,230,-1,0,0,0
1691884,563,-8287,226,-1,0,-1,0
1691889,565,-8290,222,-1,0,0,0
1691894,569,-8289,223,-1,0,0,0
1691899,566,-8289,220,-1,0,-1,0
1691904,565,-8290,219,-1,0,0,0
1691909,563,-8289,222,-1,0,0,0
1691914,559,-8290,225,0,0,0,0
1691919,554,-8286,226,-1,0,0,0
1691924,551,-8286,228,-1,0,0,0
1691929,550,-8285,226,-1,0,0,0
1691934,552,-8284,225,-1,0,0,0
1691939,552,-8284,223,-1,0,-1,0
1691944,551,-8283,217,-1,0,-1,0
1691949,552,-8283,209,-1,0,0,0
1691954,555,-8279,205,0,0,0,0
1691959,556,-8280,199,-1,0,0,0
1691964,554,-8280,197,-1,0,0,0
1691969,553,-8281,194,0,0,0,0
1691974,557,-8281,193,0,0,0,0
1691979,558,-8285,194,-1,0,0,0
1691984,557,-8285,198,0,0,0,0
1691989,562,-8285,203,0,0,0,0
1691994,565,-8284,208,-1,0,0,0
1691999,564,-8285,212,0,0,-1,0
1692004,567,-8287,212,-1,0,0,0
1692009,570,-8290,203,0,0,0,0
1692014,569,-8289,199,0,0,0,0
1692019,568,-8287,192,-1,0,0,0
1692024,566,-8289,189,0,0,0,0
1692029,567,-8285,189,-1,0,0,0
1692034,569,-8283,193,0,0,0,0
1692039,576,-8283,196,0,0,0,0
1692044,580,-8282,203,0,0,0,0
1692049,579,-8283,208,0,0,0,0
1692054,582,-8284,212,0,0,0,0
1692059,583,-8284,218,0,0,0,0
1692064,583,-8287,219,0,0,0,0
1692069,583,-8286,216,0,0,0,0
1692074,583,-8286,226,0,0,0,0
1692079,580,-8285,232,0,0,0,0
1692084,577,-8285,238,0,0,0,0
1692089,570,-8282,236,0,0,0,0
1692094,563,-8280,234,0,0,0,0
1692099,555,-8279,237,0,0,0,0
1692104,547,-8276,240,0,0,0,0
1692109,540,-8277,245,0,0,0,0
1692114,534,-8277,247,-1,0,0,0
1692119,528,-8279,248,0,0,0,0
1692124,528,-8281,243,0,0,0,0
1692129,529,-8284,243,0,0,0,0
1692134,528,-8285,242,0,0,0,0
1692139,529,-8281,241,-1,0,0,0
1692144,535,-8284,239,-1,0,0,0
1692149,542,-8285,242,-1,0,0,0
1692154,541,-8286,242,0,0,0,0
1692159,542,-8285,242,-1,0,0,0
1692164,542,-8284,244,-1,0,0,0
1692169,540,-8286,248,-1,0,0,0
1692174,538,-8286,248,-1,0,0,0
1692179,539,-8289,245,-1,0,0,0
1692184,539,-8289,242,-1,0,0,0
1692189,536,-8289,247,-1,0,0,0
1692194,536,-8291,249,-1,0,0,0
1692199,536,-8291,241,-1,0,0,0
1692204,536,-8287,235,-1,0,0,0
1692209,532,-8284,234,-1,0,0,0
1692214,528,-8284,232,-1,0,0,0
1692219,523,-8283,231,-1,0,0,0
1692224,520,-8281,229,0,0,0,0
1692229,514,-8282,227,-1,0,0,0
1692234,508,-8282,225,0,0,0,0
1692239,504,-8282,224,-1,0,0,0
1692244,500,-8282,226,-1,0,0,0
1692249,497,-8283,231,-1,0,0,0
1692254,498,-8282,235,-1,0,0,0
1692259,501,-8283,231,-1,0,0,0
1692264,503,-8283,226,-1,0,-1,0
1692269,506,-8284,223,-1,0,-1,0
1692274,509,-8283,217,-1,0,-1,0
1692279,512,-8283,214,-1,0,-1,0
1692284,517,-8283,215,-1,0,-1,0
1692289,519,-8281,210,-1,0,-1,0
1692294,518,-8280,212,-1,0,-1,0
1692299,518,-8280,216,-1,0,-1,0
1692304,516,-8280,219,-1,0,-1,0
1692309,511,-8280,222,-1,0,-1,0
1692314,507,-8279,223,-1,0,-1,0
1692319,505,-8282,225,-1,0,-1,0
1692324,505,-8284,228,-1,0,-1,0
1692329,506,-8285,233,-1,0,-1,0
1692334,510,-8284,232,-1,0,-1,0
1692339,515,-8284,227,-1,0,-1,0
1692344,520,-8285,224,-1,0,-1,0
1692349,525,-8285,221,-1,1,-1,0
1692354,533,-8287,217,-1,1,-1,0
1692359,540,-8287,212,-1,1,-1,0
1692364,544,-8288,211,-1,1,-1,0
1692369,549,-8287,214,-1,1,-1,0
1692374,553,-8287,215,-1,1,-1,0
1692379,554,-8284,221,-1,1,-1,0
1692384,554,-8284,227,-1,1,-1,0
1692389,554,-8284,225,-1,1,-1,0
1692394,554,-8284,232,-1,1,-1,0
1692399,556,-8286,243,-1,2,-1,0
1692404,560,-8286,251,-1,2,-1,0
1692409,562,-8283,254,-1,2,-1,0
1692414,563,-8281,255,-1,2,-1,0
1692419,567,-8282,253,-1,3,-1,0
1692424,570,-8285,255,-1,3,-1,0
1692429,575,-8283,248,-1,3,-1,0
1692434,580,-8285,242,-1,3,-1,0
1692439,583,-8286,240,-1,3,-1,0
1692444,587,-8288,232,-1,4,-1,0
1692449,591,-8284,225,-1,4,0,0
1692454,595,-8280,226,-1,4,0,0
1692459,598,-8278,221,-1,5,0,0
1692464,598,-8277,216,-1,5,0,0
1692469,598,-8278,211,-1,5,0,0
1692474,597,-8277,207,-1,5,0,0
1692479,599,-8277,199,-1,5,0,0
1692484,602,-8280,194,-1,5,0,0
1692489,604,-8282,195,-1,5,0,0
1692494,609,-8284,198,-1,4,0,0
1692499,609,-8285,200,-1,3,0,0
1692504,606,-8284,207,-1,2,0,0
1692509,600,-8283,211,-1,2,0,0
1692514,594,-8284,216,-1,2,0,0
1692519,582,-8284,223,-1,2,0,0
1692524,568,-8286,225,-1,2,0,0
1692529,558,-8288,225,-1,2,0,0
1692534,549,-8290,225,-1,3,0,0
1692539,540,-8288,218,-1,4,0,0
1692544,538,-8287,216,-1,5,0,0
1692549,539,-8285,217,-1,5,0,0
1692554,544,-8284,218,-1,6,0,0
1692559,547,-8282,218,-1,5,0,0
1692564,554,-8283,216,-1,5,0,0
1692569,559,-8284,210,-1,4,0,0
1692574,560,-8285,202,-1,4,0,0
1692579,562,-8284,198,-1,3,0,0
1692584,560,-8284,190,-1,3,0,0
1692589,558,-8283,187,-1,2,0,0
1692594,556,-8283,183,-1,2,0,0
1692599,556,-8283,188,-1,2,0,0
1692604,553,-8284,195,-1,1,0,0
1692609,549,-8285,204,-1,1,0,0
1692614,545,-8283,210,-1,1,0,0
1692619,541,-8285,217,-1,1,0,0
1692624,534,-8285,221,-1,0,0,0
1692629,527,-8288,228,-1,0,0,0
1692634,521,-8289,230,-1,0,0,0
1692639,516,-8287,231,-1,0,0,0
1692644,508,-8286,233,-1,0,0,0
1692649,504,-8286,238,-1,0,0,0
1692654,499,-8285,240,-1,1,-1,0
1692659,494,-8283,240,-1,1,-1,0
1692664,491,-8281,238,-1,2,-1,0
1692669,493,-8280,227,-1,3,-1,0
1692674,496,-8278,222,-1,4,-1,0
1692679,505,-8280,214,-1,4,0,0
1692684,514,-8282,205,-1,5,-1,0
1692689,525,-8281,196,-1,5,-1,0
1692694,538,-8283,193,-1,5,-1,0
1692699,549,-8285,189,-1,4,0,0
1692704,558,-8283,190,-1,4,0,0
1692709,564,-8282,188,-1,3,0,0
1692714,571,-8283,190,-1,3,0,0
1692719,575,-8285,186,-1,2,0,0
1692724,576,-8287,182,-1,2,0,0
1692729,576,-8289,172,-1,2,0,0
1692734,578,-8287,165,-1,3,0,0
1692739,581,-8288,156,-1,3,0,0
1692744,584,-8287,148,-1,3,0,0
1692749,591,-8286,143,-1,4,0,0
1692754,596,-8285,134,0,4,0,0
1692759,603,-8286,132,0,4,0,0
1692764,611,-8285,128,0,4,0,0
1692769,615,-8282,121,0,5,0,0
1692774,619,-8280,118,0,5,0,0
1692779,623,-8283,114,0,5,0,0
1692784,626,-8285,105,0,5,0,0
1692789,629,-8285,97,0,6,0,0
1692794,635,-8286,100,0,6,0,0
1692799,643,-8285,100,0,6,0,0
1692804,651,-8285,97,0,6,0,0
1692809,663,-8289,105,0,6,0,0
1692814,672,-8289,114,0,5,0,0
1692819,683,-8288,128,0,5,0,0
1692824,693,-8287,140,0,5,0,0
1692829,698,-8287,155,0,4,0,0
1692834,696,-8289,163,0,4,0,0
1692839,695,-8287,175,0,3,0,0
1692844,688,-8288,190,0,3,0,0
1692849,682,-8290,204,0,2,1,0
1692854,673,-8289,219,0,2,1,0
1692859,663,-8289,235,0,2,1,0
1692864,656,-8286,256,0,1,1,0
1692869,648,-8287,276,0,1,1,0
1692874,638,-8285,298,0,0,1,0
1692879,627,-8288,317,0,-1,1,0
1692884,616,-8291,341,0,-1,1,0
1692889,609,-8288,369,0,-1,1,0
1692894,601,-8290,401,0,-1,1,0
1692899,587,-8286,428,-1,-1,1,0
1692904,572,-8287,449,-1,-1,1,0
1692909,555,-8289,466,-1,-1,1,0
1692914,539,-8291,474,-1,0,1,0
1692919,517,-8292,480,-1,0,1,0
1692924,494,-8291,468,-1,1,1,0
1692929,470,-8292,448,-1,1,1,0
1692934,438,-8291,421,-1,2,0,0
1692939,406,-8291,399,-1,3,0,0
1692944,380,-8294,372,-1,5,0,0
1692949,359,-8295,354,-1,7,0,0
1692954,339,-8295,338,-1,8,0,0
1692959,326,-8294,323,-1,9,0,0
1692964,314,-8294,313,-1,10,0,0
1692969,306,-8295,307,-1,10,0,0
1692974,296,-8293,298,-1,10,0,0
1692979,280,-8293,286,-1,9,0,0
1692984,257,-8292,267,-1,9,0,0
1692989,234,-8293,248,-1,9,0,0
1692994,215,-8293,233,-1,9,-1,0
1692999,200,-8294,217,-1,9,-1,0
1693004,190,-8293,204,-1,10,-1,0
1693009,189,-8291,193,-1,9,-1,0
1693014,190,-8289,179,-1,9,-1,0
1693019,194,-8284,164,-1,9,-1,0
1693024,199,-8284,145,-1,8,-1,0
1693029,204,-8284,126,-1,8,-1,0
1693034,214,-8287,110,-1,7,-1,0
1693039,230,-8289,96,-1,7,-1,0
1693044,249,-8289,87,-1,6,-1,0
1693049,265,-8291,85,-1,6,-2,0
1693054,280,-8292,90,-1,6,-2,0
1693059,293,-8294,92,-1,7,-2,0
1693064,307,-8294,95,-1,7,-2,0
1693069,320,-8292,104,-1,8,-2,0
1693074,335,-8294,120,-1,9,-2,0
1693079,351,-8294,135,-1,10,-2,0
1693084,370,-8294,149,-1,11,-2,0
1693089,392,-8292,164,-1,11,-2,0
1693094,416,-8292,183,-1,11,-2,0
1693099,441,-8293,199,-1,10,-2,0
1693104,465,-8291,210,-1,10,-2,0
1693109,488,-8290,221,-1,9,-2,0
1693114,511,-8287,232,-1,8,-2,0
1693119,536,-8287,239,-1,7,-2,0
1693124,562,-8288,241,-1,7,-2,0
1693129,592,-8292,242,-1,7,-2,0
1693134,626,-8293,242,-1,7,-1,0
1693139,658,-8293,244,-1,8,-1,0
1693144,692,-8293,244,-1,8,-1,0
1693149,724,-8291,242,-1,9,-1,0
1693154,757,-8286,233,-1,9,-1,0
1693159,784,-8283,225,-1,9,-1,0
1693164,811,-8284,214,-1,9,-1,0
1693169,834,-8284,198,-1,9,-1,0
1693174,858,-8285,182,-1,8,-1,0
1693179,879,-8284,163,-1,7,0,0
1693184,891,-8287,144,-1,6,0,0
1693189,899,-8287,131,-1,5,0,0
1693194,904,-8283,125,-1,4,0,0
1693199,906,-8280,122,-1,3,0,0
1693204,904,-8283,123,-1,2,0,0
1693209,899,-8287,123,-1,2,0,0
1693214,894,-8287,132,-1,1,0,0
1693219,889,-8286,146,-1,2,0,0
1693224,880,-8284,160,-1,2,1,0
1693229,873,-8283,179,-1,2,1,0
1693234,862,-8284,196,-1,3,1,0
1693239,849,-8284,204,-1,4,1,0
1693244,833,-8285,206,-1,4,1,0
1693249,812,-8282,194,-1,5,1,0
1693254,788,-8285,178,-1,6,1,0
1693259,766,-8286,155,-1,7,1,0
1693264,748,-8285,129,-1,8,1,0
1693269,732,-8285,106,-1,8,1,0
1693274,719,-8285,86,-1,8,1,0
1693279,708,-8284,76,-1,7,1,0
1693284,691,-8282,69,-1,6,1,0
1693289,675,-8282,68,-1,4,1,0
1693294,658,-8282,68,-1,4,1,0
1693299,644,-8284,75,0,3,1,0
1693304,630,-8287,82,0,3,1,0
1693309,614,-8285,93,0,2,1,0
1693314,596,-8284,109,0,2,1,0
1693319,575,-8283,129,0,1,1,0
1693324,552,-8281,150,0,0,1,0
1693329,527,-8281,167,0,-1,1,0
1693334,500,-8279,178,0,-1,1,0
1693339,477,-8279,189,0,-2,1,0
1693344,462,-8280,189,0,-1,1,0
1693349,455,-8280,187,-1,-1,1,0
1693354,455,-8280,186,-1,0,1,0
1693359,461,-8278,182,-1,0,1,0
1693364,476,-8275,179,-1,1,1,0
1693369,494,-8273,178,-1,2,1,0
1693374,511,-8271,177,-1,2,1,0
1693379,526,-8271,173,-1,3,1,0
1693384,537,-8272,158,-1,4,1,0
1693389,545,-8271,141,-1,5,1,0
1693394,552,-8271,128,0,6,1,0
1693399,558,-8273,117,0,7,1,0
1693404,561,-8275,107,0,8,1,0
1693409,558,-8277,105,-1,8,1,0
1693414,554,-8280,109,-1,7,1,0
1693419,544,-8279,125,0,4,1,0
1693424,525,-8278,141,0,2,1,0
1693429,498,-8279,158,0,-1,1,0
1693434,466,-8281,172,0,-4,1,0
1693439,428,-8280,188,0,-6,1,0
1693444,388,-8278,202,0,-6,1,0
1693449,436,-8270,233,0,-5,1,0
1693454,469,-8278,296,0,-19,-1,0
1693459,27,-8283,464,0,-56,-5,0
1693464,-134,-8275,471,-1,-61,-4,0
1693469,-431,-8281,373,-1,-44,-1,0
1693474,-582,-8289,389,0,-48,2,0
1693479,-476,-8290,279,0,-46,3,0
1693484,-356,-8295,241,1,-29,1,0
1693489,-176,-8298,275,0,-10,-1,0
1693494,-51,-8303,220,0,2,-2,0
1693499,82,-8301,210,-1,1,-3,0
1693504,43,-8303,187,-1,-2,-3,0
1693509,-26,-8309,183,-2,-6,-2,0
1693514,-90,-8307,224,-2,-1,-1,0
1693519,-143,-8301,233,-2,10,-1,0
1693524,-26,-8293,287,-1,16,-1,0
1693529,143,-8288,320,-1,19,-1,0
1693534,293,-8287,302,-1,17,-1,0
1693539,449,-8288,295,-1,11,-1,0
1693544,582,-8286,255,-1,8,-1,0
1693549,629,-8284,229,-2,4,-1,0
1693554,678,-8283,228,-2,1,-1,0
1693559,731,-8280,213,-2,4,-1,0
1693564,738,-8277,220,-1,7,-1,0
1693569,792,-8274,222,-1,9,-1,0
1693574,834,-8274,206,-1,13,-1,0
1693579,832,-8274,198,-1,15,-1,0
1693584,850,-8273,198,-1,14,-1,0
1693589,834,-8271,171,-2,13,-1,0
1693594,783,-8270,178,-2,11,0,0
1693599,758,-8273,193,-2,11,0,0
1693604,722,-8275,191,-1,12,0,0
1693609,688,-8277,203,-1,14,0,0
1693614,671,-8276,203,-1,15,0,0
1693619,652,-8276,184,-1,17,0,0
1693624,630,-8280,172,-1,17,0,0
1693629,625,-8280,145,-1,18,0,0
1693634,623,-8278,117,-1,19,0,0
1693639,626,-8282,99,-1,18,0,0
1693644,657,-8282,68,-1,18,0,0
1693649,679,-8282,64,-1,18,1,0
1693654,710,-8280,54,-1,16,1,0
1693659,740,-8282,44,-1,15,1,0
1693664,759,-8285,24,-1,13,1,0
1693669,781,-8284,-12,-1,11,1,0
1693674,795,-8285,-50,-1,11,1,0
1693679,811,-8283,-100,0,9,1,0
1693684,834,-8282,-145,0,7,1,0
1693689,853,-8282,-192,0,5,1,0
1693694,863,-8282,-246,0,2,1,0
1693699,867,-8285,-290,0,-1,2,0
1693704,866,-8288,-326,0,-3,2,0
1693709,871,-8285,-332,1,-7,2,0
1693714,792,-8286,-325,1,-16,1,0
1693719,659,-8294,-249,1,-32,0,0
1693724,562,-8301,-68,1,-46,0,0
1693729,372,-8283,147,0,-61,0,0
1693734,241,-8268,422,0,-81,0,0
1693739,104,-8259,699,0,-96,1,0
1693744,18,-8248,923,0,-107,1,0
1693749,-12,-8245,1082,1,-114,1,0
1693753,-10,-8250,1163,1,-117,1,0
1693759,30,-8260,1143,1,-120,0,0
1693764,44,-8266,1071,0,-123,0,0
1693769,75,-8278,949,0,-124,-1,0
1693774,87,-8287,799,0,-123,-1,0
1693779,70,-8289,674,-1,-120,-1,0
1693784,65,-8292,552,-1,-117,-1,0
1693789,19,-8294,451,-1,-109,-1,0
1693794,-24,-8292,367,-1,-100,-1,0
1693799,-34,-8293,288,-1,-87,-1,0
1693804,-46,-8292,223,-1,-73,-1,0
1693809,-30,-8293,160,-1,-59,-1,0
1693814,7,-8293,94,-1,-45,-1,0
1693819,39,-8290,41,-1,-32,-1,0
1693824,95,-8289,3,-1,-20,-1,0
1693829,166,-8287,-18,-1,-10,-1,0
1693834,236,-8287,-21,-2,-3,-1,0
1693839,319,-8287,-16,-2,2,-1,0
1693844,404,-8285,2,-1,4,-1,0
1693849,475,-8282,13,-1,4,-1,0
1693854,551,-8277,10,-1,2,-1,0
1693859,615,-8278,-3,-1,0,-1,0
1693864,658,-8277,-30,-1,-3,0,0
1693869,700,-8277,-65,-1,-5,0,0
1693874,715,-8280,-104,-1,-5,0,0
1693879,714,-8284,-142,-1,-4,0,0
1693884,713,-8284,-172,-1,-1,0,0
1693889,694,-8283,-189,-1,4,0,0
1693894,669,-8283,-199,-1,9,0,0
1693899,643,-8285,-209,0,14,0,0
1693904,605,-8287,-200,0,19,0,0
1693909,577,-8286,-191,0,24,0,0
1693914,553,-8286,-171,0,27,0,0
1693919,529,-8287,-143,0,29,0,0
1693924,512,-8286,-120,0,30,0,0
1693929,500,-8289,-87,0,31,0,0
1693934,491,-8287,-56,0,31,0,0
1693939,489,-8283,-23,0,31,0,0
1693943,492,-8281,11,0,29,0,0
1693948,492,-8281,36,0,27,0,0
1693954,500,-8282,56,0,24,0,0
1693959,510,-8282,79,0,21,0,0
1693963,514,-8282,94,0,17,0,0
1693969,527,-8278,108,0,12,1,0
1693974,538,-8279,115,0,8,0,0
1693979,545,-8277,112,0,5,0,0
1693984,558,-8277,112,0,1,1,0
1693989,561,-8275,98,0,-1,1,0
1693994,560,-8278,87,0,-2,1,0
1693999,561,-8277,83,0,-2,1,0
1694003,552,-8278,73,0,-2,1,0
1694009,543,-8278,76,0,-1,1,0
1694014,528,-8278,81,0,-1,1,0
1694019,501,-8278,90,0,-1,1,0
1694024,483,-8280,108,0,-1,1,0
1694028,468,-8278,128,0,0,1,0
1694034,463,-8276,149,0,0,1,0
1694038,472,-8275,175,1,0,1,0
1694044,488,-8276,189,1,0,1,0
1694049,513,-8276,195,1,-1,1,0
1694054,546,-8278,196,1,-2,1,0
1694059,576,-8280,192,1,-3,1,0
1694064,594,-8281,188,1,-3,1,0
1694068,606,-8280,182,1,-4,1,0
1694074,604,-8282,177,0,-4,1,0
1694079,580,-8281,176,0,-4,1,0
1694084,545,-8283,183,0,-3,1,0
1694088,499,-8283,195,0,-2,1,0
1694093,444,-8283,212,0,-1,1,0
1694098,393,-8281,228,0,0,1,0
1694104,339,-8285,241,0,0,1,0
1694109,293,-8287,254,0,1,1,0
1694113,263,-8289,274,0,0,1,0
1694119,239,-8289,283,0,0,1,0
1694124,228,-8290,290,0,0,1,0
1694129,232,-8292,293,0,-1,1,0
1694134,242,-8291,287,0,-1,1,0
1694139,257,-8292,284,0,-2,1,0
1694144,276,-8292,270,0,-2,0,0
1694149,294,-8290,259,0,-3,0,0
1694154,315,-8291,252,0,-4,0,0
1694158,330,-8292,245,0,-4,0,0
1694163,342,-8291,245,0,-3,0,0
1694168,355,-8290,251,0,-3,0,0
1694173,365,-8289,257,0,-3,0,0
1694178,371,-8290,260,0,-2,0,0
1694184,377,-8293,262,0,-2,0,0
1694189,384,-8291,260,0,-2,0,0
1694193,386,-8292,259,0,-2,0,0
1694198,389,-8292,261,0,-3,0,0
1694203,395,-8294,259,0,-2,0,0
1694208,401,-8294,253,0,-2,1,0
1694214,416,-8292,241,0,-3,0,0
1694219,425,-8291,224,0,-3,1,0
1694223,432,-8292,208,0,-4,1,0
1694229,442,-8288,191,0,-5,1,0
1694234,448,-8285,173,0,-6,1,0
1694238,453,-8283,162,0,-7,1,0
1694243,458,-8283,155,0,-7,1,0
1694248,455,-8280,149,0,-6,1,0
1694253,454,-8278,146,0,-6,1,0
1694259,453,-8279,142,0,-5,1,0
1694264,445,-8279,143,0,-5,1,0
1694269,435,-8279,160,0,-4,1,0
1694274,424,-8279,175,0,-4,1,0
1694279,405,-8279,195,0,-3,1,0
1694284,384,-8282,214,0,-3,1,0
1694289,364,-8283,231,0,-3,1,0
1694294,341,-8284,244,0,-3,1,0
1694299,318,-8282,256,0,-4,1,0
1694304,298,-8285,266,0,-4,1,0
1694309,275,-8286,272,0,-4,1,0
1694314,263,-8286,278,0,-5,0,0
1694319,255,-8287,278,0,-5,0,0
1694323,244,-8285,275,0,-6,0,0
1694329,238,-8284,277,0,-6,0,0
1694334,235,-8284,276,0,-6,0,0
1694338,235,-8285,276,0,-5,0,0
1694344,238,-8284,274,0,-4,0,0
1694349,244,-8281,265,0,-3,0,0
1694353,257,-8280,264,0,-2,0,0
1694359,268,-8279,260,0,-1,0,0
1694363,276,-8279,260,0,-1,0,0
1694369,279,-8281,261,0,-2,0,0
1694373,279,-8277,258,0,-2,0,0
1694378,278,-8278,260,0,-3,0,0
1694384,277,-8280,266,0,-3,0,0
1694388,277,-8281,268,0,-3,0,0
1694393,278,-8282,268,0,-3,0,0
1694398,282,-8284,263,0,-3,0,0
1694404,289,-8284,259,0,-3,0,0
1694409,297,-8284,260,0,-3,0,0
1694414,304,-8286,260,0,-2,0,0
1694419,320,-8287,260,0,-2,0,0
1694423,332,-8284,255,0,-2,0,0
1694429,348,-8282,247,0,-2,0,0
1694433,362,-8284,242,0,-2,0,0
1694438,371,-8285,230,0,-2,0,0
1694444,380,-8285,225,0,-2,0,0
1694449,387,-8284,220,0,-2,0,0
1694454,394,-8286,210,0,-2,0,0
1694459,406,-8287,213,0,-1,0,0
1694464,415,-8285,209,0,-1,0,0
1694469,425,-8283,213,0,-1,0,0
1694473,440,-8284,221,0,-1,0,0
1694479,451,-8286,230,0,-1,0,0
1694484,462,-8288,237,0,-2,0,0
1694488,467,-8288,236,0,-2,0,0
1694493,470,-8288,236,0,-2,0,0
1694499,470,-8289,234,0,-2,0,0
1694503,467,-8287,226,0,-1,1,0
1694509,458,-8286,215,0,-1,1,0
1694514,450,-8286,201,0,0,1,0
1694519,440,-8288,192,0,0,1,0
1694524,428,-8289,188,0,0,1,0
1694529,414,-8290,187,0,1,1,0
1694533,405,-8289,191,0,0,1,0
1694538,397,-8288,202,0,0,1,0
1694543,385,-8287,223,0,-1,0,0
1694549,370,-8284,245,0,-1,1,0
1694553,354,-8286,263,0,-1,1,0
1694559,335,-8286,282,0,-1,1,0
1694563,322,-8287,294,0,-1,0,0
1694568,314,-8285,303,0,-2,0,0
1694573,313,-8284,308,0,-2,0,0
1694579,318,-8283,304,0,-2,1,0
1694583,329,-8283,302,0,-3,1,0
1694589,342,-8283,301,0,-3,1,0
1694593,356,-8281,291,0,-4,1,0
1694599,367,-8282,280,0,-3,1,0
1694604,373,-8281,265,0,-3,0,0
1694608,375,-8283,247,0,-2,0,0
1694613,371,-8283,235,0,-1,1,0
1694618,362,-8281,222,0,-1,0,0
1694623,355,-8281,220,0,0,1,0
1694628,345,-8283,221,0,1,1,0
1694633,337,-8282,237,0,1,1,0
1694638,383,-8277,224,0,-2,1,0
1694643,401,-8278,191,1,-8,1,0
1694648,366,-8282,210,1,-10,1,0
1694653,350,-8285,194,0,-9,0,0
1694658,318,-8284,206,0,-8,0,0
1694663,295,-8282,222,0,-7,0,0
1694668,256,-8283,230,0,-6,0,0
1694673,224,-8280,247,0,-5,0,0
1694678,192,-8281,248,1,-3,0,0
1694683,167,-8282,236,0,-2,0,0
1694688,166,-8284,228,0,-1,0,0
1694694,167,-8282,213,0,-1,0,0
1694699,183,-8280,206,0,-1,0,0
1694703,206,-8279,207,0,-1,0,0
1694708,228,-8278,207,0,-1,0,0
1694714,247,-8276,220,0,-2,0,0
1694719,258,-8278,219,1,-3,0,0
1694724,259,-8279,212,1,-4,0,0
1694728,253,-8281,208,1,-4,0,0
1694733,241,-8284,205,1,-5,0,0
1694738,229,-8286,199,1,-4,0,0
1694744,222,-8284,206,1,-3,0,0
1694748,230,-8283,225,0,-1,0,0
1694754,249,-8280,251,0,-1,0,0
1694759,281,-8277,281,0,-1,0,0
1694764,314,-8276,299,1,-3,0,0
1694769,339,-8276,308,1,-5,0,0
1694773,359,-8277,303,1,-7,0,0
1694778,378,-8280,287,1,-10,0,0
1694783,396,-8280,267,1,-13,0,0
1694788,410,-8280,253,1,-16,0,0
1694793,421,-8280,235,1,-19,0,0
1694798,422,-8283,237,1,-22,0,0
1694804,429,-8282,253,1,-24,0,0
1694808,447,-8281,278,1,-26,0,0
1694813,449,-8279,320,1,-30,0,0
1694818,454,-8276,365,1,-33,0,0
1694823,453,-8275,398,1,-37,0,0
1694828,443,-8277,445,1,-41,0,0
1694833,424,-8276,488,1,-45,0,0
1694838,391,-8274,506,1,-50,0,0
1694843,351,-8276,513,1,-54,0,0
1694848,304,-8278,501,1,-58,0,0
1694853,272,-8280,480,1,-60,0,0
1694858,240,-8282,446,1,-58,1,0
1694863,224,-8285,406,1,-52,1,0
1694868,205,-8284,386,1,-45,0,0
1694874,197,-8280,318,1,-34,0,0
1694878,186,-8279,261,1,-21,0,0
1694883,180,-8281,217,1,-8,0,0
1694889,202,-8284,165,1,0,0,0
1694894,216,-8285,158,1,-3,-1,0
1694898,202,-8285,165,1,-17,-1,0
1694903,167,-8284,177,1,-31,-1,0
1694909,148,-8281,202,1,-40,0,0
1694913,174,-8278,216,1,-45,1,0
1694918,268,-8277,225,2,-48,1,0
1694924,416,-8278,233,2,-52,1,0
1694928,571,-8277,244,2,-54,1,0
1694934,670,-8276,275,1,-53,1,0
1694939,715,-8275,330,1,-46,1,0
1694943,711,-8273,413,1,-36,0,0
1694948,654,-8271,506,0,-24,0,0
1694953,575,-8269,593,0,-14,0,0
1694959,468,-8268,655,1,-5,0,0
1694963,368,-8270,668,1,1,1,0
1694968,285,-8271,636,1,7,1,0
1694973,234,-8272,565,1,14,1,0
1694978,229,-8273,470,1,20,2,0
1694983,242,-8274,363,1,25,1,0
1694989,263,-8277,264,0,31,1,0
1694993,278,-8278,178,0,35,1,0
1694998,270,-8280,104,0,39,1,0
1695003,234,-8279,57,0,40,0,0
1695009,177,-8280,29,1,39,0,0
1695013,93,-8280,13,1,37,0,0
1695018,8,-8284,15,1,34,0,0
1695023,-58,-8302,29,1,31,0,0
1695028,-96,-8351,50,1,27,0,0
1695033,-46,-8442,70,1,21,0,0
1695039,52,-8552,75,2,16,0,0
1695043,181,-8668,73,2,8,-1,0
1695049,276,-8784,79,2,-3,-1,0
1695053,329,-8898,116,2,-17,-1,0
1695058,339,-9003,180,2,-28,-1,0
1695064,319,-9095,250,2,-33,-1,0
1695068,295,-9168,294,2,-33,-1,0
1695073,286,-9219,292,2,-30,-1,0
1695078,302,-9251,266,1,-26,-1,0
1695084,335,-9265,231,1,-22,0,0
1695088,367,-9264,216,1,-18,0,0
1695093,379,-9243,229,1,-13,0,0
1695098,378,-9207,256,1,-9,0,0
1695104,362,-9155,284,1,-5,0,0
1695109,356,-9093,303,0,-3,0,0
1695113,369,-9019,305,0,-2,1,0
1695118,393,-8937,294,0,-2,1,0
1695124,408,-8847,269,0,-1,1,0
1695128,406,-8748,236,0,-1,1,0
1695133,382,-8646,210,0,-1,1,0
1695138,340,-8550,194,0,-1,1,0
1695143,299,-8460,183,0,0,1,0
1695148,269,-8373,178,0,2,1,0
1695153,252,-8285,170,0,3,0,0
1695159,252,-8201,158,0,3,0,0
1695163,259,-8124,150,0,3,0,0
1695168,273,-8056,146,0,1,0,0
1695173,285,-8006,147,0,-1,0,0
1695178,283,-7973,145,0,-2,0,0
1695183,276,-7961,142,0,-4,0,0
1695189,266,-7965,132,0,-6,0,0
1695193,251,-7982,127,1,-7,0,0
1695198,242,-8015,123,1,-8,-1,0
1695203,237,-8060,133,1,-9,-1,0
1695208,225,-8113,140,1,-9,-1,0
1695213,208,-8168,142,1,-9,-1,0
1695218,194,-8219,148,1,-9,-1,0
1695223,186,-8263,164,1,-9,-1,0
1695228,191,-8289,189,0,-8,-1,0
1695233,207,-8304,225,0,-7,-2,0
1695238,231,-8303,263,0,-7,-2,0
1695243,262,-8291,299,0,-8,-2,0
1695248,299,-8272,328,0,-9,-2,0
1695253,332,-8244,350,0,-11,-2,0
1695258,356,-8210,366,0,-13,-2,0
1695263,368,-8176,375,0,-14,-2,0
1695268,368,-8143,363,0,-14,-1,0
1695273,361,-8123,335,-1,-13,-2,0
1695278,347,-8108,306,-1,-12,-2,0
1695283,334,-8097,278,-1,-11,-1,0
1695288,329,-8082,260,-1,-11,-1,0
1695293,325,-8069,257,0,-11,-1,0
1695298,326,-8051,250,0,-11,-2,0
1695303,335,-8029,246,0,-12,-2,0
1695308,347,-8007,233,0,-12,-2,0
1695313,363,-7982,233,0,-12,-1,0
1695318,384,-7951,236,0,-12,-1,0
1695323,396,-7920,250,0,-11,-1,0
1695328,401,-7889,261,0,-10,-1,0
1695333,395,-7860,260,0,-8,-1,0
1695338,380,-7839,255,0,-6,-1,0
1695343,368,-7827,238,0,-3,-1,0
1695348,356,-7822,231,0,-1,-1,0
1695353,339,-7820,225,0,2,-1,0
1695359,320,-7824,225,0,4,-1,0
1695363,292,-7830,228,0,6,-1,0
1695368,262,-7838,234,0,7,-2,0
1695373,238,-7844,237,0,8,-2,0
1695378,225,-7842,244,0,9,-2,0
1695383,232,-7836,260,0,9,-2,0
1695388,252,-7816,285,0,10,-2,0
1695393,278,-7788,313,0,10,-2,0
1695398,305,-7762,334,0,9,-2,0
1695403,328,-7743,350,0,8,-2,0
1695408,342,-7730,359,0,8,-2,0
1695413,361,-7728,368,0,8,-2,0
1695418,381,-7734,383,0,8,-2,0
1695423,402,-7751,387,0,8,-2,0
1695428,418,-7779,395,0,9,-2,0
1695433,434,-7812,403,0,9,-2,0
1695438,452,-7850,410,-1,10,-2,0
1695443,478,-7894,418,-1,10,-2,0
1695448,508,-7936,431,-1,9,-1,0
1695453,541,-7975,454,-1,7,-1,0
1695458,572,-8002,480,-1,6,-1,0
1695463,594,-8021,503,-1,4,-1,0
1695468,601,-8032,509,-1,3,-1,0
1695473,598,-8039,497,-1,3,-1,0
1695478,586,-8041,479,-1,5,-1,0
1695483,568,-8040,458,-1,7,0,0
1695488,552,-8042,439,-2,11,0,0
1695493,535,-8043,432,-2,14,0,0
1695498,526,-8053,423,-2,17,0,0
1695503,528,-8074,414,-2,19,0,0
1695508,537,-8098,402,-2,18,0,0
1695513,554,-8121,399,-2,16,0,0
1695518,574,-8143,399,-2,14,0,0
1695523,582,-8161,398,-2,11,0,0
1695528,582,-8183,388,-2,9,0,0
1695533,574,-8203,362,-2,7,0,0
1695538,563,-8216,341,-2,6,0,0
1695543,551,-8221,327,-2,7,0,0
1695548,537,-8225,325,-2,8,0,0
1695553,520,-8233,328,-2,10,0,0
1695558,503,-8248,328,-2,11,0,0
1695563,484,-8260,322,-2,12,0,0
1695568,461,-8271,327,-2,12,0,0
1695573,441,-8280,333,-2,10,0,0
1695578,426,-8280,351,-2,9,0,0
1695583,413,-8271,372,-2,8,0,0
1695588,400,-8262,393,-2,6,0,0
1695593,390,-8256,401,-2,5,0,0
1695598,380,-8254,403,-2,3,0,0
1695603,375,-8250,416,-2,1,0,0
1695608,373,-8241,434,-2,0,0,0
1695613,369,-8231,465,-2,-1,-1,0
1695618,361,-8218,490,-2,-2,-1,0
1695623,351,-8207,497,-3,-2,-1,0
1695628,339,-8196,500,-3,-2,-1,0
1695633,328,-8184,501,-3,-2,-1,0
1695638,318,-8172,504,-3,-1,-1,0
1695643,310,-8162,506,-3,1,-1,0
1695648,299,-8155,518,-3,1,-1,0
1695653,284,-8156,521,-3,1,-1,0
1695658,269,-8160,511,-3,2,-1,0
1695663,255,-8164,494,-4,2,-2,0
1695668,244,-8163,481,-4,3,-2,0
1695673,239,-8165,474,-4,3,-2,0
1695678,237,-8168,470,-4,3,-2,0
1695683,238,-8170,468,-4,3,-2,0
1695688,241,-8175,475,-4,3,-2,0
1695693,240,-8178,485,-4,3,-2,0
1695698,240,-8181,490,-4,2,-2,0
1695703,242,-8188,498,-4,2,-3,0
1695708,241,-8194,500,-4,1,-3,0
1695713,238,-8202,499,-4,1,-3,0
1695718,236,-8213,495,-4,1,-3,0
1695723,233,-8223,495,-5,1,-3,0
1695728,234,-8237,487,-5,1,-3,0
1695733,237,-8258,476,-5,1,-3,0
1695738,238,-8279,457,-5,1,-3,0
1695743,237,-8299,430,-5,2,-3,0
1695748,236,-8326,404,-5,2,-3,0
1695753,236,-8351,390,-5,3,-3,0
1695758,241,-8377,386,-5,3,-3,0
1695763,246,-8396,383,-4,3,-4,0
1695768,251,-8411,385,-4,3,-4,0
1695773,257,-8426,384,-4,3,-4,0
1695778,265,-8437,383,-4,3,-4,0
1695783,278,-8442,385,-4,3,-4,0
1695788,290,-8442,388,-4,4,-4,0
1695793,305,-8435,392,-4,4,-4,0
1695798,319,-8424,401,-5,5,-4,0
1695803,329,-8415,406,-5,6,-4,0
1695808,342,-8405,420,-5,7,-4,0
1695813,348,-8397,430,-5,7,-4,0
1695818,349,-8389,440,-5,7,-4,0
1695823,345,-8387,445,-5,7,-4,0
1695828,342,-8382,449,-5,7,-4,0
1695833,336,-8377,455,-5,7,-4,0
1695838,334,-8368,469,-5,7,-3,0
1695843,333,-8359,477,-5,7,-3,0
1695848,329,-8351,481,-5,7,-4,0
1695853,323,-8344,471,-5,8,-3,0
1695858,316,-8334,450,-5,9,-3,0
1695863,307,-8326,427,-5,10,-3,0
1695868,305,-8320,411,-5,12,-3,0
1695873,306,-8315,404,-5,13,-3,0
1695878,310,-8313,399,-5,15,-3,0
1695883,320,-8314,395,-5,16,-3,0
1695888,333,-8317,389,-5,16,-3,0
1695893,346,-8317,384,-5,15,-3,0
1695898,355,-8322,385,-5,13,-3,0
1695903,362,-8328,391,-5,12,-3,0
1695908,360,-8333,399,-5,11,-3,0
1695913,444,-9142,466,-5,8,-3,0
1695918,631,-9179,62,-6,-1,-3,0
1695923,474,-8973,200,2,-6,1,0
1695928,225,-8805,546,5,-15,3,0
1695933,30,-8668,764,0,-8,0,0
1695938,33,-8736,764,-2,8,-1,0
1695943,39,-8620,735,-1,15,-1,0
1695948,-140,-8552,1066,2,11,1,0
1695953,-176,-8560,1190,1,3,1,0
1695958,-182,-8506,1209,1,11,0,0
1695963,-185,-8457,1280,2,13,1,0
1695968,-147,-8423,1262,1,12,1,0
1695973,-88,-8407,1167,1,12,0,0
1695978,-3,-8368,1072,1,10,1,0
1695983,38,-8318,971,2,9,1,0
1695988,52,-8347,861,2,8,1,0
1695993,111,-8368,795,2,8,1,0
1695998,142,-8336,673,1,8,1,0
1696003,199,-8331,562,1,7,0,0
1696008,253,-8338,454,1,6,0,0
1696013,253,-8320,374,1,6,1,0
1696018,258,-8323,342,1,5,0,0
1696023,248,-8314,327,0,8,0,0
1696028,218,-8309,344,0,10,0,0
1696033,194,-8309,395,0,11,0,0
1696038,153,-8303,424,0,13,0,0
1696043,129,-8302,448,0,14,0,0
1696048,134,-8299,483,0,14,0,0
1696053,140,-8295,494,0,15,0,0
1696058,170,-8293,482,1,15,0,0
1696063,222,-8290,451,0,15,0,0
1696068,269,-8284,411,0,14,0,0
1696073,316,-8281,391,0,13,0,0
1696078,354,-8280,362,0,11,0,0
1696083,363,-8279,337,0,10,0,0
1696088,359,-8280,321,0,8,0,0
1696093,344,-8277,317,0,8,0,0
1696098,307,-8279,306,0,9,0,0
1696103,283,-8280,301,0,10,0,0
1696108,267,-8279,284,0,12,0,0
1696113,264,-8281,252,0,13,0,0
1696118,290,-8278,228,0,14,0,0
1696123,318,-8278,189,0,15,0,0
1696128,354,-8277,136,0,15,0,0
1696133,393,-8279,102,0,15,0,0
1696138,411,-8283,64,0,16,0,0
1696143,423,-8286,35,0,17,0,0
1696148,425,-8282,21,1,19,0,0
1696153,408,-8280,0,1,21,0,0
1696158,392,-8280,4,1,22,0,0
1696163,364,-8279,12,1,24,0,0
1696168,327,-8281,9,1,26,0,0
1696173,294,-8277,27,1,28,0,0
1696178,273,-8277,47,1,31,0,0
1696183,274,-8282,74,1,33,0,0
1696188,311,-8281,109,1,32,0,0
1696193,358,-8280,129,1,31,0,0
1696198,412,-8279,148,1,29,0,0
1696203,468,-8282,157,1,29,0,0
1696208,521,-8283,154,1,31,0,0
1696213,562,-8283,158,1,33,0,0
1696218,603,-8283,177,1,34,0,0
1696223,615,-8280,195,1,35,0,0
1696228,598,-8278,224,1,33,0,0
1696233,574,-8277,254,1,31,0,0
1696238,529,-8275,274,1,30,0,0
1696243,483,-8275,305,1,28,0,0
1696248,457,-8273,322,1,26,0,0
1696253,433,-8272,322,1,22,1,0
1696258,426,-8271,324,1,18,1,0
1696263,431,-8272,308,1,14,1,0
1696268,433,-8274,280,1,10,0,0
1696273,436,-8278,261,1,7,0,0
1696278,438,-8280,229,1,4,0,0
1696283,431,-8284,200,1,2,0,0
1696288,422,-8286,191,1,-1,0,0
1696293,407,-8288,185,1,-2,0,0
1696298,389,-8288,189,1,-2,0,0
1696303,376,-8287,202,1,-2,0,0
1696308,369,-8287,213,1,-1,0,0
1696313,360,-8284,227,1,0,0,0
1696318,359,-8284,239,1,0,0,0
1696323,357,-8285,237,1,-1,0,0
1696328,338,-8285,232,1,-2,0,0
1696333,320,-8287,220,1,-2,0,0
1696338,302,-8285,212,1,-2,0,0
1696343,278,-8286,218,1,-2,0,0
1696348,264,-8286,233,1,-2,0,0
1696353,243,-8290,257,1,-1,0,0
1696358,223,-8288,295,1,-1,0,0
1696363,216,-8285,330,1,-1,0,0
1696368,204,-8281,358,1,-1,0,0
1696373,192,-8279,378,1,-2,0,0
1696378,184,-8280,382,1,-2,0,0
1696383,174,-8283,379,1,-2,0,0
1696388,173,-8284,381,1,-3,0,0
1696393,174,-8288,370,1,-2,0,0
1696398,174,-8287,368,1,-1,0,0
1696403,180,-8287,381,1,-1,0,0
1696408,189,-8290,398,1,0,-1,0
1696413,201,-8291,428,1,0,-1,0
1696418,213,-8290,462,1,0,-1,0
1696423,225,-8288,488,0,0,-1,0
1696428,234,-8289,522,0,0,-1,0
1696433,250,-8291,550,0,0,-1,0
1696438,262,-8289,572,0,0,-1,0
1696443,271,-8289,587,0,0,-1,0
1696448,286,-8287,597,0,-1,-1,0
1696453,302,-8285,603,0,0,-1,0
1696458,317,-8284,608,0,-1,-1,0
1696463,335,-8282,608,0,-1,-1,0
1696468,348,-8283,614,0,-1,-1,0
1696473,355,-8285,619,0,-1,-1,0
1696478,363,-8283,614,0,-1,-1,0
1696483,361,-8280,613,0,-2,-1,0
1696488,356,-8278,604,-1,-2,-1,0
1696493,352,-8280,580,-1,-2,-1,0
1696498,346,-8282,554,-1,-2,-1,0
1696503,347,-8284,528,-1,-2,-1,0
1696508,351,-8282,505,-1,-2,-1,0
1696513,359,-8284,473,-1,-2,-1,0
1696518,366,-8287,450,-1,-2,-1,0
1696523,373,-8288,433,-1,-2,-1,0
1696528,380,-8290,416,-1,-3,-1,0
1696533,381,-8287,401,-1,-3,-1,0
1696538,381,-8290,391,-1,-4,-1,0
1696543,379,-8289,385,-1,-5,-1,0
1696548,379,-8289,383,-1,-6,-1,0
1696553,379,-8289,390,-1,-6,-1,0
1696558,377,-8290,382,-1,-6,-1,0
1696563,384,-8288,383,-1,-5,-1,0
1696568,390,-8288,376,-1,-5,-1,0
1696573,391,-8286,367,-1,-4,-1,0
1696578,398,-8284,360,-1,-3,-1,0
1696583,398,-8283,349,-1,-2,-1,0
1696588,395,-8285,340,-1,-2,0,0
1696593,390,-8287,335,-1,-2,-1,0
1696598,381,-8287,326,-1,-1,-1,0
1696603,376,-8285,322,-1,-1,0,0
1696608,373,-8283,329,-1,-1,-1,0
1696613,373,-8282,334,-1,0,0,0
1696618,370,-8282,338,-1,0,0,0
1696623,368,-8281,345,-1,0,0,0
1696628,369,-8276,342,-1,0,-1,0
1696633,365,-8275,337,-1,0,-1,0
1696638,362,-8277,332,-1,-1,-1,0
1696643,359,-8279,320,-1,0,-1,0
1696648,354,-8281,308,-1,0,0,0
1696653,358,-8281,302,-1,0,0,0
1696658,367,-8281,294,-1,0,-1,0
1696663,379,-8280,294,-1,0,0,0
1696668,390,-8277,292,-1,0,0,0
1696673,395,-8278,287,-1,0,0,0
1696678,394,-8282,284,-1,-1,0,0
1696683,391,-8286,275,-1,-1,-1,0
1696688,383,-8288,265,-1,-2,-1,0
1696693,374,-8289,257,-1,-2,0,0
1696698,364,-8288,244,-1,-2,-1,0
1696703,358,-8284,231,-1,-2,-1,0
1696708,363,-8282,230,-1,-3,0,0
1696713,376,-8284,225,-1,-4,0,0
1696718,394,-8285,230,-1,-6,0,0
1696723,419,-8286,242,-1,-9,0,0
1696728,442,-8282,260,-1,-13,-1,0
1696733,458,-8279,280,-1,-16,0,0
1696738,472,-8275,296,0,-20,0,0
1696743,481,-8272,304,0,-24,-1,0
1696748,484,-8274,308,0,-28,0,0
1696753,487,-8274,302,0,-31,0,0
1696758,487,-8272,284,0,-35,0,0
1696763,481,-8269,274,0,-38,0,0
1696768,475,-8269,263,0,-40,0,0
1696773,469,-8270,247,0,-41,0,0
1696778,485,-8279,237,0,-41,0,0
1696783,498,-8283,213,0,-43,0,0
1696788,478,-8286,196,0,-42,0,0
1696793,476,-8287,165,0,-39,0,0
1696798,474,-8283,111,0,-35,0,0
1696803,466,-8281,51,1,-30,0,0
1696808,465,-8284,-13,1,-25,0,0
1696813,457,-8286,-59,1,-21,0,0
1696818,432,-8287,-84,0,-16,0,0
1696823,388,-8286,-76,0,-11,0,0
1696828,335,-8284,-34,0,-7,0,0
1696833,277,-8285,35,0,-3,-1,0
1696838,247,-8282,113,0,-1,0,0
1696843,203,-8281,208,0,1,0,0
1696848,176,-8283,301,0,1,0,0
1696853,171,-8281,380,0,0,0,0
1696858,173,-8279,424,0,0,-1,0
1696863,164,-8277,452,0,-2,-1,0
1696868,150,-8277,446,0,-3,-1,0
1696873,140,-8280,420,0,-2,-1,0
1696878,135,-8283,381,0,0,-1,0
1696883,148,-8284,344,0,0,-1,0
1696888,167,-8282,307,0,1,-1,0
1696893,184,-8282,281,0,1,-1,0
1696898,205,-8283,261,0,1,-1,0
1696903,214,-8283,254,0,1,-1,0
1696908,211,-8284,249,0,1,-1,0
1696913,201,-8286,252,0,0,-1,0
1696918,179,-8287,264,0,0,-1,0
1696923,153,-8286,277,0,0,-1,0
1696928,135,-8287,298,0,0,-1,0
1696933,130,-8288,316,0,1,-1,0
1696938,139,-8289,337,0,1,-1,0
1696943,165,-8291,349,0,1,-1,0
1696948,193,-8291,353,0,1,-1,0
1696953,223,-8290,353,0,0,-1,0
1696958,254,-8288,347,0,0,-1,0
1696963,279,-8288,337,0,0,-2,0
1696968,300,-8288,325,0,-1,-2,0
1696973,309,-8289,316,0,-1,-2,0
1696978,311,-8289,311,0,-1,-2,0
1696983,308,-8290,311,0,-1,-2,0
1696988,305,-8289,314,0,0,-2,0
1696993,308,-8289,317,0,0,-2,0
1696998,315,-8291,324,0,0,-2,0
1697003,325,-8293,329,0,0,-2,0
1697008,343,-8290,330,0,-1,-2,0
1697013,366,-8290,328,0,-1,-2,0
1697018,392,-8289,321,0,-1,-2,0
1697023,417,-8289,316,0,-1,-2,0
1697028,439,-8285,315,0,-1,-2,0
1697033,457,-8284,322,0,-1,-2,0
1697038,468,-8281,335,0,-1,-2,0
1697043,477,-8280,349,0,-1,-2,0
1697048,483,-8277,370,0,-1,-1,0
1697053,485,-8275,392,0,-1,-2,0
1697058,484,-8274,415,0,-1,-1,0
1697063,482,-8273,426,0,-1,-1,0
1697068,483,-8276,433,0,-2,-1,0
1697073,486,-8281,432,0,-1,-1,0
1697078,497,-8283,431,0,-1,-1,0
1697083,513,-8284,432,0,-1,-1,0
1697088,525,-8284,439,0,-1,-1,0
1697093,538,-8283,449,0,-1,-1,0
1697098,547,-8283,461,0,-1,-1,0
1697103,552,-8283,470,0,-1,-1,0
1697108,550,-8284,474,0,-1,-1,0
1697113,547,-8283,478,0,-1,-1,0
1697118,546,-8282,477,0,0,-1,0
1697123,552,-8280,477,0,0,-1,0
1697128,552,-8279,466,0,-1,-1,0
1697133,552,-8275,451,0,-1,-1,0
1697138,554,-8274,436,0,-1,-1,0
1697143,553,-8269,418,0,0,-1,0
1697148,551,-8271,398,0,0,-1,0
1697153,556,-8273,371,0,-1,-1,0
1697158,555,-8275,344,0,-1,-1,0
1697163,547,-8277,325,0,0,0,0
1697168,541,-8280,316,0,1,-1,0
1697173,542,-8279,318,0,1,-1,0
1697178,538,-8275,319,0,0,-1,0
1697183,526,-8276,327,0,-1,-1,0
1697188,510,-8277,340,0,-1,0,0
1697193,495,-8277,350,0,0,0,0
1697198,489,-8281,347,0,0,0,0
1697203,488,-8281,341,0,-1,0,0
1697208,488,-8279,334,0,-1,0,0
1697213,488,-8281,327,0,-2,0,0
1697218,488,-8283,317,0,-2,0,0
1697223,489,-8283,309,0,-2,0,0
1697228,486,-8281,302,0,-2,0,0
1697233,477,-8279,285,0,-2,0,0
1697238,460,-8279,261,0,-2,0,0
1697243,443,-8278,239,0,-2,0,0
1697248,425,-8275,217,0,-2,0,0
1697253,410,-8272,193,0,-2,0,0
1697258,399,-8272,179,0,-1,0,0
1697263,394,-8272,173,0,0,0,0
1697268,393,-8273,178,0,0,0,0
1697273,396,-8272,184,1,0,0,0
1697278,396,-8272,188,1,1,-1,0
1697283,397,-8276,190,1,1,0,0
1697288,393,-8278,191,1,1,-1,0
1697293,391,-8279,183,1,1,-1,0
1697298,386,-8280,180,1,1,-1,0
1697303,378,-8283,178,1,1,-1,0
1697308,368,-8283,171,1,1,-1,0
1697313,361,-8286,169,1,2,-1,0
1697318,351,-8286,173,1,2,-1,0
1697323,341,-8287,177,1,2,-1,0
1697328,331,-8287,187,1,2,-1,0
1697333,325,-8285,198,1,2,-1,0
1697338,320,-8287,211,1,2,-1,0
1697343,319,-8285,221,1,2,-1,0
1697348,318,-8283,235,1,1,-1,0
1697353,322,-8280,245,1,1,-1,0
1697358,326,-8280,253,1,1,-1,0
1697363,328,-8279,254,1,0,-1,0
1697368,330,-8280,260,1,0,-1,0
1697373,329,-8278,269,2,0,-1,0
1697378,330,-8279,275,2,0,-1,0
1697383,330,-8279,284,2,0,-1,0
1697388,332,-8281,297,2,0,-1,0
1697393,334,-8283,312,2,0,-1,0
1697398,339,-8284,330,2,0,-1,0
1697403,347,-8285,351,2,1,-1,0
1697408,355,-8286,372,2,1,-1,0
1697413,365,-8286,395,1,1,-1,0
1697418,374,-8284,421,1,1,-1,0
1697423,382,-8283,443,1,1,-1,0
1697428,384,-8279,463,1,0,-1,0
1697433,384,-8277,481,1,0,-1,0
1697438,379,-8277,497,1,-1,-1,0
1697443,369,-8279,514,1,-1,-1,0
1697448,373,-8280,527,1,-1,-1,0
1697453,360,-8278,545,1,-1,-1,0
1697458,360,-8281,561,1,-2,-1,0
1697463,360,-8281,571,1,-1,-1,0
1697468,368,-8283,579,1,-1,-1,0
1697473,376,-8286,588,1,0,-1,0
1697478,391,-8287,600,1,0,-1,0
1697483,410,-8286,612,1,0,-1,0
1697488,435,-8282,625,1,1,-1,0
1697493,465,-8281,631,1,2,-1,0
1697498,494,-8282,638,1,2,-1,0
1697503,518,-8281,647,1,3,-1,0
1697508,532,-8283,659,0,3,-1,0
1697513,533,-8279,678,0,4,-1,0
1697518,524,-8278,709,0,5,-1,0
1697523,516,-8278,742,0,6,-1,0
1697528,508,-8277,782,0,7,-1,0
1697533,498,-8279,834,0,7,-1,0
1697538,484,-8277,890,0,7,-1,0
1697543,475,-8279,938,-1,6,-1,0
1697548,463,-8278,981,-1,6,-1,0
1697553,453,-8276,1017,-1,5,-1,0
1697558,442,-8275,1049,-1,5,-1,0
1697563,430,-8277,1077,-1,4,-1,0
1697568,423,-8281,1091,-1,4,-1,0
1697573,419,-8282,1099,-2,3,-1,0
1697578,416,-8281,1106,-2,3,-1,0
1697583,408,-8279,1109,-2,3,-1,0
1697588,400,-8281,1108,-2,2,-1,0
1697593,397,-8280,1101,-2,2,-1,0
1697598,394,-8277,1099,-3,2,-1,0
1697603,390,-8277,1096,-3,2,-1,0
1697608,391,-8275,1090,-3,1,-1,0
1697613,396,-8275,1079,-3,1,-1,0
1697618,407,-8275,1056,-3,1,-1,0
1697623,425,-8271,1025,-3,1,-1,0
1697628,448,-8270,980,-3,0,-1,0
1697633,470,-8271,928,-3,1,-1,0
1697638,490,-8270,866,-3,1,-1,0
1697643,510,-8268,801,-4,2,-1,0
1697648,522,-8270,728,-4,3,-1,0
1697653,524,-8271,648,-3,4,-1,0
1697658,522,-8273,575,-3,5,-1,0
1697663,515,-8274,508,-3,7,-1,0
1697668,501,-8276,446,-3,8,-1,0
1697673,489,-8275,389,-3,9,-1,0
1697678,483,-8274,337,-3,10,-1,0
1697683,475,-8276,290,-3,10,-1,0
1697688,468,-8277,243,-3,9,-1,0
1697693,466,-8278,201,-3,7,-1,0
1697698,458,-8275,152,-3,4,-1,0
1697703,444,-8276,96,-2,0,-1,0
1697708,421,-8276,45,-2,-2,-1,0
1697713,398,-8277,-16,-2,-4,-1,0
1697718,383,-8279,-62,-2,-4,-1,0
1697723,383,-8281,-94,-2,-4,-1,0
1697728,396,-8284,-101,-2,-5,-1,0
1697733,418,-8285,-88,-2,-5,-1,0
1697738,448,-8283,-61,-2,-5,-1,0
1697743,485,-8278,-10,-2,-5,-1,0
1697748,521,-8276,51,-2,-5,-1,0
1697753,551,-8272,118,-2,-6,-1,0
1697758,576,-8270,174,-1,-6,-1,0
1697763,589,-8268,232,-1,-7,-1,0
1697768,594,-8271,278,-2,-7,-1,0
1697773,589,-8272,324,-2,-7,-1,7
1697778,582,-8274,368,-2,-7,-1,7
1697783,568,-8278,413,-2,-6,-1,7
1697788,553,-8278,460,-2,-5,-1,7
1697793,534,-8278,512,-2,-5,-1,7
1697798,509,-8278,567,-2,-4,-1,7
1697803,478,-8275,617,-2,-3,-1,7
1697808,440,-8273,670,-2,-3,-1,7
1697813,389,-8272,724,-3,-2,-1,7
1697818,335,-8271,782,-3,-2,-2,7
1697823,285,-8271,851,-3,-1,-2,7
1697828,236,-8273,928,-4,-1,-2,7
1697833,188,-8276,1018,-4,0,-2,7
1697838,146,-8277,1125,-4,0,-2,7
1697843,109,-8276,1243,-5,0,-2,7
1697848,69,-8276,1365,-5,0,-2,7
1697853,25,-8278,1494,-6,-1,-3,7
1697858,-32,-8280,1632,-6,-1,-3,7
1697863,-104,-8281,1763,-7,-2,-4,7
1697868,-181,-8280,1882,-7,-2,-4,7
1697873,-263,-8282,1986,-8,-3,-4,7
1697878,-339,-8280,2073,-9,-3,-4,7
1697883,-420,-8276,2157,-9,-3,-5,7
1697888,-486,-8275,2220,-10,-3,-5,7
1697893,-527,-8272,2260,-10,-1,-5,7
1697898,-545,-8269,2290,-11,0,-5,7
1697903,-543,-8265,2307,-12,1,-6,7
1697908,-539,-8259,2316,-12,1,-6,7
1697913,-543,-8255,2321,-13,1,-7,7
1697918,-568,-8252,2328,-14,1,-7,7
1697923,-612,-8245,2352,-14,1,-8,7
1697928,-677,-8239,2392,-15,1,-8,7
1697933,-754,-8234,2436,-16,1,-9,7
1697938,-837,-8228,2471,-16,1,-9,7
1697943,-903,-8221,2489,-17,1,-10,7
1697948,-950,-8212,2477,-18,2,-10,7
1697953,-965,-8203,2431,-18,2,-10,7
1697958,-946,-8201,2355,-19,1,-11,7
1697963,-898,-8195,2244,-19,0,-11,7
1697968,-820,-8184,2117,-20,-1,-12,7
1697973,-715,-8173,1978,-20,-2,-12,7
1697978,-599,-8161,1828,-21,-2,-12,7
1697983,-475,-8154,1681,-21,-2,-12,7
1697988,-343,-8146,1536,-21,-2,-13,7
1697993,-219,-8134,1399,-21,-2,-13,7
1697998,-105,-8125,1269,-22,-2,-13,7
1698003,-11,-8115,1140,-22,-3,-13,7
1698008,61,-8103,997,-22,-2,-13,7
1698013,128,-8090,839,-21,-1,-13,7
1698018,202,-8082,671,-21,0,-13,7
1698023,286,-8075,488,-21,1,-13,7
1698028,375,-8073,305,-21,1,-13,7
1698033,462,-8070,133,-21,2,-13,7
1698038,550,-8062,-49,-21,3,-13,7
1698043,641,-8055,-234,-21,5,-13,7
1698048,732,-8051,-408,-21,6,-13,7
1698053,819,-8047,-553,-20,7,-13,7
1698058,903,-8046,-682,-20,7,-12,7
1698063,1003,-8044,-800,-20,9,-12,7
1698068,1126,-8041,-904,-20,11,-12,7
1698073,1282,-8039,-993,-20,13,-11,7
1698078,1463,-8033,-1062,-19,13,-11,7
1698083,1662,-8032,-1118,-19,13,-10,7
1698088,1873,-8031,-1166,-18,12,-9,7
1698093,2088,-8036,-1205,-17,11,-9,7
1698098,2292,-8037,-1241,-17,9,-8,7
1698103,2476,-8040,-1301,-16,7,-7,7
1698108,2646,-8041,-1382,-16,3,-7,7
1698113,2798,-8045,-1477,-15,1,-6,7
1698118,2937,-8049,-1582,-15,0,-5,7
1698123,3066,-8051,-1688,-15,0,-4,7
1698128,3188,-8055,-1796,-14,0,-3,7
1698133,3310,-8061,-1898,-14,1,-1,7
1698138,3413,-8066,-1988,-13,2,0,7
1698143,3505,-8076,-2060,-13,3,1,7
1698148,3604,-8083,-2108,-12,4,2,7
1698153,3695,-8091,-2135,-12,4,3,7
1698158,3808,-8091,-2094,-12,4,3,7
1698163,3943,-8092,-2025,-12,4,3,7
1698168,4097,-8094,-1945,-12,4,4,7
1698173,4255,-8093,-1869,-12,3,4,7
1698178,4384,-8090,-1791,-11,0,6,7
1698183,4470,-8089,-1726,-10,-3,7,7
1698188,4524,-8090,-1666,-10,-6,8,7
1698193,4564,-8090,-1603,-10,-8,9,7
1698198,4591,-8088,-1558,-10,-8,10,7
1698203,4616,-8077,-1552,-10,-6,12,7
1698208,4668,-8074,-1601,-9,-4,13,7
1698213,4702,-8071,-1648,-8,-2,14,7
1698218,4709,-8065,-1730,-8,-2,15,7
1698223,4696,-8056,-1835,-8,-2,16,7
1698228,4658,-8049,-1950,-7,-3,17,7
1698233,4573,-8040,-2052,-7,-3,18,7
1698238,4464,-8034,-2129,-7,-2,19,7
1698243,4353,-8024,-2164,-7,-3,20,7
1698248,4216,-8010,-2202,-6,-3,21,7
1698253,4076,-8000,-2225,-6,-2,22,7
1698258,3950,-7992,-2252,-5,1,23,7
1698263,3832,-7980,-2314,-4,4,23,7
1698268,3726,-7970,-2407,-3,3,24,7
1698273,3612,-7959,-2532,-2,1,25,7
1698278,3485,-7952,-2690,-2,-1,25,7
1698283,3338,-7942,-2856,-1,-2,26,7
1698288,3178,-7934,-3038,0,0,26,7
1698293,3015,-7929,-3254,0,3,27,7
1698298,2855,-7920,-3433,1,4,28,7
1698303,2680,-7912,-3591,2,6,28,7
1698308,2491,-7904,-3739,3,8,28,7
1698313,2313,-7893,-3875,4,11,29,7
1698318,2128,-7884,-4024,5,12,29,7
1698323,1926,-7875,-4190,7,9,28,7
1698328,1701,-7870,-4394,8,4,28,7
1698333,1446,-7866,-4611,10,-3,28,7
1698338,1153,-7864,-4840,11,-8,27,7
1698343,834,-7859,-5057,12,-10,27,7
1698348,512,-7856,-5241,13,-11,26,7
1698353,207,-7854,-5380,15,-12,25,7
1698358,-80,-7853,-5474,16,-13,25,7
1698363,-348,-7846,-5511,17,-13,24,7
1698368,-697,-7842,-5498,18,-13,23,7
1698373,-1068,-7838,-5423,20,-16,22,7
1698378,-1446,-7830,-5323,21,-17,21,7
1698383,-1859,-7830,-5212,22,-18,21,7
1698388,-2276,-7826,-5043,24,-18,20,7
1698393,-2674,-7828,-4873,25,-16,20,7
1698398,-3000,-7828,-4700,26,-13,19,7
1698403,-3265,-7829,-4541,28,-10,18,7
1698408,-3471,-7831,-4403,29,-8,17,7
1698413,-3614,-7831,-4285,30,-9,15,7
1698418,-3746,-7829,-4200,31,-11,14,7
1698423,-3875,-7829,-4113,32,-14,12,7
1698428,-4026,-7830,-4010,32,-17,10,7
1698433,-4202,-7830,-3888,33,-20,8,7
1698438,-4389,-7829,-3729,33,-21,7,7
1698443,-4572,-7828,-3533,33,-20,5,7
1698448,-4742,-7825,-3282,34,-19,3,7
1698453,-4902,-7821,-2981,34,-18,2,7
1698458,-5040,-7819,-2636,35,-16,1,7
1698463,-5140,-7815,-2278,35,-15,-1,7
1698468,-5178,-7813,-1931,36,-14,-2,7
1698473,-5168,-7810,-1596,36,-14,-4,7
1698478,-5120,-7807,-1291,36,-17,-5,7
1698483,-5049,-7804,-1008,36,-21,-7,7
1698488,-4973,-7801,-747,36,-24,-9,7
1698493,-4889,-7797,-500,35,-25,-10,7
1698498,-4780,-7794,-261,35,-25,-11,7
1698503,-4662,-7784,-31,34,-24,-13,7
1698508,-4524,-7777,196,34,-22,-14,7
1698513,-4348,-7772,410,34,-19,-15,7
1698518,-4172,-7771,641,33,-18,-16,7
1698523,-4051,-7770,933,32,-19,-18,7
1698528,-3930,-7767,1209,31,-21,-19,7
1698533,-3808,-7759,1398,31,-25,-20,7
1698538,-3701,-7752,1551,31,-30,-21,7
1698543,-3614,-7758,1740,31,-36,-21,7
1698548,-3536,-7770,2042,30,-40,-22,7
1698553,-3429,-7773,2339,27,-41,-24,7
1698558,-3314,-7761,2574,25,-39,-25,7
1698563,-3207,-7760,2914,25,-40,-26,7
1698568,-3090,-7764,3350,24,-42,-27,7
1698573,-2939,-7759,3639,23,-44,-27,7
1698578,-2712,-7751,3872,22,-51,-28,7
1698583,-2461,-7754,4073,21,-63,-28,7
1698588,-2171,-7760,4172,20,-76,-28,7
1698593,-1853,-7764,4183,19,-89,-29,7
1698598,-1552,-7775,4167,17,-97,-29,7
1698603,-1296,-7787,4140,15,-102,-30,7
1698608,-1087,-7797,4119,13,-102,-30,7
1698613,-934,-7806,4157,10,-98,-30,7
1698618,-839,-7818,4264,9,-92,-30,7
1698623,-779,-7819,4395,7,-83,-30,7
1698628,-648,-7818,4582,6,-73,-30,7
1698633,-430,-7811,4764,5,-64,-30,7
1698638,-121,-7803,4896,4,-56,-30,7
1698643,234,-7803,4984,4,-53,-30,7
1698648,573,-7803,5018,2,-55,-30,7
1698653,907,-7804,4994,1,-60,-30,7
1698658,1257,-7814,4977,-1,-62,-30,7
1698663,1564,-7822,4972,-3,-57,-29,7
1698668,1820,-7828,4967,-5,-50,-29,7
1698673,2039,-7836,4980,-6,-45,-29,7
1698678,2209,-7844,5004,-7,-40,-29,7
1698683,2315,-7853,5025,-9,-36,-28,7
1698688,2378,-7861,5032,-10,-32,-27,7
1698693,2434,-7873,5030,-11,-28,-27,7
1698698,2498,-7886,5010,-12,-23,-26,7
1698703,2584,-7892,4981,-14,-18,-24,7
1698708,2703,-7891,4947,-15,-13,-23,7
1698713,2844,-7890,4902,-16,-6,-23,7
1698718,2981,-7888,4823,-17,-1,-22,7
1698723,3187,-7892,4802,-18,2,-22,7
1698728,3379,-7892,4742,-20,7,-20,7
1698733,3543,-7885,4666,-21,11,-19,7
1698738,3702,-7880,4637,-22,14,-19,7
1698743,3848,-7874,4579,-23,18,-18,7
1698748,3983,-7867,4508,-24,22,-17,7
1698753,4104,-7864,4431,-25,26,-16,7
1698758,4195,-7862,4343,-26,29,-15,7
1698763,4260,-7859,4248,-27,33,-14,7
1698768,4298,-7854,4157,-28,37,-13,7
1698773,4303,-7850,4075,-29,41,-13,7
1698778,4317,-7840,4004,-30,46,-12,7
1698783,4520,-7837,3908,-31,53,-10,7
1698788,4713,-7824,3775,-31,68,-7,7
1698793,4956,-7811,3676,-32,74,-6,7
1698798,5253,-7794,3597,-32,74,-5,7
1698803,5575,-7786,3462,-33,75,-5,7
1698808,5795,-7769,3252,-34,73,-4,7
1698813,5965,-7753,3133,-35,71,-3,7
1698818,6070,-7739,3059,-35,71,-2,7
1698823,6083,-7727,2933,-36,74,-2,7
1698828,6030,-7716,2830,-36,75,-1,7
1698833,5951,-7705,2710,-37,76,1,7
1698838,5850,-7692,2554,-37,78,2,7
1698843,5754,-7679,2384,-38,80,4,7
1698848,5671,-7667,2220,-38,84,5,7
1698853,5583,-7660,2053,-39,89,5,7
1698858,5524,-7648,1877,-39,94,6,7
1698863,5497,-7628,1696,-40,97,7,7
1698868,5454,-7615,1514,-40,100,7,7
1698873,5396,-7598,1332,-40,101,8,7
1698878,5354,-7582,1119,-40,102,8,7
1698883,5321,-7569,860,-40,105,9,7
1698888,5279,-7555,607,-39,107,10,7
1698893,5225,-7542,372,-38,107,11,7
1698898,5134,-7540,156,-38,106,11,7
1698903,5019,-7527,-97,-37,103,11,7
1698908,4876,-7522,-362,-36,98,11,7
1698913,4652,-7562,-513,-34,93,11,7
1698918,4350,-7555,-699,-35,84,10,7
1698923,4135,-7557,-1118,-35,73,10,7
1698928,3908,-7539,-1750,-35,62,11,7
1698933,3577,-7550,-2450,-32,49,11,7
1698938,3258,-7574,-2983,-30,37,11,7
1698943,2936,-7599,-3390,-30,30,11,7
1698948,2693,-7635,-3807,-30,33,11,7
1698953,2353,-7654,-4376,-30,37,11,7
1698958,1933,-7688,-4840,-27,29,10,7
1698963,1644,-7733,-5065,-25,16,8,7
1698968,1280,-7777,-5414,-24,11,8,7
1698973,965,-7818,-5583,-22,6,8,7
1698978,659,-7856,-5723,-20,2,8,7
1698983,413,-7890,-5887,-19,1,8,7
1698988,287,-7920,-5953,-16,0,8,7
1698993,181,-7950,-6065,-14,0,8,7
1698998,207,-7977,-6187,-12,-2,8,7
1699003,288,-8001,-6362,-10,-2,7,7
1699008,361,-8022,-6556,-8,-2,7,7
1699013,455,-8041,-6720,-6,-2,7,7
1699018,517,-8062,-6913,-5,0,6,7
1699023,555,-8083,-7044,-3,3,6,7
1699028,548,-8101,-7124,-2,5,5,7
1699033,513,-8114,-7145,0,8,5,7
1699038,471,-8125,-7104,2,9,5,7
1699043,428,-8129,-7048,4,10,5,7
1699048,428,-8133,-6962,6,9,6,7
1699053,461,-8132,-6869,8,7,6,7
1699058,541,-8130,-6799,10,5,6,7
1699063,683,-8127,-6743,11,4,6,7
1699068,856,-8125,-6680,13,3,6,7
1699073,1050,-8119,-6595,14,1,6,7
1699078,1249,-8111,-6486,16,1,7,7
1699083,1445,-8098,-6349,17,1,7,7
1699088,1640,-8086,-6181,18,2,7,7
1699093,1819,-8071,-5987,20,3,8,7
1699098,1998,-8052,-5769,21,3,9,7
1699103,2177,-8032,-5555,22,3,9,7
1699108,2346,-8011,-5339,23,1,10,7
1699113,2510,-7990,-5119,25,0,11,7
1699118,2660,-7970,-4914,26,-1,12,7
1699123,2789,-7948,-4722,27,0,13,7
1699128,2937,-7925,-4539,28,1,14,7
1699133,3087,-7900,-4356,28,4,14,7
1699138,3218,-7875,-4153,29,7,15,7
1699143,3297,-7852,-3940,30,9,15,7
1699148,3311,-7829,-3716,30,11,15,7
1699153,3254,-7804,-3456,30,11,16,7
1699158,3126,-7783,-3175,31,10,16,7
1699163,2945,-7768,-2892,31,8,16,7
1699168,2738,-7757,-2596,31,5,17,7
1699173,2527,-7747,-2292,31,4,18,7
1699178,2338,-7738,-1975,32,4,18,7
1699183,2164,-7731,-1662,32,3,19,7
1699188,2000,-7728,-1355,32,4,19,7
1699193,1847,-7746,-1046,32,5,19,7
1699198,1688,-7784,-722,31,8,19,7
1699203,1522,-7791,-352,31,11,19,7
1699208,1354,-7799,38,30,15,19,7
1699213,1204,-7800,352,29,22,19,7
1699218,1095,-7803,593,28,27,18,7
1699223,1018,-7804,829,27,29,18,7
1699228,939,-7813,1041,25,29,18,7
1699233,899,-7809,1153,23,28,17,7
1699238,902,-7796,1214,23,29,17,7
1699243,951,-7773,1176,25,29,19,7
1699248,771,-7845,1576,27,25,20,7
1699253,21,-7910,2761,21,15,16,7
1699258,-693,-7936,3395,16,16,12,7
1699263,-1011,-7907,3699,14,25,9,7
1699268,-1901,-7942,4753,17,26,13,7
1699273,-2799,-7989,5534,17,19,14,7
1699278,-3071,-8003,5856,16,15,13,7
1699283,-3056,-8041,6084,16,13,15,7
1699288,-2852,-8093,6031,14,5,15,7
1699293,-2309,-8127,5699,11,-3,13,7
1699298,-1670,-8152,5362,8,-3,12,7
1699303,-1280,-8174,5190,6,2,10,7
1699308,-1120,-8190,5177,3,3,7,7
1699313,-946,-8186,5175,1,7,5,7
1699318,-1085,-8186,5335,0,15,4,7
1699323,-1512,-8202,5664,0,12,5,7
1699328,-1845,-8205,5786,-1,10,4,7
1699333,-2156,-8214,5804,-1,13,5,7
1699338,-2314,-8230,5688,-1,14,7,7
1699343,-2143,-8235,5296,-2,17,7,7
1699348,-1801,-8243,4806,-3,23,7,7
1699353,-1360,-8248,4286,-5,27,6,7
1699358,-930,-8249,3768,-6,29,5,7
1699363,-608,-8253,3334,-7,30,3,7
1699368,-415,-8253,2964,-7,29,2,7
1699373,-367,-8250,2634,-8,27,1,7
1699378,-453,-8248,2412,-8,24,0,7
1699383,-577,-8245,2258,-8,22,0,7
1699388,-682,-8238,2102,-7,23,0,7
1699393,-828,-8240,1967,-6,22,0,7
1699398,-909,-8245,1794,-5,17,0,7
1699403,-881,-8254,1577,-5,15,1,7
1699408,-807,-8259,1265,-5,12,1,7
1699413,-703,-8259,945,-6,9,1,7
1699418,-630,-8260,619,-6,7,1,7
1699423,-540,-8262,317,-7,5,1,7
1699428,-440,-8264,63,-7,7,1,7
1699433,-381,-8270,-124,-6,11,0,7
1699438,-333,-8273,-242,-6,12,0,7
1699443,-294,-8273,-329,-6,12,0,7
1699448,-275,-8273,-388,-5,11,0,7
1699453,-292,-8274,-408,-5,8,0,7
1699458,-327,-8276,-416,-5,5,-1,7
1699463,-338,-8277,-423,-4,2,-1,7
1699468,-337,-8277,-446,-4,2,-1,7
1699473,-323,-8277,-451,-4,1,0,7
1699478,-262,-8279,-448,-3,1,0,7
1699483,-172,-8277,-464,-3,2,0,7
1699488,-71,-8276,-460,-3,1,0,7
1699493,34,-8276,-452,-3,0,0,7
1699498,122,-8275,-458,-3,-1,-1,7
1699503,187,-8276,-432,-2,-1,-1,7
1699508,225,-8278,-425,-2,-2,-1,7
1699513,228,-8277,-416,-2,-2,-1,7
1699518,210,-8277,-377,-2,-2,-1,7
1699523,187,-8276,-364,-2,-1,-1,7
1699528,165,-8278,-344,-1,0,-1,7
1699533,161,-8279,-314,-1,1,0,7
1699538,175,-8279,-301,-1,1,0,7
1699543,196,-8278,-263,-1,1,0,7
1699548,223,-8278,-231,-1,1,0,7
1699553,261,-8277,-212,-1,0,-1,7
1699558,275,-8280,-170,-1,-1,-1,7
1699563,277,-8280,-121,-1,-3,-1,7
1699568,269,-8282,-84,-1,-3,-1,7
1699573,230,-8285,-21,-1,-3,-1,7
1699578,195,-8283,39,-1,-4,-1,7
1699583,155,-8284,93,-1,-3,-1,7
1699588,116,-8284,164,-1,-3,-1,7
1699593,96,-8282,218,-1,-2,-1,7
1699598,76,-8280,266,-1,-1,-1,7
1699603,73,-8279,311,-1,-2,-1,7
1699608,87,-8277,336,-1,-2,-1,7
1699613,94,-8277,365,-1,-2,-1,7
1699618,113,-8277,391,-1,-3,-1,7
1699623,133,-8277,400,-1,-4,-1,7
1699628,146,-8277,421,-1,-4,-1,7
1699633,164,-8278,440,-1,-4,-1,7
1699638,183,-8277,449,-1,-3,-1,7
1699643,195,-8279,466,-1,-3,-1,7
1699648,211,-8279,472,-1,-2,-1,7
1699653,227,-8277,475,-1,-2,-1,7
1699658,238,-8276,479,-1,-3,-1,7
1699663,247,-8276,453,-1,-3,-1,7
1699668,259,-8279,429,-1,-3,-1,7
1699673,263,-8280,411,-1,-3,-1,7
1699678,270,-8282,377,-1,-3,-1,7
1699683,276,-8280,360,-1,-3,-1,7
1699688,274,-8278,347,-1,-2,-1,7
1699693,286,-8280,328,-1,-3,-1,7
1699698,293,-8282,320,-1,-3,-1,7
1699703,304,-8281,312,-1,-3,-1,7
1699708,328,-8282,301,-1,-4,-1,7
1699713,348,-8282,300,-1,-4,0,7
1699718,375,-8281,291,-1,-4,0,7
1699723,403,-8279,291,-1,-4,0,7
1699728,429,-8277,302,-1,-4,0,7
1699733,458,-8275,307,-1,-4,0,7
1699738,486,-8275,330,-1,-3,0,7
1699743,511,-8273,361,-1,-3,0,7
1699748,530,-8272,384,-1,-3,0,7
1699753,540,-8271,423,-1,-2,0,7
1699758,546,-8270,461,-1,-2,0,7
1699763,546,-8267,482,-1,-2,0,7
1699768,539,-8267,505,-1,-3,0,7
1699773,529,-8269,519,-2,-3,0,0
1699778,514,-8269,523,-2,-3,1,0
1699783,503,-8270,522,-2,-3,1,0
1699788,490,-8272,510,-2,-2,1,0
1699793,480,-8276,504,-2,-2,1,0
1699798,476,-8277,500,-2,-1,1,0
1699803,473,-8275,491,-2,-1,1,0
1699808,472,-8274,492,-2,-2,1,0
1699813,467,-8276,498,-2,-2,1,0
1699818,459,-8277,502,-2,-2,1,0
1699823,453,-8279,518,-2,-2,1,0
1699828,448,-8278,534,-2,-2,1,0
1699833,442,-8276,539,-2,-2,1,0
1699838,436,-8274,552,-2,-3,1,0
1699843,433,-8271,557,-3,-2,1,0
1699848,431,-8271,557,-3,-2,1,0
1699853,426,-8273,555,-3,-3,1,0
1699858,422,-8275,542,-3,-3,1,0
1699863,414,-8273,528,-3,-3,1,0
1699868,406,-8274,517,-3,-3,2,0
1699873,395,-8276,494,-3,-3,2,0
1699878,375,-8278,477,-3,-3,2,0
1699883,354,-8278,459,-3,-3,2,0
1699888,331,-8280,433,-3,-3,2,0
1699893,300,-8281,414,-3,-2,2,0
1699898,274,-8283,394,-3,-2,2,0
1699903,249,-8282,362,-3,-2,2,0
1699908,221,-8280,338,-3,-2,1,0
1699913,195,-8280,306,-3,-2,2,0
1699918,169,-8279,274,-3,-1,2,0
1699923,155,-8278,249,-3,-1,2,0
1699928,148,-8277,223,-3,-1,1,0
1699933,149,-8278,198,-3,-1,1,0
1699938,156,-8276,177,-3,-1,2,0
1699943,167,-8274,148,-3,-1,1,0
1699948,179,-8275,123,-3,-1,2,0
1699953,187,-8276,103,-3,-1,1,0
1699958,196,-8275,76,-2,-1,1,0
1699963,190,-8277,50,-2,-2,1,0
1699968,177,-8280,24,-2,-2,1,0
1699973,163,-8280,2,-2,-2,1,0
1699978,144,-8279,-14,-2,-2,1,0
1699983,128,-8276,-33,-2,-2,1,0
1699988,117,-8274,-49,-2,-1,1,0
1699993,106,-8273,-63,-2,-1,1,0
1699998,106,-8275,-81,-2,-1,1,0
1700003,107,-8279,-99,-2,-1,1,0
1700008,105,-8277,-117,-1,-2,1,0
1700013,100,-8276,-141,-1,-2,1,0
1700018,90,-8276,-158,-1,-1,1,0
1700023,82,-8275,-172,-1,-1,1,0
1700028,75,-8272,-185,-1,-1,1,0
1700033,67,-8274,-183,-1,-1,1,0
1700038,57,-8274,-184,-1,-1,1,0
1700043,45,-8276,-188,-1,-1,1,0
1700048,35,-8278,-192,0,-1,1,0
1700053,25,-8278,-199,0,-1,1,0
1700058,14,-8276,-212,0,-1,1,0
1700063,3,-8275,-217,0,-2,1,0
1700068,-9,-8277,-219,0,-2,1,0
1700073,-19,-8278,-211,0,-3,1,0
1700078,-26,-8279,-197,0,-4,1,0
1700083,-35,-8279,-184,0,-4,1,0
1700088,-40,-8281,-158,0,-5,0,0
1700093,-46,-8283,-134,0,-5,0,0
1700098,-50,-8281,-106,1,-6,0,0
1700103,-51,-8283,-68,1,-7,0,0
1700108,-52,-8283,-38,1,-8,0,0
1700113,-49,-8280,-4,1,-9,0,0
1700118,-47,-8278,35,1,-10,0,0
1700123,-45,-8279,64,1,-10,0,0
1700128,-40,-8280,91,1,-11,0,0
1700133,-30,-8281,120,1,-11,0,0
1700138,-20,-8281,143,1,-11,0,0
1700143,-9,-8282,168,1,-11,0,0
1700148,8,-8281,192,1,-11,0,0
1700153,24,-8279,209,1,-10,0,0
1700158,39,-8280,226,1,-10,0,0
1700163,56,-8280,242,1,-9,0,0
1700168,64,-8280,247,1,-8,0,0
1700173,67,-8276,263,1,-8,0,0
1700178,60,-8275,267,1,-8,0,0
1700183,45,-8277,256,1,-7,0,0
1700188,24,-8280,257,0,-7,0,0
1700193,0,-8280,254,0,-7,-1,0
1700198,-26,-8279,249,0,-7,-1,0
1700203,-53,-8279,254,0,-7,-1,0
1700208,-83,-8279,249,0,-7,-1,0
1700213,-113,-8279,252,0,-7,-1,0
1700218,-133,-8279,259,0,-7,-1,0
1700223,-153,-8278,268,0,-6,-1,0
1700228,-169,-8279,289,0,-6,-1,0
1700233,-174,-8282,309,0,-6,-1,0
1700238,-176,-8282,324,0,-6,-1,0
1700243,-173,-8283,342,0,-6,-1,0
1700248,-161,-8283,354,0,-6,-1,0
1700253,-148,-8283,362,0,-6,-1,0
1700258,-134,-8281,364,0,-7,-2,0
1700263,-116,-8279,356,0,-7,-2,0
1700268,-99,-8280,342,0,-7,-2,0
1700273,-81,-8281,330,0,-7,-2,0
1700278,-58,-8281,315,0,-7,-2,0
1700283,-35,-8280,295,0,-6,-2,0
1700288,-17,-8279,280,0,-6,-2,0
1700293,2,-8281,265,0,-6,-2,0
1700298,19,-8280,255,0,-5,-2,0
1700303,33,-8279,256,0,-5,-2,0
1700308,46,-8279,259,0,-5,-2,0
1700313,57,-8278,272,0,-6,-2,0
1700318,71,-8279,284,0,-6,-2,0
1700323,84,-8281,296,0,-6,-2,0
1700328,95,-8282,307,0,-6,-2,0
1700333,111,-8285,313,0,-6,-2,0
1700338,128,-8285,322,0,-6,-2,0
1700343,142,-8284,326,0,-5,-2,0
1700348,155,-8282,322,0,-5,-2,0
1700353,164,-8282,324,0,-5,-2,0
1700358,169,-8279,318,0,-4,-2,0
1700363,172,-8278,308,0,-4,-2,0
1700368,171,-8280,302,0,-3,-2,0
1700373,165,-8280,305,0,-3,-2,0
1700378,157,-8278,310,0,-3,-2,0
1700383,143,-8278,322,0,-3,-2,0
1700388,129,-8280,338,0,-4,-2,0
1700393,121,-8282,354,0,-4,-2,0
1700398,113,-8280,368,0,-4,-2,0
1700403,115,-8278,376,0,-5,-2,0
1700408,121,-8276,384,0,-5,-2,0
1700413,133,-8277,392,0,-6,-2,0
1700418,146,-8276,395,0,-7,-2,0
1700423,160,-8281,404,0,-7,-2,0
1700428,178,-8279,416,0,-7,-2,0
1700433,194,-8277,425,0,-7,-2,0
1700438,204,-8275,434,-1,-7,-2,0
1700443,210,-8273,440,-1,-7,-2,0
1700448,209,-8272,446,-1,-7,-2,0
1700453,205,-8273,457,-1,-6,-2,0
1700458,198,-8273,466,-1,-6,-2,0
1700463,195,-8273,467,-1,-6,-2,0
1700468,192,-8272,468,-1,-5,-2,0
1700473,195,-8270,462,-1,-5,-2,0
1700478,203,-8271,465,-1,-4,-2,0
1700483,217,-8270,469,-1,-4,-2,0
1700488,230,-8270,470,-1,-4,-2,0
1700493,251,-8272,476,-1,-4,-2,0
1700498,270,-8273,488,-1,-4,-2,0
1700503,290,-8276,502,-1,-4,-2,0
1700508,311,-8274,522,-1,-4,-2,0
1700513,331,-8273,544,-2,-4,-1,0
1700518,348,-8272,558,-2,-3,-1,0
1700523,361,-8272,570,-2,-3,-1,0
1700528,371,-8269,580,-2,-2,-1,0
1700533,381,-8270,583,-2,-1,-1,0
1700538,388,-8270,576,-2,0,-1,0
1700543,394,-8273,559,-2,1,-1,0
1700548,399,-8278,533,-2,2,-1,0
1700553,403,-8279,510,-2,3,-1,0
1700558,398,-8283,489,-2,3,-1,0
1700563,388,-8287,477,-2,4,-1,0
1700568,378,-8283,466,-2,5,-1,0
1700573,363,-8280,459,-2,5,-1,0
1700578,351,-8280,458,-2,5,-1,0
1700583,337,-8280,449,-2,5,-1,0
1700588,324,-8280,430,-2,4,-1,0
1700593,315,-8279,408,-2,3,-1,0
1700598,306,-8276,382,-2,2,-1,0
1700603,301,-8279,345,-2,2,-1,0
1700608,301,-8280,309,-2,3,-1,0
1700613,297,-8281,270,-2,4,-1,0
1700618,291,-8277,234,-2,5,-1,0
1700623,284,-8276,202,-2,6,-1,0
1700628,270,-8280,175,-2,7,-1,0
1700633,253,-8284,157,-2,8,-1,0
1700638,234,-8286,138,-2,9,-1,0
1700643,213,-8282,124,-2,10,-1,0
1700648,197,-8279,114,-2,10,-1,0
1700653,188,-8279,107,-2,11,-1,0
1700658,182,-8279,100,-2,11,-1,0
1700663,178,-8278,92,-2,10,-1,0
1700668,176,-8278,78,-2,10,-1,0
1700673,170,-8280,69,-2,10,-1,0
1700678,164,-8282,55,-2,11,-1,0
1700683,154,-8286,39,-2,11,-1,0
1700688,138,-8286,28,-2,11,-1,0
1700693,123,-8284,18,-2,11,-1,0
1700698,107,-8281,11,-2,11,-1,0
1700703,90,-8281,6,-1,11,-1,0
1700708,80,-8281,4,-1,11,-1,0
1700713,80,-8279,10,-1,11,-1,0
1700718,87,-8278,16,-1,10,-1,0
1700723,105,-8278,23,-1,9,-1,0
1700728,121,-8278,27,-1,7,-1,0
1700733,146,-8279,29,-1,6,-1,0
1700738,170,-8280,33,-1,5,-1,0
1700743,192,-8281,37,-1,4,-1,0
1700748,214,-8282,45,-1,4,-1,0
1700753,237,-8283,54,-1,4,-1,0
1700758,256,-8284,68,-1,4,-1,0
1700763,272,-8284,78,-1,4,-1,0
1700768,288,-8284,86,-1,4,-1,0
1700773,301,-8282,99,-1,5,-1,0
1700778,312,-8281,109,-1,5,-1,0
1700783,320,-8281,117,-1,5,-1,0
1700788,319,-8282,122,-1,5,-1,0
1700793,315,-8283,118,-1,6,-1,0
1700798,310,-8283,116,-1,6,-1,0
1700803,302,-8284,115,-1,7,-1,0
1700808,294,-8283,115,-1,7,-1,0
1700813,288,-8282,119,-1,8,-1,0
1700818,286,-8282,124,-1,8,-1,0
1700823,288,-8284,126,-1,8,-1,0
1700828,290,-8283,126,-1,8,-1,0
1700833,296,-8283,127,0,8,-1,0
1700838,295,-8285,123,0,7,-1,0
1700843,292,-8284,122,0,6,-1,0
1700848,285,-8283,117,0,6,-1,0
1700853,274,-8283,114,0,5,-1,0
1700858,261,-8284,113,0,5,-1,0
1700863,248,-8282,115,0,4,-1,0
1700868,235,-8280,114,0,4,-1,0
1700873,218,-8281,120,0,3,-1,0
1700878,198,-8283,122,0,3,-1,0
1700883,177,-8283,125,0,2,-1,0
1700888,159,-8282,124,0,2,-1,0
1700893,142,-8283,124,0,2,-1,0
1700898,124,-8284,122,0,1,-1,0
1700903,108,-8283,118,0,1,-1,0
1700908,96,-8282,117,0,1,-1,0
1700913,89,-8280,121,0,1,-1,0
1700918,83,-8279,122,0,1,-1,0
1700923,84,-8279,125,0,0,-1,0
1700928,84,-8281,129,0,0,-1,0
1700933,81,-8279,126,0,0,-2,0
1700938,76,-8280,121,0,-1,-2,0
1700943,71,-8280,111,0,-1,-2,0
1700948,65,-8283,97,0,-1,-2,0
1700953,59,-8283,89,0,-1,-2,0
1700958,54,-8284,82,0,-1,-2,0
1700963,55,-8284,75,0,-2,-2,0
1700968,58,-8285,66,0,-2,-2,0
1700973,67,-8286,58,0,-2,-2,0
1700978,80,-8286,60,0,-3,-2,0
1700983,99,-8286,67,0,-3,-2,0
1700988,119,-8282,68,1,-4,-2,0
1700993,141,-8281,76,1,-4,-2,0
1700998,171,-8282,87,1,-5,-2,0
1701003,206,-8282,97,1,-5,-2,0
1701008,241,-8282,116,1,-5,-2,0
1701013,274,-8283,139,1,-5,-2,0
1701018,306,-8281,159,1,-5,-2,0
1701023,338,-8281,174,1,-5,-2,0
1701028,366,-8284,196,1,-5,-2,0
1701033,391,-8284,213,1,-4,-2,0
1701038,410,-8286,224,1,-4,-2,0
1701043,422,-8287,228,1,-4,-2,0
1701048,431,-8286,228,1,-4,-1,0
1701053,434,-8284,239,1,-3,-1,0
1701058,438,-8283,247,0,-3,-1,0
1701063,446,-8280,258,0,-2,-1,0
1701068,452,-8279,273,0,-2,-1,0
1701073,456,-8279,288,0,-3,-1,0
1701078,459,-8277,301,0,-3,-1,0
1701083,458,-8278,318,0,-4,-1,0
1701088,454,-8280,335,0,-4,-1,0
1701093,445,-8281,351,0,-4,-1,0
1701098,435,-8282,362,0,-4,-1,0
1701103,425,-8283,372,0,-4,-1,0
1701108,420,-8284,382,0,-4,-1,0
1701113,421,-8285,394,0,-3,-1,0
1701118,422,-8284,413,0,-2,-1,0
1701123,426,-8285,443,0,-2,-1,0
1701128,431,-8284,471,0,-2,-1,0
1701133,439,-8282,492,0,-2,-1,0
1701138,449,-8282,517,-1,-2,-1,0
1701143,453,-8284,536,-1,-1,-1,0
1701148,455,-8286,554,-1,-1,-1,0
1701153,457,-8286,565,-1,-1,0,0
1701158,457,-8287,573,-1,0,0,0
1701163,455,-8287,571,-1,0,0,0
1701168,458,-8287,575,-1,1,0,0
1701173,463,-8287,575,-1,2,0,0
1701178,467,-8289,580,-1,2,0,0
1701183,474,-8291,584,-2,2,0,0
1701188,485,-8291,588,-2,2,0,0
1701193,488,-8290,597,-2,1,0,0
1701198,491,-8289,596,-2,1,0,0
1701203,486,-8289,591,-2,1,0,0
1701208,477,-8289,589,-2,1,0,0
1701213,466,-8288,584,-2,1,0,0
1701218,452,-8291,577,-2,1,0,0
1701223,442,-8291,563,-2,1,0,0
1701228,432,-8289,544,-2,2,0,0
1701233,419,-8288,535,-2,2,0,0
1701238,410,-8286,518,-2,2,0,0
1701243,400,-8285,491,-2,3,0,0
1701248,389,-8287,465,-3,3,0,0
1701253,379,-8285,436,-3,4,0,0
1701258,368,-8284,409,-3,4,0,0
1701263,351,-8283,380,-3,4,0,0
1701268,332,-8285,349,-3,5,0,0
1701273,313,-8283,318,-3,5,0,0
1701278,292,-8283,295,-3,6,0,0
1701283,272,-8281,266,-3,6,0,0
1701288,252,-8279,237,-3,7,0,0
1701293,237,-8282,205,-2,7,0,0
1701298,223,-8284,171,-2,7,0,0
1701303,208,-8283,136,-2,7,0,0
1701308,192,-8281,100,-2,7,0,0
1701313,173,-8279,64,-2,7,0,0
1701318,150,-8280,31,-2,6,0,0
1701323,124,-8280,1,-2,6,0,0
1701328,93,-8281,-30,-2,5,0,0
1701333,64,-8279,-70,-2,4,0,0
1701338,36,-8281,-111,-2,3,0,0
1701343,7,-8281,-148,-1,2,-1,0
1701348,-20,-8280,-185,-1,0,-1,0
1701353,-45,-8281,-224,-1,-1,-1,0
1701358,-66,-8279,-259,-1,-1,-1,0
1701363,-85,-8279,-287,-1,-2,-1,0
1701368,-96,-8280,-310,-1,-3,-1,0
1701373,-103,-8285,-336,0,-3,-1,0
1701378,-106,-8288,-353,0,-4,-1,0
1701383,-106,-8288,-367,0,-5,-2,0
1701388,-97,-8287,-373,0,-6,-2,0
1701393,-83,-8282,-372,0,-7,-2,0
1701398,-69,-8281,-364,0,-8,-2,0
1701403,-54,-8277,-350,1,-9,-2,0
1701408,-35,-8277,-330,1,-9,-2,0
1701413,-15,-8277,-316,1,-10,-2,0
1701418,2,-8279,-303,1,-11,-2,0
1701423,15,-8281,-287,1,-12,-2,0
1701428,32,-8280,-262,1,-12,-2,0
1701433,43,-8281,-229,1,-13,-2,0
1701438,56,-8281,-194,1,-13,-2,0
1701443,73,-8283,-157,1,-12,-2,0
1701448,90,-8282,-120,1,-12,-2,0
1701453,109,-8282,-78,1,-12,-2,0
1701458,132,-8280,-41,1,-11,-2,0
1701463,156,-8279,-10,1,-11,-2,0
1701468,180,-8276,26,1,-11,-2,0
1701473,208,-8280,50,1,-10,-2,0
1701478,239,-8283,81,1,-9,-2,0
1701483,272,-8283,114,1,-8,-2,0
1701488,303,-8280,143,1,-8,-2,0
1701493,335,-8281,170,1,-7,-2,0
1701498,370,-8278,194,1,-6,-2,0
1701503,402,-8282,221,1,-7,-2,0
1701508,425,-8284,236,1,-7,-2,0
1701513,442,-8285,247,1,-8,-2,0
1701518,450,-8287,245,1,-9,-2,0
1701523,453,-8290,245,1,-10,-2,0
1701528,453,-8289,246,1,-10,-2,0
1701533,455,-8286,250,1,-11,-2,0
1701538,460,-8286,264,1,-11,-2,0
1701543,472,-8286,282,1,-11,-2,0
1701548,484,-8288,312,1,-11,-2,0
1701553,500,-8284,340,1,-11,-2,0
1701558,517,-8284,361,1,-11,-1,0
1701563,532,-8284,387,1,-11,-1,0
1701568,545,-8285,418,1,-11,-1,0
1701573,553,-8285,448,1,-10,-1,0
1701578,559,-8281,479,0,-9,-1,0
1701583,566,-8280,508,0,-7,-1,0
1701588,576,-8280,541,0,-5,-1,0
1701593,583,-8281,561,0,-4,-1,0
1701598,586,-8281,573,0,-4,-1,0
1701603,583,-8282,575,0,-3,-1,0
1701608,574,-8283,569,0,-4,-1,0
1701613,559,-8282,556,0,-3,-1,0
1701618,541,-8281,543,0,-3,-1,0
1701623,524,-8280,522,0,-2,-1,0
1701628,507,-8279,514,0,-1,-1,0
1701633,492,-8278,508,-1,-1,-1,0
1701638,478,-8279,501,-1,-1,-1,0
1701643,463,-8281,492,-1,-1,-1,0
1701648,446,-8283,478,-1,-1,-1,0
1701653,427,-8280,454,-1,-1,-1,0
1701658,412,-8279,423,-1,-2,-1,0
1701663,394,-8281,396,-1,-2,-1,0
1701668,380,-8283,370,-1,-2,0,0
1701673,378,-8282,354,-1,-3,-1,0
1701678,376,-8279,343,-1,-3,-1,0
1701683,375,-8277,334,-1,-3,0,0
1701688,374,-8276,335,-1,-3,-1,0
1701693,374,-8277,330,-1,-3,0,0
1701698,373,-8278,323,-1,-3,0,0
1701703,372,-8279,319,-1,-3,0,0
1701708,368,-8280,314,-1,-2,-1,0
1701713,363,-8279,310,-1,-1,0,0
1701718,356,-8281,298,-1,-1,-1,0
1701723,350,-8283,288,-1,0,-1,0
1701728,345,-8283,277,-1,0,-1,0
1701733,337,-8287,262,-1,0,-1,0
1701738,326,-8289,247,-1,0,-1,0
1701743,314,-8292,226,-1,0,-1,0
1701748,299,-8292,200,-1,-1,-1,0
1701753,281,-8292,179,-1,-1,-1,0
1701758,267,-8290,162,-1,-1,-1,0
1701763,255,-8286,147,-1,-1,-1,0
1701768,250,-8289,143,-1,-1,-1,0
1701773,250,-8290,139,-1,-1,-1,0
1701778,258,-8289,132,-1,-1,-1,0
1701783,270,-8290,128,0,-1,-1,0
1701788,284,-8291,128,0,-1,-1,0
1701793,298,-8289,131,0,-1,-1,0
1701798,311,-8287,139,0,-2,-1,0
1701803,322,-8284,152,0,-1,-1,0
1701808,330,-8283,162,0,-1,-1,0
1701813,338,-8281,173,0,-1,-1,0
1701818,345,-8279,180,0,0,-1,0
1701823,352,-8279,185,0,0,-1,0
1701828,357,-8280,189,0,0,-1,0
1701833,359,-8281,192,0,0,-1,0
1701838,359,-8283,192,0,0,-1,0
1701843,362,-8283,190,0,0,-1,0
1701848,362,-8283,192,0,0,-1,0
1701853,362,-8281,196,0,0,-1,0
1701858,364,-8281,202,0,0,-1,0
1701863,366,-8284,204,0,-1,-1,0
1701868,369,-8283,208,0,-1,-1,0
1701873,371,-8280,218,0,-1,-1,0
1701878,376,-8277,231,0,-1,-1,0
1701883,387,-8277,240,0,-1,-1,0
1701888,398,-8278,244,0,-1,-1,0
1701893,408,-8277,251,0,-1,-1,0
1701898,414,-8277,257,0,-1,-1,0
1701903,421,-8281,258,0,-1,0,0
1701908,427,-8282,261,0,-1,0,0
1701913,433,-8281,264,0,-1,0,0
1701918,438,-8279,269,0,-1,-1,0
1701923,441,-8279,275,0,-1,0,0
1701928,438,-8278,272,0,-1,0,0
1701933,433,-8276,271,0,-1,0,0
1701938,428,-8276,271,0,-1,0,0
1701943,424,-8274,263,0,-1,0,0
1701948,419,-8273,254,0,-1,0,0
1701953,412,-8273,248,0,-1,0,0
1701958,410,-8275,244,0,0,0,0
1701963,408,-8274,242,0,0,0,0
1701968,408,-8275,241,0,0,0,0
1701973,410,-8276,246,0,0,0,0
1701978,410,-8277,252,0,0,0,0
1701983,408,-8276,258,0,0,0,0
1701988,403,-8275,257,0,0,0,0
1701993,393,-8275,248,0,0,0,0
1701998,379,-8274,246,0,-1,0,0
1702003,364,-8273,236,0,-1,0,0
1702008,350,-8273,225,0,-1,0,0
1702013,339,-8276,221,0,0,0,0
1702018,327,-8279,219,0,0,0,0
1702023,320,-8281,216,0,0,0,0
1702028,316,-8283,219,0,-1,0,0
1702033,312,-8283,222,0,-1,0,0
1702038,306,-8282,225,0,-1,0,0
1702043,297,-8279,222,0,-2,0,0
1702048,289,-8281,225,0,-2,0,0
1702053,282,-8283,227,0,-1,0,0
1702058,277,-8283,227,0,-1,0,0
1702063,275,-8285,225,0,-1,0,0
1702068,277,-8289,231,0,-1,0,0
1702073,284,-8290,243,0,-1,0,0
1702078,288,-8288,247,0,-1,0,0
1702083,288,-8287,250,0,-1,0,0
1702088,282,-8290,249,0,-2,0,0
1702093,275,-8287,246,0,-2,-1,0
1702098,267,-8289,244,0,-2,-1,0
1702103,264,-8288,239,0,-2,-1,0
1702108,263,-8289,241,0,-1,0,0
1702113,270,-8285,246,0,-1,0,0
1702118,278,-8286,254,0,0,-1,0
1702123,291,-8283,265,0,0,-1,0
1702128,303,-8285,271,0,0,-1,0
1702133,313,-8284,270,0,0,-1,0
1702138,321,-8282,273,0,0,-1,0
1702143,326,-8282,274,0,0,-1,0
1702148,327,-8282,271,0,0,-1,0
1702153,325,-8283,273,0,1,-1,0
1702158,323,-8282,273,0,1,-1,0
1702163,322,-8283,274,0,1,-1,0
1702168,322,-8284,274,0,1,-1,0
1702173,324,-8282,277,0,0,-1,0
1702178,326,-8282,276,0,0,-1,0
1702183,327,-8281,276,0,0,-1,0
1702188,332,-8279,280,0,0,-1,0
1702193,337,-8280,285,0,0,-1,0
1702198,344,-8284,294,0,0,-1,0
1702203,351,-8281,303,0,-1,-1,0
1702208,356,-8280,309,0,-1,0,0
1702213,364,-8279,319,0,-1,-1,0
1702218,371,-8281,321,0,-1,-1,0
1702223,375,-8281,323,0,-1,-1,0
1702228,383,-8281,333,0,-1,0,0
1702233,392,-8279,339,0,-1,0,0
1702238,403,-8278,342,0,-1,0,0
1702243,411,-8275,343,0,-1,0,0
1702248,422,-8273,343,0,-1,0,0
1702253,431,-8275,349,0,-1,0,0
1702258,437,-8277,356,0,-1,0,0
1702263,439,-8278,366,0,-1,0,0
1702268,439,-8281,366,0,0,0,0
1702273,438,-8282,362,0,0,0,0
1702278,434,-8284,363,0,0,0,0
1702283,429,-8283,368,0,0,0,0
1702288,423,-8284,363,0,0,0,0
1702293,416,-8285,359,0,0,0,0
1702298,411,-8284,350,-1,0,0,0
1702303,409,-8283,348,0,0,0,0
1702308,406,-8282,347,0,0,0,0
1702313,404,-8279,340,-1,0,0,0
1702318,397,-8278,339,-1,0,0,0
1702323,385,-8276,330,-1,0,0,0
1702328,372,-8275,319,-1,-1,0,0
1702333,358,-8275,306,-1,-1,0,0
1702338,348,-8276,295,-1,-1,0,0
1702343,337,-8277,294,-1,-1,0,0
1702348,336,-8279,294,-1,-1,0,0
1702353,336,-8281,290,-1,0,0,0
1702358,337,-8281,285,-1,0,0,0
1702363,336,-8281,281,-1,0,0,0
1702368,333,-8279,273,-1,0,0,0
1702373,328,-8280,270,-1,-1,0,0
1702378,319,-8281,267,0,-1,0,0
1702383,309,-8282,264,0,-1,0,0
1702388,298,-8284,259,0,-1,0,0
1702393,287,-8287,251,0,-1,0,0
1702398,279,-8287,240,0,-1,0,0
1702403,273,-8284,228,0,-1,0,0
1702408,265,-8284,216,0,-1,0,0
1702413,258,-8284,210,0,-2,0,0
1702418,254,-8284,205,0,-2,0,0
1702423,252,-8284,207,0,-2,0,0
1702428,249,-8282,207,0,-2,0,0
1702433,251,-8282,213,0,-2,0,0
1702438,254,-8281,229,0,-2,0,0
1702443,262,-8281,250,0,-1,0,0
1702448,271,-8282,259,0,-1,-1,0
1702453,276,-8281,267,0,-2,-1,0
1702458,277,-8279,274,0,-2,-1,0
1702463,272,-8278,279,0,-3,-1,0
1702468,264,-8281,275,0,-3,-1,0
1702473,251,-8283,262,0,-3,-1,0
1702478,241,-8281,244,0,-4,-1,0
1702483,232,-8283,229,0,-4,-1,0
1702488,227,-8284,220,0,-4,-1,0
1702493,224,-8282,214,0,-5,-1,0
1702498,225,-8283,213,0,-5,-1,0
1702503,229,-8283,220,0,-6,-1,0
1702508,239,-8283,235,0,-6,-1,0
1702513,247,-8282,246,0,-6,-1,0
1702518,256,-8282,258,0,-6,-1,0
1702523,262,-8283,263,0,-6,-1,0
1702528,264,-8284,264,0,-6,-1,0
1702533,259,-8285,269,0,-6,-1,0
1702538,256,-8286,271,0,-6,-1,0
1702543,252,-8287,266,0,-6,-1,0
1702548,250,-8286,257,0,-6,-1,0
1702553,251,-8285,255,0,-5,-1,0
1702558,251,-8284,257,0,-5,-1,0
1702563,255,-8283,257,0,-5,-1,0
1702568,262,-8282,263,0,-5,-1,0
1702573,271,-8282,270,0,-6,-1,0
1702578,276,-8282,281,0,-6,-1,0
1702583,282,-8283,289,0,-5,-1,0
1702588,291,-8286,298,0,-5,-1,0
1702593,302,-8286,303,0,-4,-1,0
1702598,312,-8283,311,0,-4,-1,0
1702603,322,-8282,315,0,-4,-1,0
1702608,332,-8281,316,0,-4,-1,0
1702613,341,-8284,323,0,-4,-1,0
1702618,345,-8284,323,0,-4,-1,0
1702623,352,-8286,321,0,-5,-1,0
1702628,352,-8285,323,0,-5,-1,0
1702633,351,-8285,322,0,-5,-1,0
1702638,354,-8286,325,0,-4,-1,0
1702643,360,-8284,325,0,-4,-1,0
1702648,367,-8280,325,0,-4,-1,0
1702653,375,-8283,326,0,-4,-1,0
1702658,379,-8281,330,0,-4,-1,0
1702663,388,-8281,336,0,-4,-1,0
1702668,399,-8282,345,0,-4,-1,0
1702673,412,-8284,362,0,-4,-1,0
1702678,423,-8283,376,0,-3,-1,0
1702683,433,-8286,385,0,-3,-1,0
1702688,439,-8283,397,0,-3,-1,0
1702693,442,-8283,403,0,-3,-1,0
1702698,443,-8284,401,0,-3,-1,0
1702703,440,-8285,402,0,-2,-1,0
1702708,435,-8286,397,0,-2,-1,0
1702713,430,-8285,391,0,-2,-1,0
1702718,426,-8282,388,-1,-2,-1,0
1702723,428,-8279,377,-1,-3,-1,0
1702728,425,-8277,377,-1,-3,-1,0
1702733,431,-8277,372,-1,-4,-1,0
1702738,435,-8276,360,-1,-4,-1,0
1702743,438,-8279,360,-1,-4,-1,0
1702748,436,-8280,368,-1,-4,-1,0
1702753,435,-8280,371,-1,-4,-1,0
1702758,430,-8279,374,-1,-5,-1,0
1702763,422,-8279,369,-1,-5,-1,0
1702768,417,-8276,361,-1,-5,-1,0
1702773,410,-8275,354,-1,-4,-1,0
1702778,403,-8275,343,-1,-4,-1,0
1702783,399,-8274,339,-1,-3,-1,0
1702788,395,-8274,336,-1,-3,-1,0
1702793,392,-8275,332,-1,-2,-1,0
1702798,391,-8276,333,-1,-2,-1,0
1702803,390,-8276,332,-1,-2,-1,0
1702808,384,-8277,332,-1,-2,-1,0
1702813,379,-8278,330,-1,-2,0,0
1702818,371,-8278,325,-1,-2,-1,0
1702823,362,-8278,322,-1,-2,0,0
1702828,354,-8278,317,-1,-1,0,0
1702833,348,-8280,311,-1,-1,0,0
1702838,342,-8278,304,-1,-1,0,0
1702843,338,-8280,294,-1,-1,-1,0
1702848,336,-8281,289,-1,-1,-1,0
1702853,335,-8282,282,-1,-1,-1,0
1702858,334,-8281,271,-1,-1,-1,0
1702863,333,-8282,263,-1,-1,-1,0
1702868,334,-8283,262,-1,-1,-1,0
1702873,334,-8283,262,-1,-1,-1,0
1702878,336,-8284,263,-1,-1,-1,0
1702883,342,-8284,270,-1,-1,-1,0
1702888,346,-8286,279,-1,-1,-1,0
1702893,353,-8284,287,-1,-1,-1,0
1702898,362,-8284,296,-1,0,-1,0
1702903,373,-8282,306,-1,0,-1,0
1702908,384,-8283,311,-1,0,-1,0
1702913,389,-8283,312,-1,0,-1,0
1702918,392,-8282,312,-1,0,0,0
1702923,393,-8280,315,-1,0,-1,0
1702928,397,-8280,313,-1,0,-1,0
1702933,402,-8282,309,-1,0,0,0
1702938,405,-8279,305,-1,0,0,0
1702943,408,-8277,300,-1,0,0,0
1702948,409,-8277,291,-1,0,0,0
1702953,413,-8282,282,-1,0,0,0
1702958,411,-8282,280,-1,0,0,0
1702963,410,-8280,281,-1,0,0,0
1702968,414,-8281,279,-1,0,0,0
1702973,421,-8284,283,-1,0,0,0
1702978,429,-8284,289,-1,0,0,0
1702983,436,-8285,293,-1,0,0,0
1702988,440,-8286,296,-1,0,0,0
1702993,444,-8287,295,-1,0,0,0
1702998,446,-8284,300,-1,0,0,0
1703003,450,-8280,296,-1,1,0,0
1703008,452,-8277,292,-1,0,0,0
1703013,455,-8277,287,-1,0,0,0
1703018,451,-8279,282,-1,0,0,0
1703023,443,-8278,269,-1,0,0,0
1703028,433,-8273,261,0,0,0,0
1703033,424,-8272,252,0,0,0,0
1703038,415,-8272,242,0,-1,0,0
1703043,403,-8274,230,0,-1,0,0
1703048,393,-8274,222,0,-1,0,0
1703053,383,-8275,211,0,-1,0,0
1703058,372,-8275,201,0,-1,0,0
1703063,365,-8279,194,0,-1,0,0
1703068,359,-8283,190,0,-1,0,0
1703073,358,-8281,193,0,-1,0,0
1703078,360,-8282,200,0,-1,0,0
1703083,365,-8282,212,0,-1,0,0
1703088,364,-8282,228,0,-1,0,0
1703093,364,-8283,243,0,-1,0,0
1703098,368,-8281,256,0,-1,0,0
1703103,368,-8281,271,0,-2,0,0
1703108,360,-8282,285,0,-2,0,0
1703113,358,-8281,288,0,-1,0,0
1703118,353,-8282,290,0,-1,0,0
1703123,344,-8282,294,0,-1,0,0
1703128,332,-8281,290,0,-2,0,0
1703133,325,-8280,289,0,-2,0,0
1703138,315,-8281,291,0,-2,0,0
1703143,304,-8278,296,0,-2,0,0
1703148,296,-8279,307,0,-2,0,0
1703153,288,-8277,314,0,-2,0,0
1703158,278,-8279,320,0,-1,0,0
1703163,269,-8279,319,0,-2,0,0
1703168,261,-8281,315,0,-2,-1,0
1703173,252,-8280,314,0,-2,-1,0
1703178,242,-8278,313,0,-3,-1,0
1703183,234,-8278,321,0,-3,-1,0
1703188,226,-8280,326,0,-4,-1,0
1703193,222,-8282,332,0,-4,-1,0
1703198,220,-8283,337,0,-4,-1,0
1703203,218,-8285,340,0,-4,-1,0
1703208,222,-8286,343,0,-3,-1,0
1703213,226,-8288,352,0,-3,-1,0
1703218,230,-8288,361,0,-3,-1,0
1703223,237,-8287,365,0,-2,-1,0
1703228,243,-8289,375,0,-2,-1,0
1703233,244,-8289,383,-1,-2,-1,0
1703238,242,-8291,394,-1,-1,-1,0
1703243,242,-8292,404,-1,-1,-1,0
1703248,243,-8292,419,-1,-1,-1,0
1703253,246,-8294,432,-1,-1,-1,0
1703258,255,-8289,442,-1,-1,-1,0
1703263,263,-8285,449,-1,-1,-1,0
1703268,272,-8283,452,-1,0,-1,0
1703273,283,-8282,449,-1,0,-1,0
1703278,293,-8282,446,-1,0,-1,0
1703283,300,-8284,440,-1,0,-1,0
1703288,304,-8286,434,-1,0,-1,0
1703293,309,-8283,423,-1,1,-1,0
1703298,311,-8280,416,-1,1,-1,0
1703303,309,-8279,412,-1,1,-1,0
1703308,306,-8280,408,-1,1,-1,0
1703313,301,-8281,397,-1,1,-1,0
1703318,297,-8281,386,-1,1,-1,0
1703323,296,-8282,371,-1,1,-1,0
1703328,297,-8282,355,-1,1,-1,0
1703333,301,-8284,346,-1,1,-1,0
1703338,301,-8284,343,-1,1,-1,0
1703343,305,-8284,343,-1,1,-1,0
1703348,311,-8284,344,-1,1,-1,0
1703353,321,-8282,343,-1,0,-1,0
1703358,336,-8281,338,-1,-1,-1,0
1703363,345,-8282,327,-1,-1,-1,0
1703368,354,-8282,309,-1,-2,-1,0
1703373,357,-8281,286,-1,-2,-1,0
1703378,358,-8280,266,-1,-3,-1,0
1703383,356,-8280,242,-1,-2,-1,0
1703388,354,-8281,222,-1,-2,-1,0
1703393,353,-8280,204,-1,-2,-1,0
1703398,354,-8283,192,-1,-1,-1,0
1703403,357,-8284,181,-1,-1,-1,0
1703408,364,-8284,177,-1,-2,-1,0
1703413,374,-8280,180,-1,-1,-1,0
1703418,386,-8281,180,-1,-1,-1,0
1703423,395,-8283,179,-1,-2,-1,0
1703428,399,-8286,171,0,-2,-1,0
1703433,403,-8285,162,0,-2,-1,0
1703438,403,-8285,151,0,-2,-1,0
1703443,402,-8285,139,0,-2,-1,0
1703448,401,-8287,136,0,-2,-1,0
1703453,402,-8288,134,0,-1,-1,0
1703458,401,-8286,131,0,-1,-1,0
1703463,400,-8286,136,0,-1,-1,0
1703468,402,-8287,142,0,-1,-1,0
1703473,400,-8286,147,0,-1,-1,0
1703478,397,-8285,147,0,-2,-1,0
1703483,393,-8283,147,0,-2,-1,0
1703488,394,-8283,148,0,-2,-1,0
1703493,392,-8283,150,0,-3,-1,0
1703498,394,-8283,151,0,-3,-1,0
1703503,395,-8284,155,0,-4,-1,0
1703508,394,-8284,161,0,-4,-1,0
1703513,395,-8285,167,0,-4,-1,0
1703518,395,-8284,174,0,-4,-1,0
1703523,393,-8284,179,0,-5,-1,0
1703528,393,-8283,191,0,-5,-1,0
1703533,393,-8279,199,0,-4,-1,0
1703538,390,-8280,214,0,-4,-1,0
1703543,393,-8282,224,0,-4,-1,0
1703548,401,-8283,236,0,-3,-1,0
1703553,408,-8281,254,0,-2,-1,0
1703558,416,-8282,275,0,-2,-1,0
1703563,421,-8283,300,0,-2,-1,0
1703568,428,-8284,308,0,-1,-1,0
1703573,431,-8283,322,0,-1,-1,0
1703578,432,-8284,334,0,0,-1,0
1703583,438,-8285,339,0,1,-1,0
1703588,452,-8284,350,0,2,-1,0
1703593,465,-8283,353,0,3,-1,0
1703598,481,-8282,353,0,4,-1,0
1703603,501,-8280,362,0,5,-1,0
1703608,520,-8278,364,0,6,-1,0
1703613,528,-8278,367,0,6,-1,0
1703618,524,-8280,367,0,6,-1,0
1703623,512,-8280,363,0,7,-1,0
1703628,492,-8282,364,0,7,-1,0
1703633,467,-8282,363,0,7,-1,0
1703638,440,-8281,354,0,7,-1,0
1703643,419,-8285,349,0,6,-1,0
1703648,405,-8286,347,0,6,-1,0
1703653,404,-8287,348,0,6,-1,0
1703658,409,-8288,353,0,6,-1,0
1703663,416,-8285,362,0,5,-1,0
1703668,425,-8281,373,0,5,-1,0
1703673,434,-8278,385,0,5,-1,0
1703678,439,-8277,399,0,5,-1,0
1703683,436,-8278,411,0,6,-1,0
1703688,434,-8280,421,0,6,-1,0
1703693,427,-8283,418,0,7,-1,0
1703698,422,-8283,418,0,8,-1,0
1703703,418,-8281,414,-1,9,-1,0
1703708,418,-8280,409,-1,10,-1,0
1703713,424,-8279,407,-1,11,-1,0
1703718,433,-8277,405,-1,12,-1,0
1703723,441,-8275,401,-1,13,-1,0
1703728,449,-8274,396,-1,13,-1,0
1703733,456,-8273,398,-1,14,-1,0
1703738,463,-8275,401,-1,14,-1,0
1703743,466,-8276,410,-1,15,-1,0
1703748,469,-8276,421,-1,15,-1,0
1703753,469,-8275,428,-1,15,-1,0
1703758,466,-8275,435,-1,15,-1,0
1703763,461,-8274,432,-1,15,-1,0
1703768,450,-8274,421,-1,14,-1,0
1703773,441,-8275,403,-1,14,0,0
1703778,434,-8276,382,-1,13,-1,0
1703783,429,-8279,367,-1,13,-1,0
1703788,423,-8279,349,-1,12,0,0
1703793,419,-8279,330,-1,12,-1,0
1703798,418,-8277,318,-1,12,0,0
1703803,419,-8277,313,-1,12,-1,0
1703808,420,-8277,311,-1,11,0,0
1703813,422,-8277,315,-1,11,0,0
1703818,427,-8279,318,-1,10,0,0
1703823,427,-8277,317,-1,9,0,0
1703828,427,-8279,318,-1,8,-1,0
1703833,429,-8278,316,-1,8,-1,0
1703838,429,-8277,311,-1,7,0,0
1703843,428,-8276,304,-1,7,0,0
1703848,421,-8276,297,-1,8,-1,0
1703853,411,-8277,287,-1,9,-1,0
1703858,402,-8276,277,-1,10,-1,0
1703863,396,-8277,267,-1,11,0,0
1703868,396,-8279,258,-1,11,0,0
1703873,397,-8284,249,-1,11,0,0
1703878,398,-8285,243,-1,11,0,0
1703883,400,-8285,241,-1,11,-1,0
1703888,404,-8285,241,-1,10,0,0
1703893,409,-8287,244,-1,10,0,0
1703898,412,-8287,252,-1,8,0,0
1703903,413,-8286,260,-1,7,-1,0
1703908,414,-8285,265,-1,6,-1,0
1703913,410,-8284,273,-1,5,-1,0
1703918,405,-8286,284,-1,4,0,0
1703923,402,-8287,288,-1,3,-1,0
1703928,398,-8287,288,-1,2,-1,0
1703933,397,-8285,291,-1,2,-1,0
1703938,401,-8285,288,-1,1,0,0
1703943,402,-8285,290,-1,0,-1,0
1703948,405,-8286,292,-1,0,-1,0
1703953,409,-8286,293,-1,-1,-1,0
1703958,412,-8287,298,-1,-1,-1,0
1703963,415,-8285,303,-1,-1,-1,0
1703968,416,-8282,315,-1,-1,-1,0
1703973,417,-8280,324,-1,-1,-1,0
1703978,416,-8283,337,-1,-1,-1,0
1703983,415,-8283,340,-1,-1,-1,0
1703988,412,-8284,340,-1,-1,-1,0
1703993,409,-8285,331,-1,-1,-1,0
1703998,408,-8283,325,-1,-1,-1,0
1704003,408,-8282,313,-1,-1,0,0
1704008,410,-8281,297,-1,0,0,0
1704013,416,-8283,294,-1,0,0,0
1704018,421,-8279,289,-1,0,0,0
1704023,430,-8279,288,-1,0,0,0
1704028,442,-8279,292,-1,0,0,0
1704033,453,-8276,298,-1,0,0,0
1704038,457,-8272,304,-1,0,0,0
1704043,457,-8273,302,-1,0,0,0
1704048,457,-8274,300,-1,1,0,0
1704053,453,-8277,298,-1,1,0,0
1704058,453,-8278,302,-1,1,0,0
1704063,450,-8278,306,-1,2,0,0
1704068,446,-8277,308,-1,2,0,0
1704073,445,-8276,311,-1,2,0,0
1704078,437,-8278,311,-1,2,0,0
1704083,428,-8280,308,-1,2,0,0
1704088,419,-8280,304,-1,1,0,0
1704093,408,-8282,303,-1,1,0,0
1704098,394,-8283,303,-1,1,0,0
1704103,381,-8284,298,-1,1,0,0
1704108,373,-8279,296,-1,1,0,0
1704113,369,-8280,292,-1,1,0,0
1704118,370,-8280,286,-1,1,0,0
1704123,375,-8279,281,-1,2,0,0
1704128,379,-8281,268,-1,2,0,0
1704133,382,-8283,258,-1,3,0,0
1704138,384,-8282,251,-1,3,0,0
1704143,386,-8283,245,-1,4,0,0
1704148,387,-8285,243,-1,5,0,0
1704153,389,-8286,249,-1,6,0,0
1704158,393,-8285,258,-1,6,0,0
1704163,396,-8284,266,-1,7,0,0
1704168,395,-8282,275,-1,7,0,0
1704173,398,-8284,284,-1,7,0,0
1704178,401,-8284,285,-1,7,0,0
1704183,401,-8288,289,-1,7,0,0
1704188,402,-8288,289,-1,8,0,0
1704193,401,-8287,284,-1,8,0,0
1704198,396,-8284,283,-1,8,0,0
1704203,396,-8282,280,-1,8,0,0
1704208,394,-8280,286,-1,8,0,0
1704213,389,-8279,289,-1,7,0,0
1704218,384,-8281,296,-1,7,0,0
1704223,378,-8283,308,-1,7,0,0
1704228,378,-8284,314,-1,7,0,0
1704233,372,-8286,317,-1,7,0,0
1704238,367,-8286,313,-1,7,0,0
1704243,364,-8283,303,-1,7,0,0
1704248,362,-8284,293,-1,7,0,0
1704253,363,-8284,283,-1,8,0,0
1704258,366,-8285,270,-1,8,0,0
1704263,373,-8287,261,-1,8,0,0
1704268,374,-8286,256,-1,9,0,0
1704273,374,-8285,257,-1,9,0,0
1704278,377,-8287,263,-1,10,0,0
1704283,379,-8286,264,-1,10,0,0
1704288,382,-8285,268,-1,10,0,0
1704293,385,-8284,270,-1,10,0,0
1704298,386,-8284,279,-1,10,0,0
1704303,388,-8283,285,-1,10,0,0
1704308,390,-8282,286,-1,10,0,0
1704313,390,-8282,288,-1,10,0,0
1704318,386,-8281,294,-1,9,0,0
1704323,385,-8282,300,-1,9,0,0
1704328,384,-8283,308,-1,9,0,0
1704333,387,-8287,317,-1,8,0,0
1704338,385,-8284,327,-1,8,0,0
1704343,381,-8284,334,-1,7,0,0
1704348,381,-8284,342,-1,6,0,0
1704353,381,-8284,351,-1,6,-1,0
1704358,384,-8283,349,-1,5,0,0
1704363,388,-8280,350,-1,5,0,0
1704368,389,-8280,345,-1,4,0,0
1704373,389,-8282,338,-1,4,0,0
1704378,388,-8283,329,-1,3,0,0
1704383,386,-8284,322,-1,3,0,0
1704388,383,-8284,318,-1,3,0,0
1704393,385,-8285,319,-1,3,0,0
1704398,394,-8285,325,-1,3,0,0
1704403,401,-8286,332,-1,3,0,0
1704408,411,-8284,341,-1,2,0,0
1704413,416,-8283,349,-1,2,0,0
1704418,420,-8282,355,-1,2,0,0
1704423,424,-8283,360,-1,3,0,0
1704428,425,-8283,358,-1,2,0,0
1704433,421,-8282,353,-1,2,0,0
1704438,416,-8281,357,-1,2,0,0
1704443,411,-8282,364,-1,1,0,0
1704448,405,-8284,370,-1,1,0,0
1704453,398,-8283,370,-1,0,0,0
1704458,395,-8282,375,-1,0,0,0
1704463,387,-8280,374,-1,-1,0,0
1704468,376,-8280,366,-1,-1,0,0
1704473,364,-8279,346,-1,-1,0,0
1704478,347,-8279,329,-1,-1,-1,0
1704483,328,-8280,313,-1,-1,-1,0
1704488,311,-8282,293,-1,-1,-1,0
1704493,294,-8283,272,-1,-1,-1,0
1704498,278,-8284,257,-1,-1,-1,0
1704503,267,-8285,248,-1,-2,-1,0
1704508,265,-8287,250,-1,-2,-1,0
1704513,269,-8289,248,-1,-2,-1,0
1704518,279,-8289,246,-1,-2,-1,0
1704523,290,-8290,250,-1,-2,-1,0
1704528,307,-8286,249,-1,-2,-1,0
1704533,322,-8284,248,-1,-2,-1,0
1704538,334,-8287,244,-1,-2,-1,0
1704543,345,-8286,248,-1,-2,-1,0
1704548,361,-8283,259,-1,-2,-1,0
1704553,374,-8283,274,-1,-2,-1,0
1704558,388,-8281,288,-1,-2,-1,0
1704563,406,-8280,303,-1,-2,-1,0
1704568,426,-8280,312,-1,-2,-1,0
1704573,450,-8281,315,-1,-3,-1,0
1704578,468,-8282,311,-1,-3,-1,0
1704583,489,-8283,297,-1,-2,-1,0
1704588,512,-8284,286,-1,-2,0,0
1704593,536,-8284,275,-1,-2,0,0
1704598,554,-8282,262,-2,-2,0,0
1704603,573,-8279,257,-2,-2,0,0
1704608,585,-8277,260,-2,-1,0,0
1704613,589,-8273,272,-2,-1,0,0
1704618,582,-8272,278,-2,0,0,0
1704623,580,-8274,294,-2,1,0,0
1704628,569,-8276,306,-2,3,0,0
1704633,554,-8279,308,-2,2,0,0
1704638,538,-8282,315,-2,0,0,0
1704643,509,-8283,312,-2,-1,0,0
1704648,482,-8278,303,-2,-1,0,0
1704653,428,-8276,317,-2,-1,0,0
1704658,397,-8275,303,-2,-1,0,0
1704663,370,-8272,287,-2,0,0,0
1704668,333,-8271,267,-2,0,0,0
1704673,313,-8272,239,-1,1,0,0
1704678,312,-8276,202,-1,1,0,0
1704683,331,-8280,167,-1,0,0,0
1704688,347,-8282,151,-2,-3,0,0
1704693,354,-8285,142,-2,-6,0,0
1704698,357,-8285,149,-2,-8,0,0
1704703,350,-8286,160,-2,-11,-1,0
1704708,337,-8285,189,-1,-14,-1,0
1704712,321,-8284,220,-1,-18,-1,0
1704718,303,-8283,238,-1,-22,-1,0
1704723,284,-8280,250,-1,-26,-1,0
1704727,272,-8281,253,-1,-29,-1,0
1704733,274,-8284,251,-1,-32,-1,0
1704738,287,-8285,245,-1,-36,-1,0
1704743,310,-8286,238,-1,-40,-1,0
1704748,336,-8284,239,-1,-44,-1,0
1704753,349,-8284,239,-1,-48,-1,0
1704758,355,-8285,235,-1,-51,-1,0
1704763,348,-8285,226,-1,-53,-1,0
1704768,335,-8284,211,-1,-54,-1,0
1704773,322,-8285,196,-1,-53,-1,0
1704778,310,-8287,178,-1,-52,-1,0
1704783,307,-8286,154,-1,-50,-1,0
1704788,318,-8283,141,-1,-47,-1,0
1704793,339,-8281,135,-1,-45,-1,0
1704798,371,-8280,144,-1,-42,-1,0
1704803,408,-8281,158,-1,-39,-1,0
1704808,442,-8279,177,-1,-36,-1,0
1704813,467,-8281,196,-1,-34,-1,0
1704818,480,-8282,208,-1,-31,-1,0
1704823,482,-8285,204,-1,-27,-1,0
1704828,476,-8287,189,-1,-22,-1,0
1704833,468,-8290,163,-1,-16,-1,0
1704838,459,-8292,127,-1,-11,0,0
1704843,443,-8290,88,-1,-4,0,0
1704848,437,-8289,47,-1,1,0,0
1704853,443,-8289,11,-1,4,0,0
1704858,450,-8288,-17,-1,6,0,0
1704863,452,-8283,-36,-1,7,0,0
1704868,449,-8283,-46,-1,8,0,0
1704873,440,-8283,-52,-1,9,0,0
1704878,421,-8281,-62,-1,10,0,0
1704883,392,-8282,-77,-1,11,0,0
1704888,353,-8283,-94,-1,13,0,0
1704893,316,-8287,-114,-1,16,0,0
1704898,285,-8287,-126,-1,19,0,0
1704903,261,-8284,-125,-1,24,0,0
1704908,251,-8282,-116,-1,28,0,0
1704913,251,-8281,-102,-1,32,0,0
1704918,258,-8280,-91,0,36,0,0
1704923,268,-8282,-84,0,39,0,0
1704928,272,-8281,-84,0,40,-1,0
1704933,272,-8281,-97,0,41,-1,0
1704937,267,-8282,-114,0,41,-1,0
1704943,261,-8283,-123,0,41,-1,0
1704948,264,-8284,-129,0,40,-1,0
1704953,279,-8286,-123,0,38,-1,0
1704958,306,-8285,-108,0,35,-1,0
1704963,348,-8283,-81,0,30,-1,0
1704968,397,-8281,-50,0,25,0,0
1704973,451,-8280,-16,1,18,0,0
1704978,505,-8278,11,1,11,0,0
1704983,547,-8278,44,1,5,0,0
1704988,568,-8277,71,1,1,0,0
1704993,565,-8276,95,1,-2,0,0
1704998,554,-8276,103,1,-2,0,0
1705003,533,-8278,105,1,0,0,0
1705008,515,-8281,106,1,1,0,0
1705013,500,-8284,103,1,2,0,0
1705018,491,-8285,110,1,3,0,0
1705022,483,-8285,117,1,5,0,0
1705028,483,-8285,138,1,6,0,0
1705033,490,-8285,164,1,7,0,0
1705038,501,-8283,198,1,8,0,0
1705043,509,-8277,231,1,8,0,0
1705048,513,-8275,263,1,7,0,0
1705053,507,-8275,289,1,6,0,0
1705058,501,-8276,311,1,5,0,0
1705063,491,-8275,323,1,4,0,0
1705068,476,-8275,335,1,4,0,0
1705073,465,-8277,353,0,3,0,0
1705078,455,-8279,370,0,3,0,0
1705082,450,-8280,393,0,3,0,0
1705088,457,-8278,409,0,3,0,0
1705092,469,-8278,424,0,3,0,0
1705098,484,-8278,432,0,2,0,0
1705103,501,-8280,435,0,1,0,0
1705108,512,-8278,431,0,-1,0,0
1705113,512,-8280,423,0,-2,0,0
1705118,502,-8283,415,0,-2,0,0
1705122,487,-8281,403,0,-2,0,0
1705127,459,-8280,386,0,-1,0,0
1705133,433,-8280,372,0,0,0,0
1705138,408,-8285,354,0,1,0,0
1705143,380,-8289,342,0,2,0,0
1705148,357,-8288,328,0,3,0,0
1705152,337,-8289,321,0,3,0,0
1705158,318,-8288,322,0,3,0,0
1705163,303,-8286,333,0,4,0,0
1705168,284,-8287,339,0,4,0,0
1705172,271,-8284,347,0,5,0,0
1705178,264,-8284,353,0,6,0,0
1705183,260,-8284,357,0,6,0,0
1705188,259,-8282,362,-1,7,0,0
1705193,265,-8280,368,-1,8,0,0
1705198,276,-8283,374,-1,8,0,0
1705202,287,-8285,376,-1,9,0,0
1705207,297,-8286,375,-1,8,0,0
1705213,304,-8286,377,-1,8,0,0
1705218,309,-8284,376,-1,8,0,0
1705223,311,-8283,373,-1,7,0,0
1705228,310,-8283,369,-1,7,0,0
1705233,305,-8284,359,-1,7,0,0
1705238,297,-8287,347,-1,7,0,0
1705243,286,-8288,334,-1,7,0,0
1705247,273,-8287,325,-1,8,0,0
1705252,263,-8287,307,-1,8,0,0
1705258,257,-8288,290,-1,8,0,0
1705263,245,-8287,273,-1,7,0,0
1705268,231,-8287,245,-1,7,-1,0
1705273,218,-8286,216,-1,6,-1,0
1705278,201,-8288,181,-1,6,-1,0
1705283,179,-8292,154,-1,6,-1,0
1705288,151,-8292,130,-1,6,-1,0
1705293,122,-8289,109,-1,5,-1,0
1705298,97,-8288,85,0,5,-1,0
1705303,79,-8286,74,0,5,-1,0
1705308,70,-8286,68,0,4,-1,0
1705313,70,-8286,65,0,2,-1,0
1705318,75,-8286,70,0,1,-1,0
1705323,87,-8285,71,0,-1,-1,0
1705328,103,-8282,71,0,-2,-1,0
1705333,125,-8284,64,0,-3,-2,0
1705337,148,-8284,54,0,-4,-2,0
1705343,172,-8283,42,0,-5,-2,0
1705348,196,-8283,25,0,-5,-2,0
1705353,223,-8287,16,0,-5,-2,0
1705358,254,-8286,13,0,-4,-2,0
1705362,287,-8285,14,0,-4,-2,0
1705367,322,-8286,28,0,-3,-2,0
1705373,357,-8286,53,0,-3,-2,0
1705378,391,-8286,81,0,-3,-2,0
1705383,423,-8288,115,0,-2,-1,0
1705388,454,-8287,147,0,-2,-2,0
1705393,477,-8286,177,0,-1,-1,0
1705398,499,-8288,200,0,0,-1,0
1705403,519,-8290,214,0,0,-1,0
1705408,540,-8291,227,0,1,-1,0
1705413,558,-8291,235,0,1,-1,0
1705418,575,-8290,240,0,1,-1,0
1705422,591,-8289,249,0,2,-1,0
1705428,603,-8290,257,0,2,-1,0
1705432,614,-8291,260,0,2,-1,0
1705438,619,-8288,264,0,3,-1,0
1705443,622,-8286,272,0,3,-1,0
1705447,618,-8285,284,0,3,-1,0
1705452,606,-8284,304,0,3,0,0
1705458,599,-8281,321,0,4,0,0
1705462,593,-8279,343,0,4,0,0
1705468,591,-8278,366,0,4,0,0
1705473,597,-8277,394,0,4,0,0
1705478,607,-8273,424,0,4,0,0
1705482,621,-8272,456,0,4,0,0
1705488,635,-8271,474,0,4,0,0
1705492,648,-8270,484,0,4,0,0
1705498,655,-8270,495,-1,4,0,0
1705503,654,-8270,495,-1,4,0,0
1705508,648,-8269,485,-1,4,0,0
1705512,639,-8270,472,-1,4,0,0
1705518,623,-8270,459,-1,4,0,0
1705523,605,-8269,446,-1,4,1,0
1705527,585,-8269,430,-1,4,1,0
1705533,565,-8268,419,-1,4,1,0
1705538,548,-8270,413,-1,4,1,0
1705543,536,-8272,413,-1,4,1,0
1705547,529,-8271,413,-1,4,1,0
1705552,525,-8272,410,-1,3,1,0
1705557,522,-8276,411,-1,3,1,0
1705563,523,-8278,411,-1,3,1,0
1705568,523,-8280,411,-1,3,1,0
1705573,523,-8282,408,-1,2,1,0
1705578,524,-8284,404,-1,2,1,0
1705583,520,-8287,395,-1,3,1,0
1705588,514,-8287,385,-1,3,1,0
1705592,506,-8286,374,-1,3,1,0
1705597,498,-8287,359,-1,3,1,0
1705603,491,-8285,343,-1,3,1,0
1705608,482,-8284,330,-1,3,1,0
1705612,473,-8284,322,-1,3,1,0
1705617,462,-8282,312,-2,3,1,0
1705623,451,-8283,302,-2,3,1,0
1705628,437,-8284,296,-1,2,1,0
1705633,422,-8282,290,-2,2,1,0
1705638,408,-8283,285,-1,1,1,0
1705643,392,-8284,277,-1,1,1,0
1705648,377,-8284,268,-1,0,1,0
1705652,365,-8285,258,-1,0,1,0
1705657,356,-8285,248,-1,0,1,0
1705663,346,-8285,226,-1,0,1,0
1705668,335,-8284,197,-1,-1,1,0
1705673,326,-8286,175,-1,-1,1,0
1705678,315,-8285,158,-1,-1,1,0
1705683,302,-8287,142,-1,-1,1,0
1705688,289,-8287,129,-1,-1,1,0
1705693,276,-8289,125,-1,-1,1,0
1705698,260,-8290,121,-1,-1,1,0
1705702,250,-8288,126,-1,-1,1,0
1705707,238,-8284,131,-1,-1,1,0
1705712,231,-8284,134,-1,-1,1,0
1705717,226,-8285,138,-1,-2,1,0
1705722,225,-8284,147,-1,-2,1,0
1705727,224,-8285,152,-1,-2,1,0
1705732,225,-8285,153,-1,-3,1,0
1705737,228,-8283,151,-1,-3,1,0
1705742,234,-8284,148,-1,-3,1,0
1705748,239,-8284,145,-1,-3,1,0
1705753,238,-8283,136,-1,-3,1,0
1705757,237,-8282,123,-1,-4,0,0
1705762,234,-8283,117,-1,-4,0,0
1705768,232,-8286,105,-1,-4,1,0
1705772,231,-8288,99,-1,-5,0,0
1705777,230,-8285,94,-1,-5,0,0
1705783,229,-8285,91,-1,-5,0,0
1705788,229,-8285,101,-1,-4,0,0
1705793,230,-8284,109,-1,-4,0,0
1705798,230,-8284,120,-1,-4,0,0
1705803,229,-8282,129,-1,-4,0,0
1705807,224,-8284,135,-1,-4,0,0
1705813,218,-8283,143,-1,-4,0,0
1705818,207,-8282,152,0,-4,0,0
1705823,191,-8282,162,0,-4,0,0
1705828,173,-8284,169,0,-4,0,0
1705832,157,-8284,174,0,-3,0,0
1705837,148,-8284,181,0,-3,0,0
1705843,144,-8280,185,0,-2,0,0
1705848,143,-8279,187,0,-2,0,0
1705852,143,-8275,179,0,-3,0,0
1705858,145,-8273,162,0,-3,0,0
1705862,145,-8272,148,0,-3,0,0
1705867,141,-8274,125,0,-4,0,0
1705872,135,-8276,102,0,-4,0,0
1705877,129,-8278,83,0,-5,-1,0
1705883,121,-8280,70,0,-5,-1,0
1705888,116,-8280,53,0,-5,-1,0
1705892,121,-8282,44,0,-5,-1,0
1705898,134,-8283,43,0,-5,-1,0
1705903,152,-8283,53,0,-6,-1,0
1705908,181,-8282,64,0,-6,-1,0
1705912,210,-8283,76,0,-7,-1,0
1705917,243,-8282,85,0,-7,-1,0
1705923,271,-8282,87,0,-7,-1,0
1705928,293,-8282,90,0,-7,-1,0
1705933,309,-8282,85,0,-7,-1,0
1705938,320,-8281,80,0,-7,-1,0
1705942,325,-8279,75,0,-7,-1,0
1705947,334,-8279,77,0,-6,-1,0
1705952,344,-8279,80,0,-6,0,0
1705958,354,-8276,97,0,-5,0,0
1705962,369,-8277,112,0,-5,0,0
1705968,388,-8278,131,0,-5,0,0
1705972,409,-8280,155,0,-5,0,0
1705977,425,-8278,174,1,-5,0,0
1705982,439,-8278,188,1,-5,0,0
1705987,441,-8277,200,1,-5,0,0
1705993,436,-8274,206,0,-5,0,0
1705997,423,-8271,212,0,-4,0,0
1706002,408,-8268,212,0,-4,0,0
1706007,393,-8270,213,0,-4,0,0
1706013,378,-8270,218,0,-4,0,0
1706017,364,-8271,217,0,-4,0,0
1706022,353,-8273,222,0,-4,0,0
1706028,347,-8274,228,0,-4,0,0
1706032,344,-8276,238,0,-4,0,0
1706038,343,-8276,249,0,-3,0,0
1706043,343,-8276,263,0,-3,0,0
1706047,340,-8274,273,0,-3,0,0
1706053,334,-8272,283,0,-3,0,0
1706058,326,-8270,293,0,-3,0,0
1706063,314,-8271,292,0,-3,0,0
1706067,296,-8272,293,0,-4,0,0
1706073,278,-8275,291,0,-4,0,0
1706078,262,-8276,290,0,-4,0,0
1706083,251,-8278,287,0,-4,0,0
1706088,245,-8281,285,0,-4,0,0
1706093,242,-8283,287,0,-3,0,0
1706098,241,-8284,295,0,-3,0,0
1706103,245,-8282,312,0,-3,0,0
1706108,252,-8283,325,0,-3,0,0
1706113,257,-8281,335,0,-3,0,0
1706117,257,-8280,344,0,-3,0,0
1706123,253,-8281,347,0,-3,0,0
1706128,249,-8283,340,0,-2,0,0
1706132,242,-8284,336,0,-2,0,0
1706137,236,-8286,327,0,-2,0,0
1706142,234,-8286,313,0,-2,-1,0
1706148,232,-8288,307,0,-2,0,0
1706153,234,-8288,303,0,-2,0,0
1706158,238,-8287,299,0,-2,0,0
1706162,243,-8286,301,0,-3,-1,0
1706167,248,-8285,306,0,-3,-1,0
1706172,249,-8285,308,0,-3,-1,0
1706178,250,-8284,312,0,-2,-1,0
1706183,249,-8283,315,0,-2,-1,0
1706187,246,-8281,320,0,-1,-1,0
1706192,244,-8281,327,0,-1,-1,0
1706198,241,-8281,330,0,-1,-1,0
1706203,236,-8280,329,0,-1,-1,0
1706207,234,-8278,322,0,-1,-1,0
1706212,236,-8278,315,0,-1,-1,0
1706217,239,-8277,306,0,-1,-1,0
1706222,237,-8280,304,0,-2,-1,0
1706227,239,-8284,301,0,-1,-1,0
1706232,243,-8285,301,0,-1,-1,0
1706237,248,-8285,301,0,-1,-1,0
1706243,257,-8282,301,0,-1,-1,0
1706247,258,-8282,304,0,-1,-1,0
1706252,259,-8281,301,0,-1,-1,0
1706258,258,-8282,297,0,-2,-1,0
1706262,258,-8282,289,0,-2,-1,0
1706267,257,-8284,275,0,-2,-1,0
1706272,257,-8285,260,0,-2,-1,0
1706277,258,-8285,247,0,-3,-1,0
1706283,265,-8285,231,0,-3,-1,0
1706287,274,-8284,211,0,-3,-1,0
1706292,285,-8283,196,0,-3,-1,0
1706297,297,-8283,189,0,-4,-1,0
1706303,307,-8282,183,0,-4,-1,0
1706307,314,-8283,178,0,-5,-1,0
1706312,322,-8281,183,0,-5,-1,0
1706317,328,-8283,192,0,-5,-1,0
1706323,332,-8280,199,0,-5,-1,0
1706327,335,-8278,209,0,-4,-1,0
1706332,335,-8275,214,0,-4,-1,0
1706338,333,-8279,222,0,-3,-1,0
1706342,333,-8279,229,0,-3,-1,0
1706347,334,-8280,233,0,-3,-1,0
1706353,333,-8282,241,0,-3,-1,0
1706357,330,-8281,244,0,-3,-1,0
1706362,326,-8279,242,0,-3,-1,0
1706368,321,-8279,248,0,-3,-1,0
1706372,311,-8278,255,0,-4,-1,0
1706378,305,-8276,267,0,-4,-1,0
1706382,295,-8278,284,0,-4,-1,0
1706388,283,-8280,301,0,-3,-1,0
1706392,272,-8280,318,0,-3,-1,0
1706398,264,-8282,331,0,-3,-1,0
1706402,256,-8284,341,0,-2,-1,0
1706407,251,-8283,351,0,-2,-1,0
1706412,245,-8283,367,0,-2,-1,0
1706417,245,-8285,381,0,-2,-1,0
1706422,243,-8287,391,0,-2,-1,0
1706427,243,-8287,397,0,-3,-1,0
1706433,244,-8285,406,0,-3,-1,0
1706437,244,-8286,414,0,-3,-1,0
1706442,244,-8287,430,-1,-3,-1,0
1706447,246,-8286,444,-1,-3,-1,0
1706453,255,-8288,457,-1,-3,-1,0
1706457,258,-8286,465,-1,-3,-1,0
1706462,266,-8286,469,-1,-2,-1,0
1706467,272,-8285,467,-1,-2,-1,0
1706473,280,-8284,456,-1,-2,-1,0
1706477,283,-8283,447,-1,-1,-1,0
1706482,284,-8286,428,-1,-1,-1,0
1706488,288,-8286,415,-1,-1,-1,0
1706492,289,-8284,408,-1,-1,-1,0
1706497,294,-8284,402,-1,-1,-1,0
1706502,299,-8281,396,-1,-1,-1,0
1706507,307,-8281,391,-1,-1,-1,0
1706512,316,-8278,386,-1,-1,-1,0
1706517,320,-8277,383,-1,-1,-1,0
1706522,326,-8280,378,-1,0,-1,0
1706528,331,-8279,373,-1,0,-1,0
1706533,337,-8278,365,-1,1,-1,0
1706537,346,-8276,355,-1,1,-1,0
1706542,352,-8277,351,-1,0,-1,0
1706547,343,-8278,353,-1,1,-1,0
1706553,336,-8278,342,-1,1,-1,0
1706557,327,-8280,337,-1,1,-1,0
1706562,317,-8281,337,-1,1,-1,0
1706568,313,-8281,332,-1,0,-1,0
1706572,312,-8284,327,-1,0,-1,0
1706577,312,-8284,319,-1,0,-1,0
1706582,319,-8282,314,-1,0,-1,0
1706587,335,-8285,311,-1,0,-1,0
1706592,353,-8286,309,-1,0,-1,0
1706598,368,-8286,309,-1,1,-1,0
1706602,377,-8284,307,-1,1,-1,0
1706607,385,-8284,305,-1,2,-1,0
1706612,397,-8285,302,-1,3,-1,0
1706617,401,-8284,306,-1,3,-1,0
1706622,392,-8283,304,-1,3,-1,0
1706628,387,-8284,296,-1,4,-1,0
1706632,375,-8286,293,-1,4,-1,0
1706637,366,-8289,282,-1,5,-1,0
1706642,362,-8291,274,-1,6,-1,0
1706648,367,-8293,265,-1,6,-1,0
1706652,370,-8292,252,-1,7,-1,0
1706657,375,-8291,248,-1,7,-1,0
1706662,383,-8290,255,-1,7,-1,0
1706667,386,-8288,260,-1,7,-1,0
1706673,384,-8284,269,-1,6,-1,0
1706677,380,-8284,280,-1,6,-1,0
1706682,375,-8285,282,-1,5,-1,0
1706687,370,-8284,278,-1,5,-1,0
1706692,370,-8286,276,-1,5,-1,0
1706697,372,-8285,273,-1,4,-1,0
1706703,375,-8284,269,-1,4,-1,0
1706707,380,-8284,255,-1,4,-1,0
1706713,392,-8283,244,-1,3,-1,0
1706717,402,-8283,239,-1,3,-1,0
1706723,403,-8284,237,-1,2,-1,0
1706728,406,-8283,238,-1,2,-1,0
1706733,402,-8281,235,-1,1,-1,0
1706737,394,-8281,232,-1,1,-1,0
1706742,384,-8282,225,-1,0,-1,0
1706747,371,-8282,212,-1,0,-1,0
1706752,356,-8282,197,-1,0,-1,0
1706757,348,-8283,178,-1,-1,-1,0
1706762,343,-8282,163,-1,-1,-1,0
1706767,346,-8282,151,-1,-1,-1,0
1706772,350,-8283,135,-1,-1,-1,0
1706777,356,-8285,121,-1,-1,-1,0
1706782,363,-8285,109,-1,-1,-1,0
1706787,370,-8286,103,-1,-1,-1,0
1706792,374,-8288,103,-1,-1,-1,0
1706797,378,-8288,108,-1,-1,-1,0
1706802,384,-8285,110,-1,-1,-1,0
1706807,384,-8281,120,-1,0,-1,0
1706812,382,-8278,127,-1,0,-1,0
1706817,381,-8279,129,-1,0,-1,0
1706823,381,-8282,129,-1,0,-1,0
1706828,384,-8285,118,0,-1,-1,0
1706833,384,-8285,109,0,-1,-1,0
1706837,380,-8286,98,0,-1,-1,0
1706842,376,-8286,88,0,-1,-1,0
1706847,369,-8282,77,0,-1,-1,0
1706852,367,-8284,71,0,-1,-1,0
1706857,364,-8285,72,0,-1,-1,0
1706862,364,-8286,80,0,-1,-1,0
1706867,365,-8286,91,0,-1,-1,0
1706872,367,-8284,104,0,-2,-1,0
1706877,369,-8280,116,0,-2,-1,0
1706882,372,-8279,128,0,-2,-1,0
1706887,377,-8279,145,0,-2,-1,0
1706893,384,-8279,161,0,-2,-1,0
1706897,389,-8277,168,0,-2,-1,0
1706902,393,-8277,172,0,-2,-1,0
1706908,393,-8275,174,0,-2,-1,0
1706912,393,-8274,175,0,-2,-1,0
1706917,392,-8275,176,0,-2,-1,0
1706922,387,-8275,181,0,-3,-1,0
1706928,383,-8275,195,0,-3,-1,0
1706932,383,-8277,205,0,-3,-1,0
1706937,386,-8276,211,0,-3,0,0
1706942,388,-8280,211,0,-3,0,0
1706947,389,-8282,221,0,-3,-1,0
1706952,391,-8282,227,0,-3,0,0
1706957,393,-8283,229,0,-3,0,0
1706963,395,-8284,236,0,-3,-1,0
1706967,393,-8286,247,0,-3,-1,0
