millis,ax,ay,az,gx,gy,gz,label
92466,322,-8181,115,-3,-2,-1,0
92471,326,-8181,125,-3,-2,-1,0
92476,333,-8182,134,-3,-2,-1,0
92481,336,-8178,144,-3,-1,-1,0
92486,347,-8179,147,-3,-2,-1,0
92491,361,-8182,146,-3,-2,-1,0
92496,384,-8181,137,-3,-2,-1,0
92501,413,-8181,121,-3,-2,-1,0
92506,445,-8179,100,-3,-2,-1,0
92511,480,-8182,79,-3,-2,-1,0
92516,510,-8181,56,-3,-2,-1,0
92521,540,-8181,36,-3,-2,-1,0
92526,559,-8181,17,-3,-2,-1,0
92531,573,-8180,7,-3,-2,-1,0
92536,579,-8178,1,-3,-2,-1,0
92541,578,-8178,-1,-3,-2,-1,0
92546,578,-8178,-2,-3,-2,-1,0
92551,574,-8182,-6,-3,-2,0,0
92556,567,-8185,-11,-2,-2,0,0
92561,562,-8184,-23,-2,-2,0,0
92566,560,-8184,-39,-2,-2,0,0
92571,562,-8182,-54,-2,-2,0,0
92576,569,-8180,-64,-2,-2,0,0
92581,572,-8179,-71,-2,-2,0,0
92586,576,-8180,-72,-2,-1,0,0
92591,583,-8180,-73,-2,-1,0,0
92596,585,-8179,-77,-2,-1,0,0
92601,583,-8179,-77,-2,-1,0,0
92606,575,-8176,-75,-2,-1,0,0
92611,558,-8177,-69,-2,-1,0,0
92616,533,-8178,-63,-2,-2,0,0
92621,507,-8179,-55,-2,-2,0,0
92626,485,-8182,-51,-2,-2,0,0
92631,469,-8183,-48,-2,-1,0,0
92636,459,-8186,-49,-2,-1,0,0
92641,460,-8185,-58,-2,-1,0,0
92646,470,-8183,-66,-2,-1,0,0
92651,487,-8181,-77,-2,-1,0,0
92656,505,-8179,-82,-2,-1,0,0
92661,522,-8181,-86,-2,-1,0,0
92666,541,-8184,-89,-2,-1,0,0
92671,552,-8181,-84,-2,-1,0,0
92676,550,-8180,-72,-2,-1,0,0
92681,543,-8179,-53,-2,-1,0,0
92686,531,-8179,-29,-2,-1,0,0
92691,511,-8180,-7,-2,-1,0,0
92696,489,-8182,18,-2,-1,0,0
92701,469,-8183,43,-2,-1,0,0
92706,456,-8183,67,-2,-1,0,0
92711,446,-8183,87,-2,-1,0,0
92716,441,-8184,101,-2,-1,0,0
92721,441,-8186,111,-2,-1,0,0
92726,444,-8185,114,-2,-1,0,0
92731,451,-8187,114,-2,-1,0,0
92736,459,-8185,111,-2,-1,0,0
92741,462,-8184,102,-2,-2,0,0
92746,459,-8186,89,-2,-2,0,0
92751,456,-8187,76,-2,-1,0,0
92756,450,-8188,68,-2,-1,0,0
92761,444,-8185,62,-2,-1,0,0
92766,435,-8183,59,-2,-1,0,0
92771,424,-8180,54,-2,-1,0,0
92776,415,-8181,45,-2,-1,0,0
92781,401,-8182,37,-2,-1,0,0
92786,383,-8186,24,-2,-1,0,0
92791,366,-8187,16,-2,-1,0,0
92796,352,-8184,14,-2,-1,0,0
92801,345,-8184,13,-2,-1,0,0
92806,341,-8186,19,-2,0,0,0
92811,336,-8187,34,-2,0,0,0
92816,326,-8188,59,-2,1,0,0
92821,317,-8189,89,-2,1,0,0
92826,307,-8188,118,-2,2,0,0
92831,294,-8190,145,-2,2,0,0
92836,281,-8191,172,-2,2,-1,0
92841,275,-8191,196,-2,2,-1,0
92846,274,-8189,213,-2,2,-1,0
92851,283,-8186,222,-2,2,-1,0
92856,301,-8185,227,-2,2,-1,0
92861,329,-8182,231,-2,1,-1,0
92866,365,-8181,230,-2,1,-1,0
92871,399,-8181,228,-2,1,-1,0
92876,435,-8178,223,-2,1,-1,0
92881,465,-8180,211,-2,1,-1,0
92886,489,-8180,198,-2,1,-1,0
92891,506,-8182,179,-2,1,0,0
92896,515,-8183,159,-2,1,0,0
92901,517,-8184,142,-2,1,0,0
92906,513,-8183,126,-2,0,0,0
92911,506,-8180,121,-2,0,0,0
92916,494,-8181,119,-2,0,0,0
92921,478,-8182,116,-2,0,0,0
92926,467,-8182,115,-2,1,0,0
92931,457,-8185,114,-2,1,0,0
92936,452,-8189,111,-2,1,0,0
92941,447,-8189,108,-2,1,0,0
92946,444,-8187,106,-2,0,0,0
92951,441,-8186,99,-2,0,0,0
92956,437,-8184,95,-2,0,0,0
92961,437,-8186,91,-2,0,0,0
92966,440,-8186,85,-2,0,0,0
92971,444,-8186,78,-2,0,0,0
92976,448,-8186,70,-2,0,0,0
92981,452,-8186,69,-2,0,0,0
92986,454,-8187,66,-2,0,0,0
92991,458,-8188,61,-2,0,0,0
92996,468,-8188,57,-2,0,0,0
93001,476,-8186,51,-2,0,0,0
93006,487,-8184,45,-2,0,0,0
93011,497,-8185,39,-2,0,0,0
93016,506,-8183,30,-2,0,0,0
93021,517,-8180,24,-2,0,0,0
93026,528,-8177,17,-2,0,0,0
93031,541,-8176,9,-2,0,0,0
93036,551,-8178,1,-2,0,0,0
93041,558,-8177,-7,-2,0,0,0
93046,563,-8180,-14,-2,1,0,0
93051,561,-8181,-22,-2,1,0,0
93056,555,-8181,-34,-2,1,0,0
93062,545,-8182,-42,-2,1,0,0
93067,531,-8183,-42,-2,1,0,0
93071,514,-8182,-34,-2,1,0,0
93076,498,-8183,-20,-2,1,0,0
93081,480,-8182,-7,-2,1,0,0
93086,461,-8180,9,-2,1,0,0
93091,441,-8179,26,-2,1,0,0
93096,431,-8178,38,-2,2,0,0
93101,420,-8180,48,-2,3,0,0
93106,416,-8183,57,-2,3,0,0
93111,409,-8184,67,-2,4,0,0
93116,403,-8188,80,-2,4,0,0
93122,394,-8192,95,-2,4,0,0
93127,380,-8193,114,-2,5,0,0
93132,360,-8192,131,-2,5,0,0
93138,332,-8190,143,-2,5,0,0
93143,303,-8190,149,-2,4,0,0
93148,268,-8194,157,-2,4,0,0
93154,234,-8196,164,-2,4,0,0
93159,203,-8196,166,-2,4,0,0
93163,183,-8196,167,-2,4,0,0
93168,174,-8196,169,-2,5,-1,0
93172,177,-8195,168,-2,5,-1,0
93177,194,-8195,157,-2,5,-1,0
93182,225,-8193,149,-2,5,-1,0
93187,257,-8191,140,-2,4,-1,0
93191,293,-8188,123,-2,4,-1,0
93196,328,-8188,110,-2,4,-1,0
93201,356,-8186,105,-2,4,-1,0
93206,377,-8185,101,-2,4,-1,0
93211,389,-8186,105,-2,4,-1,0
93216,388,-8186,113,-2,5,-1,0
93221,377,-8185,124,-2,5,-1,0
93226,366,-8185,138,-2,5,-1,0
93231,357,-8181,148,-2,6,-1,0
93236,355,-8183,151,-2,6,-1,0
93241,363,-8185,149,-2,6,-1,0
93246,378,-8185,140,-2,7,-1,0
93251,400,-8187,121,-2,7,-1,0
93256,423,-8187,98,-2,6,-1,0
93261,445,-8185,72,-2,6,-1,0
93266,467,-8183,48,-2,6,-1,0
93271,482,-8179,30,-2,5,-1,0
93276,497,-8177,17,-2,5,-1,0
93281,506,-8177,15,-2,5,-1,0
93286,515,-8177,20,-2,5,-1,0
93291,520,-8179,30,-2,5,-1,0
93296,523,-8177,47,-2,5,-1,0
93301,521,-8176,69,-2,6,-1,0
93306,513,-8180,84,-2,6,-1,0
93311,503,-8181,97,-2,6,-1,0
93316,495,-8182,104,-2,7,0,0
93321,487,-8183,104,-2,8,0,0
93326,483,-8182,102,-2,8,0,0
93331,481,-8184,92,-2,8,0,0
93336,481,-8184,75,-2,8,0,0
93341,477,-8183,61,-2,8,0,0
93346,467,-8182,47,-2,8,0,0
93351,451,-8183,38,-2,7,0,0
93356,436,-8184,34,-2,7,0,0
93361,419,-8183,27,-2,8,0,0
93366,408,-8182,14,-2,8,0,0
93371,399,-8181,2,-2,8,0,0
93376,394,-8181,-13,-2,8,0,0
93380,394,-8180,-21,-2,8,0,0
93386,398,-8179,-25,-2,9,0,0
93391,403,-8177,-15,-2,9,0,0
93396,406,-8178,-2,-2,9,0,0
93401,407,-8180,15,-2,10,0,0
93405,405,-8182,38,-2,10,0,0
93411,406,-8180,64,-2,11,0,0
93416,404,-8180,86,-2,11,0,0
93421,402,-8181,106,-2,11,0,0
93426,394,-8182,124,-2,11,0,0
93431,384,-8180,139,-2,11,0,0
93436,372,-8182,149,-2,10,-1,0
93441,357,-8183,158,-2,10,-1,0
93446,345,-8183,164,-2,9,-1,0
93451,336,-8182,163,-2,9,-1,0
93456,327,-8180,165,-2,8,-1,0
93461,325,-8180,159,-2,8,-1,0
93466,331,-8180,148,-2,8,-1,0
93471,349,-8182,139,-2,7,-1,0
93476,375,-8179,119,-2,6,-1,0
93480,407,-8179,101,-2,6,-1,0
93486,449,-8178,83,-2,5,-1,0
93491,497,-8178,65,-2,4,0,0
93496,551,-8179,56,-2,3,0,0
93501,601,-8176,54,-2,2,0,0
93506,646,-8176,62,-2,1,0,0
93511,679,-8174,83,-2,1,0,0
93516,694,-8174,110,-2,0,0,0
93521,691,-8177,139,-2,0,0,0
93526,668,-8182,164,-2,0,0,0
93531,628,-8183,189,-2,0,0,0
93536,579,-8184,207,-2,1,0,0
93541,524,-8187,219,-2,1,0,0
93546,467,-8190,232,-2,2,0,0
93551,415,-8190,243,-2,3,0,0
93556,371,-8191,251,-2,4,0,0
93561,342,-8188,259,-2,5,0,0
93566,326,-8188,262,-2,6,0,0
93571,324,-8189,261,-2,6,0,0
93576,329,-8189,258,-3,7,0,0
93581,341,-8192,260,-3,7,0,0
93586,356,-8192,266,-3,6,0,0
93591,363,-8192,276,-3,6,0,0
93596,370,-8192,294,-3,5,0,0
93601,370,-8190,320,-3,4,0,0
93606,365,-8190,350,-3,3,0,0
93610,357,-8190,378,-3,3,0,0
93616,354,-8191,405,-3,3,0,0
93621,356,-8191,430,-3,3,0,0
93625,361,-8191,459,-4,2,0,0
93630,371,-8191,490,-4,2,0,0
93636,384,-8191,521,-4,1,0,0
93640,390,-8192,546,-4,0,-1,0
93646,391,-8194,563,-4,0,-1,0
93650,385,-8193,571,-4,0,-1,0
93655,368,-8193,578,-4,-1,-1,0
93661,345,-8194,572,-4,-1,-1,0
93666,316,-8195,562,-5,-2,-1,0
93671,289,-8193,552,-5,-2,-1,0
93676,263,-8193,542,-5,-2,-1,0
93680,233,-8192,528,-5,-2,-1,0
93685,204,-8192,517,-5,-2,-1,0
93690,177,-8191,499,-5,-2,-1,0
93695,155,-8192,473,-5,-2,-1,0
93701,135,-8193,440,-5,-1,-1,0
93706,118,-8193,401,-5,-1,-2,0
93710,103,-8190,358,-5,-1,-2,0
93715,92,-8189,311,-5,0,-2,0
93721,86,-8185,266,-5,1,-2,0
93725,87,-8183,220,-5,1,-2,0
93730,88,-8183,169,-5,1,-2,0
93735,90,-8183,109,-5,1,-2,0
93740,93,-8183,45,-5,1,-2,0
93746,99,-8184,-20,-5,1,-2,0
93750,108,-8185,-87,-5,0,-2,0
93755,122,-8183,-148,-5,0,-2,0
93761,142,-8185,-199,-5,-1,-3,0
93766,168,-8185,-245,-5,-1,-3,0
93771,204,-8184,-291,-5,-1,-3,0
93776,244,-8183,-343,-4,-1,-3,0
93781,284,-8180,-394,-4,-1,-3,0
93786,326,-8180,-452,-4,-1,-3,0
93791,364,-8177,-513,-4,0,-3,0
93796,399,-8174,-583,-3,0,-2,0
93801,429,-8175,-641,-3,1,-2,0
93806,450,-8177,-689,-3,2,-2,0
93811,463,-8177,-722,-3,3,-2,0
93816,465,-8177,-739,-3,5,-2,0
93821,462,-8177,-742,-2,7,-2,0
93826,456,-8175,-730,-2,9,-2,0
93830,449,-8175,-713,-2,11,-2,0
93836,448,-8176,-689,-2,13,-2,0
93841,459,-8175,-657,-2,15,-2,0
93846,477,-8176,-623,-2,16,-2,0
93850,503,-8173,-587,-1,17,-2,0
93855,537,-8172,-543,-1,17,-2,0
93861,576,-8173,-494,-1,17,-2,0
93866,621,-8173,-445,-1,16,-2,0
93870,669,-8175,-389,-1,15,-1,0
93875,723,-8175,-326,-1,14,-1,0
93880,782,-8178,-260,-1,13,-1,0
93885,834,-8176,-193,-1,11,-1,0
93890,879,-8176,-131,-1,10,-1,0
93896,917,-8176,-61,-1,8,-1,0
93902,946,-8176,-2,-1,7,-1,0
93907,966,-8174,48,-1,6,0,0
93911,983,-8175,96,-1,6,0,0
93915,996,-8178,129,-1,5,0,0
93920,1006,-8180,151,-1,5,0,0
93925,1015,-8179,169,-1,6,0,0
93930,1023,-8178,172,-2,6,0,0
93935,1029,-8177,169,-2,7,1,0
93940,1036,-8177,156,-2,7,1,0
93945,1045,-8176,142,-2,8,1,0
93950,1057,-8177,132,-2,8,1,0
93955,1069,-8179,122,-2,7,1,0
93960,1080,-8179,121,-2,7,1,0
93965,1092,-8178,120,-2,6,2,0
93970,1099,-8175,123,-2,5,2,0
93975,1097,-8175,122,-2,4,2,0
93980,1090,-8176,120,-2,3,2,0
93985,1075,-8177,116,-2,1,2,0
93990,1051,-8178,117,-2,0,2,0
93995,1021,-8179,116,-2,-2,2,0
94000,984,-8181,116,-2,-2,3,0
94006,952,-8181,122,-2,-3,3,0
94010,923,-8180,131,-2,-3,3,0
94015,896,-8180,141,-2,-3,3,0
94021,867,-8181,148,-2,-3,3,0
94025,836,-8183,155,-2,-4,3,0
94030,802,-8184,164,-2,-4,3,0
94035,763,-8183,171,-2,-4,3,0
94040,720,-8184,176,-2,-4,3,0
94045,667,-8186,178,-2,-5,3,0
94050,605,-8186,177,-2,-5,3,0
94055,540,-8186,160,-2,-5,3,0
94060,482,-8186,131,-2,-3,3,0
94065,443,-8186,87,-2,-1,3,0
94070,430,-8186,24,-2,1,3,0
94075,439,-8189,-49,-2,2,3,0
94080,457,-8186,-119,-2,3,3,0
94085,491,-8185,-170,-2,4,3,0
94090,534,-8183,-195,-2,5,3,0
94095,584,-8185,-199,-2,6,4,0
94100,632,-8184,-181,-2,6,4,0
94105,675,-8183,-145,-2,6,4,0
94110,703,-8182,-98,-2,4,4,0
94115,708,-8182,-47,-2,1,4,0
94120,684,-8183,-3,-2,-1,4,0
94125,647,-8183,48,-2,-2,4,0
94130,604,-8183,99,-2,-2,4,0
94135,555,-8183,152,-2,-2,4,0
94140,496,-8182,210,-2,-3,4,0
94145,429,-8182,263,-2,-4,4,0
94150,358,-8184,312,-3,-4,4,0
94155,288,-8187,351,-3,-5,3,0
94160,214,-8190,383,-3,-6,3,0
94165,153,-8192,393,-3,-7,3,0
94170,108,-8190,388,-3,-8,3,0
94175,84,-8193,366,-3,-9,3,0
94180,84,-8194,335,-3,-9,3,0
94185,102,-8197,300,-3,-8,3,0
94190,125,-8197,271,-3,-8,3,0
94195,146,-8192,255,-3,-7,3,0
94200,155,-8189,253,-4,-6,3,0
94205,144,-8189,266,-4,-4,3,0
94210,118,-8189,282,-4,-3,3,0
94216,71,-8188,313,-4,-1,3,0
94221,21,-8191,355,-4,1,2,0
94227,-27,-8193,408,-4,4,2,0
94232,-85,-8197,480,-5,2,2,0
94237,-174,-8201,554,-5,-1,1,0
94243,-294,-8201,631,-5,-3,1,0
94249,-413,-8203,701,-5,-3,1,0
94254,-504,-8206,750,-5,-3,1,0
94260,-556,-8205,771,-6,-4,1,0
94266,-570,-8201,769,-6,-5,1,0
94272,-543,-8196,724,-6,-6,1,0
94278,-481,-8193,626,-5,-7,0,0
94284,-398,-8192,479,-5,-6,0,0
94289,-304,-8189,295,-5,-5,0,0
94295,-202,-8192,99,-5,-4,0,0
94301,-94,-8190,-85,-5,-2,0,0
94307,18,-8189,-241,-5,0,0,0
94312,125,-8187,-359,-5,2,0,0
94318,216,-8186,-429,-5,4,0,0
94324,275,-8184,-461,-5,6,0,0
94330,300,-8186,-461,-5,9,0,0
94335,294,-8185,-430,-5,12,0,0
94341,263,-8186,-377,-5,14,0,0
94346,208,-8190,-314,-5,15,0,0
94352,136,-8193,-249,-5,14,0,0
94357,57,-8198,-183,-5,12,0,0
94362,-13,-8198,-119,-5,11,0,0
94368,-56,-8198,-63,-5,9,0,0
94374,-70,-8199,-32,-5,7,0,0
94379,-52,-8201,-35,-4,5,0,0
94385,-6,-8199,-61,-4,3,0,0
94391,62,-8200,-117,-4,1,0,0
94397,141,-8200,-187,-4,0,0,0
94402,227,-8197,-272,-4,-1,0,0
94408,316,-8194,-355,-4,-2,0,0
94414,406,-8192,-429,-4,-3,0,0
94420,493,-8191,-483,-4,-5,0,0
94425,654,-8187,-497,-4,-12,0,0
94431,733,-8184,-510,-4,-19,1,0
94437,801,-8183,-512,-3,-24,1,0
94443,813,-8179,-529,-3,-24,0,0
94449,762,-8180,-558,-2,-22,0,0
94454,667,-8183,-615,-2,-21,0,0
94460,538,-8188,-673,-2,-21,0,0
94465,415,-8191,-709,-2,-22,1,0
94470,313,-8191,-732,-2,-23,1,0
94474,255,-8189,-713,-2,-22,1,0
94479,243,-8187,-681,-2,-18,1,0
94483,262,-8188,-647,-2,-12,1,0
94488,296,-8188,-612,-1,-7,1,0
94492,331,-8188,-580,-1,-3,1,0
94497,344,-8189,-543,-1,-2,1,0
94502,326,-8190,-491,-2,-3,1,0
94507,285,-8191,-419,-2,-4,1,0
94511,235,-8191,-327,-2,-6,1,0
94516,196,-8192,-226,-2,-8,1,0
94521,167,-8193,-130,-2,-10,1,0
94526,147,-8192,-57,-1,-12,1,0
94531,125,-8192,4,-1,-15,0,0
94535,90,-8192,42,-1,-18,0,0
94540,23,-8192,61,-2,-23,0,0
94545,-76,-8196,67,-2,-27,-1,0
94550,-204,-8198,54,-2,-30,-1,0
94555,-351,-8199,27,-2,-32,-1,0
94560,-497,-8198,-9,-2,-30,-1,0
94565,-620,-8198,-59,-2,-26,-1,0
94571,-706,-8200,-109,-2,-20,-2,0
94577,-751,-8202,-157,-2,-14,-2,0
94582,-766,-8204,-193,-2,-9,-2,0
94588,-749,-8203,-216,-2,-5,-3,0
94593,-699,-8200,-217,-2,-3,-3,0
94598,-611,-8198,-208,-2,-2,-3,0
94605,-483,-8195,-192,-2,-1,-2,0
94610,-324,-8193,-176,-2,-1,-2,0
94615,-158,-8191,-163,-1,-1,-2,0
94620,11,-8190,-154,-2,-2,-3,0
94625,151,-8191,-144,-2,-2,-3,0
94631,248,-8191,-129,-2,-4,-3,0
94636,298,-8191,-112,-2,-6,-3,0
94641,295,-8189,-89,-2,-8,-3,0
94646,255,-8191,-67,-2,-11,-3,0
94651,180,-8193,-55,-2,-15,-3,0
94656,83,-8192,-46,-2,-17,-3,0
94662,-23,-8194,-45,-1,-18,-3,0
94669,-122,-8193,-57,-1,-17,-3,0
94674,-203,-8190,-90,-1,-15,-3,0
94680,-255,-8188,-151,-1,-12,-4,0
94686,-275,-8187,-231,-1,-9,-4,0
94692,-265,-8186,-327,-1,-6,-4,0
94698,-226,-8187,-418,-1,-4,-4,0
94704,-163,-8188,-496,-1,-3,-4,0
94710,-83,-8185,-552,-1,-2,-4,0
94717,9,-8185,-583,-1,-2,-4,0
94723,107,-8183,-584,0,-2,-4,0
94729,207,-8183,-575,0,-2,-4,0
94734,302,-8181,-544,0,-2,-4,0
94740,387,-8178,-513,0,-1,-4,0
94746,455,-8177,-479,0,-2,-4,0
94751,513,-8175,-434,0,-2,-4,0
94757,562,-8172,-390,0,-3,-3,0
94763,604,-8172,-338,0,-5,-3,0
94768,637,-8173,-284,0,-5,-3,0
94772,666,-8176,-228,0,-6,-3,0
94777,691,-8178,-178,0,-6,-3,0
94783,699,-8178,-133,0,-6,-3,0
94788,697,-8176,-96,0,-6,-3,0
94792,689,-8176,-60,0,-7,-3,0
94797,682,-8177,-28,0,-7,-3,0
94802,671,-8181,-11,0,-7,-2,0
94807,661,-8181,1,0,-7,-2,0
94812,656,-8181,11,0,-8,-2,0
94816,657,-8182,8,0,-9,-2,0
94820,660,-8187,9,0,-11,-2,0
94824,657,-8188,22,0,-13,-2,0
94829,645,-8187,40,0,-15,-2,0
94833,628,-8185,69,0,-17,-2,0
94839,603,-8186,103,0,-19,-2,0
94844,566,-8186,142,0,-20,-2,0
94849,519,-8185,191,0,-21,-2,0
94853,460,-8186,232,0,-21,-2,0
94858,392,-8188,273,-1,-20,-2,0
94863,320,-8191,302,-1,-17,-2,0
94868,253,-8189,318,-1,-12,-2,0
94872,199,-8187,300,-1,-7,-2,0
94878,172,-8187,266,-1,-2,-2,0
94882,173,-8190,212,-1,3,-2,0
94886,199,-8194,151,-1,5,-2,0
94890,240,-8196,104,-1,6,-2,0
94895,298,-8195,87,-1,6,-2,0
94900,389,-8194,94,-1,4,-2,0
94905,521,-8191,129,-1,1,-2,0
94910,662,-8188,160,-1,-4,-2,0
94915,785,-8188,202,-1,-8,-1,0
94920,902,-8187,239,-1,-11,-2,0
94924,993,-8185,252,-1,-12,-2,0
94929,1034,-8183,251,-1,-14,-2,0
94934,1010,-8182,223,-1,-18,-2,0
94939,920,-8182,174,-1,-24,-2,0
94944,779,-8186,126,-1,-30,-2,0
94949,615,-8191,95,-1,-35,-2,0
94953,461,-8193,86,-1,-36,-1,0
94959,351,-8194,103,-1,-35,-1,0
94964,304,-8192,140,-1,-31,-1,0
94968,303,-8194,186,-1,-26,-1,0
94973,337,-8193,226,-1,-22,-1,0
94978,383,-8193,256,-1,-20,-2,0
94983,415,-8193,273,-1,-20,-2,0
94988,428,-8192,277,-1,-20,-2,0
94993,430,-8191,266,-2,-20,-2,0
94998,438,-8192,257,-2,-20,-2,0
95003,447,-8192,247,-2,-20,-1,0
95008,468,-8193,250,-2,-19,-1,0
95012,497,-8189,262,-2,-16,-1,0
95018,520,-8189,281,-2,-13,-1,0
95022,531,-8189,300,-2,-8,-1,0
95027,521,-8191,310,-3,-4,-1,0
95032,471,-8191,321,-3,0,-2,0
95038,391,-8195,317,-3,4,-2,0
95043,261,-8198,300,-3,9,-2,0
95048,141,-8203,285,-3,15,-1,0
95052,54,-8205,263,-3,22,-1,0
95057,67,-8206,273,-4,23,-1,0
95063,32,-8199,238,-4,23,-1,0
95067,108,-8196,241,-3,21,-1,0
95072,173,-8191,218,-3,22,-1,0
95076,193,-8185,165,-3,22,-1,0
95081,273,-8188,116,-3,22,-2,0
95086,317,-8186,16,-3,23,-1,0
95091,402,-8188,-39,-3,19,-1,0
95095,500,-8188,-167,-2,14,-1,0
95100,581,-8194,-179,-3,7,-1,0
95105,670,-8198,-176,-3,0,-1,0
95110,675,-8193,-144,-3,-2,-2,0
95114,650,-8193,1,-3,-2,-2,0
95118,607,-8189,99,-3,0,-2,0
95123,549,-8187,218,-3,-1,-2,0
95127,478,-8191,300,-3,-6,-2,0
95131,380,-8192,284,-3,-7,-2,0
95135,318,-8196,262,-3,-4,-1,0
95139,305,-8197,173,-3,-1,-1,0
95144,314,-8200,96,-3,0,-2,0
95148,328,-8198,12,-3,0,-2,0
95152,349,-8195,-55,-3,1,-2,0
95156,381,-8193,-80,-3,0,-2,0
95161,399,-8190,-128,-3,-3,-2,0
95165,398,-8190,-138,-3,-8,-2,0
95169,376,-8192,-159,-3,-10,-2,0
95173,342,-8194,-189,-2,-11,-2,0
95178,307,-8196,-201,-2,-11,-2,0
95182,279,-8197,-240,-2,-9,-2,0
95186,262,-8197,-256,-2,-8,-2,0
95190,247,-8198,-266,-2,-8,-2,0
95194,230,-8197,-285,-2,-8,-3,0
95199,215,-8191,-281,-2,-7,-3,0
95203,208,-8189,-275,-2,-6,-3,0
95207,212,-8187,-265,-2,-6,-3,0
95211,223,-8187,-254,-2,-7,-3,0
95215,237,-8187,-248,-2,-10,-3,0
95220,250,-8190,-237,-2,-14,-3,0
95224,249,-8191,-235,-1,-19,-3,0
95228,233,-8191,-224,-1,-21,-4,0
95232,220,-8191,-217,-1,-23,-4,0
95236,209,-8188,-207,-1,-24,-4,0
95241,203,-8191,-190,-1,-26,-4,0
95245,200,-8190,-172,-1,-28,-4,0
95249,204,-8190,-138,-1,-27,-4,0
95253,216,-8191,-106,-1,-26,-4,0
95257,244,-8192,-64,-1,-23,-4,0
95262,273,-8191,-16,-1,-22,-4,0
95266,292,-8194,17,-1,-21,-5,0
95270,302,-8194,44,-1,-22,-5,0
95274,297,-8194,61,-1,-22,-5,0
95278,294,-8194,69,-1,-21,-4,0
95282,299,-8191,77,-2,-19,-4,0
95286,319,-8190,92,-2,-14,-4,0
95290,362,-8187,111,-2,-9,-4,0
95294,428,-8184,136,-2,-5,-4,0
95299,512,-8182,160,-2,-3,-4,0
95304,597,-8183,175,-2,-3,-4,0
95309,675,-8182,179,-2,-5,-4,0
95314,741,-8179,173,-2,-6,-4,0
95319,796,-8177,159,-2,-7,-4,0
95324,843,-8176,146,-2,-7,-4,0
95329,880,-8175,137,-2,-6,-3,0
95334,906,-8176,139,-3,-6,-3,0
95339,927,-8177,147,-3,-5,-3,0
95345,944,-8176,159,-3,-4,-3,0
95350,963,-8174,168,-3,-3,-3,0
95355,985,-8173,175,-3,-3,-3,0
95361,1003,-8172,176,-3,-2,-2,0
95366,1020,-8172,167,-3,-2,-2,0
95372,1028,-8171,163,-3,-2,-2,0
95377,1022,-8172,151,-3,-1,-2,0
95383,1007,-8174,143,-3,0,-2,0
95388,989,-8174,150,-3,1,-2,0
95393,970,-8176,156,-3,2,-2,0
95398,953,-8179,168,-3,3,-2,0
95403,937,-8178,188,-3,3,-2,0
95408,923,-8178,199,-3,4,-1,0
95413,909,-8178,212,-3,4,-1,0
95418,898,-8177,211,-3,4,-1,0
95423,878,-8179,196,-4,3,-2,0
95427,854,-8182,175,-3,2,-2,0
95432,831,-8183,147,-3,0,-1,0
95437,804,-8180,114,-3,-1,-1,0
95442,772,-8178,77,-4,-2,-1,0
95447,739,-8178,56,-4,-2,-1,0
95452,711,-8178,43,-4,-2,-2,0
95457,689,-8181,40,-4,-3,-2,0
95462,667,-8182,50,-4,-3,-2,0
95467,644,-8181,59,-4,-3,-2,0
95472,625,-8179,74,-4,-2,-1,0
95478,612,-8180,94,-4,0,-1,0
95483,599,-8180,112,-4,2,-1,0
95489,587,-8179,125,-4,4,-2,0
95493,579,-8176,127,-4,6,-2,0
95498,569,-8175,112,-4,7,-2,0
95504,560,-8175,78,-4,8,-2,0
95509,554,-8176,36,-4,9,-2,0
95513,558,-8178,-13,-4,10,-1,0
95519,576,-8177,-56,-4,11,-1,0
95525,608,-8177,-97,-4,11,-1,0
95531,648,-8178,-131,-4,10,-1,0
95536,693,-8175,-159,-4,9,-1,0
95542,732,-8172,-183,-4,9,-1,0
95548,762,-8172,-201,-4,9,-1,0
95553,788,-8171,-211,-4,10,-1,0
95559,810,-8170,-228,-3,11,-1,0
95564,827,-8169,-241,-3,13,-1,0
95569,847,-8171,-253,-3,13,-1,0
95573,858,-8170,-269,-3,13,-1,0
95578,864,-8172,-274,-3,13,-1,0
95583,862,-8174,-275,-3,14,-1,0
95588,851,-8171,-268,-3,16,-1,0
95593,838,-8173,-248,-3,17,-1,0
95598,824,-8173,-226,-3,19,-1,0
95603,804,-8174,-207,-3,19,-1,0
95608,780,-8172,-190,-3,19,-1,0
95613,759,-8175,-174,-3,19,0,0
95617,747,-8179,-167,-3,18,0,0
95623,746,-8179,-168,-3,16,0,0
95628,751,-8179,-177,-3,14,0,0
95632,762,-8180,-192,-3,12,0,0
95637,773,-8181,-199,-3,10,0,0
95642,775,-8180,-202,-3,9,0,0
95647,768,-8180,-199,-3,8,-1,0
95652,752,-8181,-189,-3,8,-1,0
95657,724,-8182,-182,-3,7,-1,0
95662,691,-8182,-175,-2,5,-1,0
95667,654,-8179,-176,-2,4,-1,0
95672,624,-8179,-183,-2,2,-1,0
95677,600,-8181,-194,-2,0,-1,0
95682,586,-8183,-201,-2,0,-1,0
95687,577,-8183,-207,-2,0,-1,0
95692,577,-8182,-210,-2,0,-1,0
95697,589,-8183,-201,-2,-1,-1,0
95703,585,-8182,-204,-2,-3,-1,0
95708,569,-8179,-189,-2,-3,-1,0
95713,560,-8179,-172,-2,-2,-1,0
95719,562,-8177,-150,-2,0,-1,0
95724,569,-8179,-142,-2,0,-1,0
95728,580,-8173,-142,-2,0,-1,0
95733,598,-8173,-166,-2,-1,-1,0
95739,621,-8174,-218,-2,-2,-1,0
95745,645,-8173,-276,-1,-3,-1,0
95749,666,-8178,-340,-1,-5,-1,0
95754,685,-8180,-390,-1,-6,-1,0
95760,708,-8179,-422,-1,-7,-1,0
95765,741,-8178,-434,-1,-8,-1,0
95770,777,-8177,-428,-1,-10,-1,0
95775,814,-8174,-400,-1,-14,-1,0
95781,851,-8171,-365,-1,-18,-1,0
95786,890,-8171,-326,0,-23,-1,0
95791,912,-8173,-281,0,-28,-1,0
95795,900,-8173,-250,0,-33,-1,0
95800,867,-8172,-234,0,-35,-1,0
95805,814,-8175,-225,0,-34,-1,0
95810,751,-8178,-225,0,-33,-1,0
95815,695,-8183,-222,0,-32,-1,0
95820,651,-8188,-212,0,-31,-1,0
95825,626,-8191,-197,0,-30,-1,0
95830,614,-8192,-169,0,-29,-1,0
95835,614,-8190,-126,0,-27,-1,0
95840,628,-8190,-83,0,-26,-1,0
95845,643,-8191,-43,0,-24,-1,0
95851,657,-8189,-17,0,-22,-1,0
95855,667,-8188,4,0,-21,-1,0
95860,669,-8186,11,0,-20,-1,0
95865,664,-8185,7,-1,-19,-1,0
95871,654,-8186,-1,-1,-17,-1,0
95876,644,-8186,-15,-1,-15,-1,0
95880,638,-8186,-27,-1,-12,-1,0
95884,635,-8187,-28,-1,-8,-1,0
95889,645,-8184,-12,-1,-5,-1,0
95894,663,-8184,25,-1,-1,-1,0
95899,692,-8183,81,-1,1,-1,0
95905,727,-8180,154,-2,3,-1,0
95910,763,-8178,233,-2,4,-1,0
95914,802,-8177,307,-2,4,-1,0
95919,837,-8178,360,-2,4,-1,0
95924,857,-8177,386,-2,4,0,0
95928,861,-8177,385,-2,5,0,0
95933,853,-8178,363,-2,7,0,0
95937,837,-8180,322,-2,11,0,0
95941,824,-8181,274,-2,14,0,0
95946,825,-8179,220,-2,17,0,0
95950,837,-8179,165,-3,19,0,0
95954,861,-8177,105,-2,18,0,0
95958,890,-8174,45,-2,17,0,0
95963,917,-8174,-17,-2,15,0,0
95967,933,-8175,-74,-2,12,0,0
95972,931,-8176,-119,-2,9,0,0
95977,902,-8177,-150,-2,6,0,0
95982,856,-8175,-165,-2,4,0,0
95986,797,-8175,-154,-2,4,0,0
95991,736,-8176,-126,-2,5,0,0
95995,682,-8180,-86,-2,7,0,0
96001,633,-8184,-37,-2,11,0,0
96006,592,-8184,8,-2,15,0,0
96010,564,-8186,43,-2,21,0,0
96014,547,-8190,63,-2,27,0,0
96019,538,-8190,68,-2,33,0,0
96024,534,-8188,59,-2,38,0,0
96029,527,-8189,47,-3,42,0,0
96033,518,-8189,26,-3,45,0,0
96038,511,-8189,1,-3,46,0,0
96043,510,-8188,-22,-3,46,0,0
96049,512,-8186,-40,-3,44,0,0
96053,522,-8186,-42,-3,42,0,0
96058,536,-8186,-45,-3,40,0,0
96064,556,-8183,-36,-3,39,0,0
96068,572,-8179,-26,-2,40,0,0
96073,588,-8179,-21,-2,42,0,0
96078,594,-8183,-35,-2,44,0,0
96083,594,-8182,-59,-2,47,0,0
96088,586,-8182,-91,-2,49,0,0
96093,555,-8183,-123,-2,51,0,0
96099,507,-8186,-144,-3,54,0,0
96105,439,-8190,-144,-3,58,0,0
96110,366,-8189,-118,-3,64,0,0
96115,283,-8191,-72,-3,73,0,0
96120,206,-8190,-20,-3,83,0,0
96126,133,-8190,35,-3,93,0,0
96131,78,-8187,82,-3,102,0,0
96136,34,-8185,112,-3,110,0,0
96141,11,-8185,125,-3,117,0,0
96147,-1,-8186,121,-3,122,0,0
96152,-7,-8187,108,-3,126,0,0
96157,-1,-8188,89,-4,130,-1,0
96163,12,-8190,78,-4,133,-1,0
96169,36,-8189,76,-4,135,-1,0
96174,61,-8189,96,-4,137,-1,0
96180,93,-8187,136,-4,139,-1,0
96185,132,-8185,194,-4,143,-1,0
96191,165,-8185,271,-4,148,-1,0
96195,185,-8187,340,-4,153,-1,0
96201,213,-8186,388,-4,160,-1,0
96207,257,-8185,407,-4,165,-1,0
96212,322,-8184,392,-4,169,0,0
96218,416,-8182,359,-4,169,0,0
96223,544,-8183,311,-4,166,0,0
96229,696,-8181,271,-4,160,0,0
96234,871,-8178,237,-4,152,0,0
96239,1049,-8175,231,-4,140,0,0
96244,1222,-8171,241,-4,124,0,0
96250,1392,-8167,258,-4,105,0,0
96255,1505,-8162,291,-3,86,0,0
96260,1554,-8162,324,-3,66,0,0
96264,1559,-8163,353,-3,49,0,0
96269,1503,-8164,357,-2,35,0,0
96273,1415,-8169,346,-2,23,0,0
96277,1303,-8175,314,-2,12,0,0
96282,1173,-8180,265,-2,5,0,0
96287,1048,-8181,206,-2,1,0,0
96291,935,-8182,133,-2,1,0,0
96295,838,-8183,81,-2,2,0,0
96300,758,-8181,33,-2,4,0,0
96304,687,-8181,11,-2,7,0,0
96309,617,-8180,13,-2,10,0,0
96313,549,-8180,12,-2,14,0,0
96317,496,-8181,20,-2,20,0,0
96322,463,-8180,8,-2,25,0,0
96326,492,-8182,-13,-2,27,0,0
96331,611,-8179,-47,-2,23,0,0
96335,778,-8179,-74,-2,11,0,0
96340,933,-8177,-83,-1,-6,0,0
96344,1073,-8169,-105,-1,-21,0,0
96348,1179,-8167,-109,-1,-34,0,0
96353,1218,-8167,-109,0,-45,-1,0
96358,1227,-8170,-111,0,-54,-1,0
96363,1184,-8173,-89,0,-60,-1,0
96368,1097,-8172,-55,0,-64,0,0
96373,1000,-8173,-3,0,-65,0,0
96378,886,-8174,54,0,-63,0,0
96383,768,-8176,109,0,-57,0,0
96388,657,-8178,162,0,-49,0,0
96393,550,-8180,215,-1,-39,0,0
96398,451,-8179,268,-1,-28,0,0
96403,379,-8181,322,-1,-18,0,0
96409,343,-8182,382,-2,-8,0,0
96413,354,-8178,434,-2,0,1,0
96418,417,-8175,472,-2,3,1,0
96423,511,-8169,488,-2,2,1,0
96428,621,-8168,489,-2,-1,1,0
96433,732,-8170,479,-2,-5,1,0
96438,826,-8172,455,-2,-8,1,0
96443,893,-8172,426,-2,-12,1,0
96448,940,-8174,400,-2,-15,1,0
96453,961,-8175,376,-2,-18,1,0
96458,961,-8178,362,-2,-21,1,0
96463,937,-8179,355,-2,-24,1,0
96468,896,-8177,356,-2,-26,1,0
96473,842,-8177,364,-3,-27,1,0
96478,776,-8176,379,-3,-27,1,0
96483,706,-8179,396,-3,-26,1,0
96488,638,-8183,409,-3,-24,1,0
96493,583,-8184,421,-3,-21,1,0
96498,537,-8184,424,-3,-19,1,0
96503,495,-8184,427,-3,-17,1,0
96508,457,-8185,425,-3,-15,1,0
96513,422,-8185,420,-3,-12,1,0
96518,400,-8186,412,-4,-9,1,0
96523,390,-8190,406,-4,-6,1,0
96528,394,-8189,398,-4,-4,1,0
96533,418,-8190,389,-4,-2,1,0
96538,461,-8187,372,-4,-2,1,0
96543,514,-8185,357,-4,-3,1,0
96548,567,-8186,336,-4,-4,1,0
96553,614,-8185,312,-4,-6,1,0
96558,644,-8183,289,-4,-7,1,0
96563,649,-8181,274,-4,-7,1,0
96568,634,-8182,259,-4,-7,1,0
96573,604,-8182,243,-4,-6,1,0
96578,559,-8181,217,-4,-4,1,0
96583,510,-8180,175,-4,-3,1,0
96588,462,-8179,114,-4,-3,1,0
96593,422,-8179,41,-4,-4,1,0
96598,380,-8180,-33,-4,-5,1,0
96603,356,-8182,-108,-4,-6,1,0
96608,348,-8181,-172,-4,-6,1,0
96613,354,-8181,-219,-4,-6,1,0
96618,375,-8178,-243,-4,-5,1,0
96623,394,-8176,-237,-3,-5,1,0
96628,424,-8175,-215,-3,-5,1,0
96633,447,-8176,-171,-3,-5,1,0
96638,463,-8177,-124,-3,-6,1,0
96643,474,-8177,-81,-3,-7,1,0
96648,481,-8176,-44,-3,-8,1,0
96653,487,-8180,-29,-3,-10,1,0
96658,487,-8183,-27,-3,-13,1,0
96663,491,-8186,-34,-3,-15,1,0
96669,500,-8188,-45,-3,-16,1,0
96675,509,-8187,-50,-3,-16,1,0
96680,532,-8185,-52,-3,-15,1,0
96686,561,-8183,-49,-3,-15,1,0
96692,592,-8181,-54,-3,-15,1,0
96697,624,-8182,-61,-3,-16,1,0
96703,639,-8184,-80,-3,-18,1,0
96709,641,-8186,-88,-3,-20,1,0
96714,632,-8187,-84,-3,-21,1,0
96720,614,-8183,-61,-3,-22,1,0
96726,592,-8181,-23,-3,-22,1,0
96732,569,-8178,14,-3,-23,1,0
96737,545,-8176,52,-3,-23,1,0
96743,521,-8176,72,-3,-24,1,0
96748,496,-8175,77,-2,-26,1,0
96754,472,-8177,66,-2,-28,1,0
96759,448,-8176,40,-2,-30,1,0
96764,425,-8180,12,-2,-32,1,0
96769,401,-8187,-21,-2,-33,1,0
96774,381,-8189,-48,-2,-32,1,0
96779,365,-8189,-68,-2,-31,1,0
96784,353,-8189,-74,-2,-30,1,0
96789,344,-8191,-78,-2,-28,1,0
96794,331,-8189,-72,-2,-27,1,0
96799,312,-8189,-52,-2,-26,1,0
96804,288,-8190,-29,-2,-23,1,0
96809,260,-8188,14,-2,-20,1,0
96814,241,-8186,52,-3,-16,1,0
96819,242,-8183,79,-3,-13,1,0
96824,252,-8180,103,-3,-11,1,0
96828,271,-8180,108,-3,-10,1,0
96833,296,-8180,105,-3,-11,1,0
96837,322,-8183,97,-3,-11,1,0
96842,345,-8183,89,-3,-10,1,0
96847,361,-8183,85,-3,-9,1,0
96852,372,-8182,89,-3,-8,1,0
96857,380,-8181,101,-3,-7,1,0
96862,386,-8182,110,-3,-7,1,0
96867,391,-8182,119,-3,-8,1,0
96872,394,-8180,117,-3,-9,1,0
96877,394,-8181,103,-3,-10,1,0
96882,383,-8183,85,-3,-10,1,0
96886,369,-8184,62,-3,-9,1,0
96891,358,-8188,46,-3,-8,1,0
96896,345,-8188,34,-3,-7,1,0
96901,334,-8189,30,-3,-6,1,0
96905,334,-8186,35,-3,-6,1,0
96910,339,-8187,43,-3,-6,1,0
96915,350,-8185,46,-3,-7,1,0
96920,366,-8185,46,-3,-8,1,0
96925,387,-8182,40,-3,-8,1,0
96930,409,-8182,28,-3,-9,1,0
96935,427,-8182,11,-3,-10,0,0
96939,435,-8181,-6,-3,-12,0,0
96945,436,-8181,-21,-3,-13,0,0
96950,424,-8180,-22,-3,-13,0,0
96955,400,-8182,-15,-3,-13,0,0
96959,369,-8184,-1,-3,-12,0,0
96965,334,-8184,15,-3,-10,0,0
96969,300,-8185,35,-3,-8,0,0
96973,271,-8187,51,-3,-6,0,0
96978,252,-8189,62,-3,-4,0,0
96983,241,-8187,66,-3,-2,0,0
96988,242,-8187,58,-3,0,0,0
96992,261,-8188,43,-3,1,0,0
96996,289,-8189,24,-3,1,0,0
97001,321,-8189,5,-3,1,0,0
97006,352,-8192,-16,-3,0,0,0
97011,377,-8191,-37,-3,-1,0,0
97015,395,-8187,-54,-3,-1,0,0
97021,407,-8187,-69,-3,-2,0,0
97026,410,-8186,-82,-3,-2,0,0
97031,410,-8186,-96,-3,-3,0,0
97035,406,-8185,-106,-3,-4,0,0
97041,404,-8184,-114,-3,-5,0,0
97045,403,-8185,-128,-3,-6,0,0
97050,400,-8184,-143,-3,-7,0,0
97055,395,-8182,-157,-3,-8,0,0
97060,390,-8182,-171,-3,-8,0,0
97065,380,-8183,-177,-3,-8,0,0
97070,367,-8183,-178,-2,-8,0,0
97075,350,-8181,-176,-3,-8,0,0
97080,331,-8184,-164,-3,-7,0,0
97085,317,-8185,-150,-2,-6,0,0
97090,314,-8185,-135,-3,-5,0,0
97095,316,-8186,-125,-2,-4,0,0
97100,324,-8186,-121,-2,-3,0,0
97105,338,-8187,-118,-2,-3,0,0
97110,351,-8187,-122,-2,-4,0,0
97115,363,-8189,-123,-2,-4,0,0
97120,372,-8188,-125,-2,-5,0,0
97126,379,-8188,-131,-2,-6,0,0
97131,384,-8191,-132,-2,-7,0,0
97135,390,-8192,-134,-2,-8,0,0
97140,390,-8190,-133,-2,-10,0,0
97145,380,-8189,-132,-2,-11,0,0
97150,374,-8188,-127,-2,-11,0,0
97155,363,-8187,-118,-2,-11,0,0
97159,356,-8187,-104,-2,-11,0,0
97164,355,-8190,-90,-2,-10,0,0
97169,357,-8187,-75,-2,-10,0,0
97174,367,-8185,-68,-2,-9,0,0
97179,388,-8187,-60,-2,-9,0,0
97185,408,-8189,-59,-2,-9,0,0
97189,427,-8191,-60,-2,-10,0,0
97195,447,-8190,-60,-2,-10,0,0
97200,464,-8187,-66,-2,-11,0,0
97205,473,-8189,-71,-2,-12,0,0
97210,471,-8190,-84,-2,-13,0,0
97214,456,-8188,-91,-2,-14,-1,0
97219,432,-8188,-89,-2,-15,-1,0
97225,402,-8188,-87,-2,-15,-1,0
97230,373,-8189,-79,-2,-15,-1,0
97235,348,-8189,-72,-2,-15,-1,0
97240,327,-8190,-60,-2,-15,-1,0
97246,320,-8190,-46,-2,-14,-1,0
97251,321,-8191,-35,-2,-14,-1,0
97255,328,-8190,-28,-2,-14,-1,0
97260,344,-8191,-19,-2,-13,-1,0
97265,362,-8193,-9,-2,-12,-1,0
97271,384,-8197,1,-2,-11,-1,0
97275,409,-8197,11,-2,-11,-1,0
97280,432,-8198,18,-2,-11,-1,0
97286,444,-8197,23,-2,-11,-1,0
97291,453,-8197,29,-2,-10,-1,0
97296,456,-8198,29,-2,-10,-1,0
97300,452,-8200,27,-2,-10,-1,0
97305,452,-8198,19,-2,-9,-1,0
97310,457,-8199,10,-2,-9,0,0
97315,469,-8199,-1,-2,-10,0,0
97320,486,-8196,-2,-2,-10,0,0
97325,504,-8194,-1,-2,-10,0,0
97330,530,-8193,1,-2,-10,0,0
97335,554,-8194,3,-2,-10,0,0
97340,573,-8194,10,-2,-10,0,0
97344,583,-8194,12,-2,-11,0,0
97349,584,-8188,12,-2,-11,0,0
97354,580,-8189,10,-2,-11,0,0
97359,568,-8190,10,-2,-11,0,0
97363,555,-8192,13,-2,-10,0,0
97369,542,-8190,16,-2,-10,0,0
97374,527,-8188,22,-2,-9,0,0
97380,513,-8187,27,-2,-8,0,0
97386,498,-8186,36,-2,-6,0,0
97392,486,-8185,45,-2,-5,0,0
97396,474,-8185,47,-2,-4,0,0
97402,461,-8184,48,-2,-3,0,0
97408,439,-8187,40,-2,-2,0,0
97413,420,-8187,26,-2,-1,0,0
97418,406,-8189,11,-2,0,0,0
97423,400,-8191,-3,-2,0,0,0
97429,395,-8190,-14,-2,-1,0,0
97435,393,-8190,-26,-2,-1,0,0
97441,391,-8186,-42,-2,-1,0,0
97446,388,-8184,-60,-2,-2,0,0
97452,383,-8184,-74,-2,-2,0,0
97457,377,-8185,-88,-2,-2,0,0
97463,362,-8185,-102,-2,-2,0,0
97468,346,-8186,-108,-2,-2,0,0
97473,326,-8186,-105,-2,-2,0,0
97478,311,-8188,-103,-2,-2,0,0
97483,302,-8189,-97,-2,-2,0,0
97488,298,-8188,-96,-2,-2,0,0
97493,299,-8187,-98,-2,-2,0,0
97498,303,-8186,-104,-2,-2,0,0
97503,305,-8186,-109,-2,-2,0,0
97508,310,-8187,-114,-2,-2,0,0
97513,317,-8185,-112,-2,-2,0,0
97517,325,-8182,-108,-2,-2,0,0
97522,331,-8181,-107,-2,-3,-1,0
97527,338,-8181,-108,-2,-5,-1,0
97532,345,-8184,-105,-2,-6,-1,0
97537,349,-8187,-101,-2,-7,-1,0
97543,353,-8189,-105,-2,-8,-1,0
97548,356,-8189,-108,-2,-8,-1,0
97553,361,-8189,-103,-2,-8,-1,0
97557,367,-8187,-89,-2,-7,-1,0
97562,373,-8188,-74,-2,-7,-1,0
97566,375,-8185,-56,-2,-7,-1,0
97570,374,-8184,-37,-2,-7,-1,0
97574,372,-8185,-27,-2,-7,-1,0
97579,370,-8184,-21,-2,-6,-1,0
97584,371,-8185,-13,-2,-6,-1,0
97588,370,-8184,-15,-2,-6,-1,0
97594,369,-8185,-17,-2,-5,-1,0
97598,371,-8188,-11,-2,-4,-1,0
97602,380,-8185,-3,-2,-3,-1,0
97607,390,-8185,8,-2,-3,-1,0
97611,401,-8185,11,-2,-2,-1,0
97615,408,-8187,21,-2,-2,-1,0
97619,413,-8185,21,-2,-2,-1,0
97623,414,-8184,23,-2,-2,-1,0
97627,415,-8183,19,-2,-2,-1,0
97632,420,-8186,13,-2,-2,-1,0
97637,429,-8186,12,-2,-2,-1,0
97642,436,-8187,11,-2,-1,-1,0
97647,442,-8189,18,-2,-1,-1,0
97652,448,-8189,29,-2,-1,-1,0
97657,453,-8188,36,-2,-1,-1,0
97662,458,-8188,45,-2,-1,-1,0
97667,463,-8188,47,-2,-1,-1,0
97672,461,-8187,39,-2,-1,-1,0
97677,458,-8186,27,-2,-2,-1,0
97682,461,-8186,11,-2,-2,-1,0
97687,467,-8185,-6,-2,-2,-1,0
97692,474,-8188,-21,-2,-2,-1,0
97697,477,-8189,-29,-2,-2,-1,0
97703,481,-8189,-29,-2,-2,-1,0
97709,485,-8190,-32,-2,-2,-1,0
97714,484,-8190,-23,-2,-2,-1,0
97719,483,-8190,-24,-2,-2,-1,0
97723,480,-8189,-31,-2,-2,-1,0
97727,477,-8190,-32,-2,-2,-1,0
97732,474,-8190,-32,-2,-2,-1,0
97737,469,-8192,-34,-2,-2,-1,0
97742,468,-8194,-33,-2,-2,-1,0
97747,468,-8194,-33,-2,-2,-1,0
97752,475,-8192,-26,-2,-1,-1,0
97757,481,-8193,-17,-2,-1,-1,0
97762,490,-8191,-8,-2,-1,-1,0
97767,490,-8188,-4,-2,-2,0,0
97772,488,-8190,-11,-2,-2,0,0
97777,481,-8192,-22,-2,-2,0,0
97782,479,-8192,-37,-2,-2,-1,0
97787,475,-8191,-53,-2,-2,0,0
97792,472,-8191,-59,-2,-2,0,0
97797,469,-8189,-59,-2,-2,0,0
97802,468,-8188,-55,-2,-2,0,0
97807,469,-8186,-51,-2,-2,-1,0
97812,469,-8186,-47,-2,-2,0,0
97817,466,-8185,-46,-2,-3,0,0
97822,462,-8186,-45,-2,-3,-1,0
97827,457,-8187,-46,-2,-4,-1,0
97833,451,-8185,-53,-2,-3,0,0
97837,446,-8184,-52,-2,-3,-1,0
97842,448,-8183,-46,-2,-2,0,0
97848,451,-8185,-33,-2,-2,0,0
97853,450,-8188,-15,-2,-2,0,0
97857,454,-8188,-5,-2,-2,0,0
97862,457,-8189,-2,-2,-3,0,0
97867,460,-8190,0,-2,-3,0,0
97872,464,-8192,-2,-2,-4,0,0
97877,465,-8196,-15,-2,-4,0,0
97882,464,-8196,-21,-2,-4,-1,0
97888,463,-8195,-24,-2,-4,0,0
97893,460,-8193,-23,-2,-4,-1,0
97897,458,-8191,-18,-2,-4,0,0
97902,456,-8189,-8,-2,-5,0,0
97907,455,-8189,-4,-2,-5,0,0
97912,455,-8190,-6,-2,-6,0,0
97917,456,-8192,-12,-2,-6,0,0
97922,453,-8193,-23,-2,-5,0,0
97927,452,-8192,-30,-2,-5,0,0
97933,453,-8191,-35,-2,-4,0,0
97937,451,-8189,-34,-2,-3,0,0
97942,446,-8187,-28,-2,-3,0,0
97947,439,-8187,-22,-2,-3,-1,0
97953,430,-8183,-13,-2,-3,-1,0
97958,418,-8184,-6,-2,-2,0,0
97963,406,-8188,-5,-2,-2,0,0
97969,404,-8188,-11,-2,-1,0,0
97974,408,-8189,-21,-2,-1,0,0
97979,417,-8188,-30,-2,-1,0,0
97984,425,-8186,-39,-2,-1,0,0
97990,438,-8187,-46,-2,-2,-1,0
97995,446,-8189,-52,-2,-2,-1,0
98000,451,-8189,-60,-2,-3,-1,0
98006,452,-8190,-62,-2,-3,-1,0
98011,448,-8190,-62,-2,-3,-1,0
98016,444,-8190,-59,-2,-3,-1,0
98021,439,-8189,-53,-2,-3,-1,0
98027,438,-8189,-48,-2,-3,-1,0
98032,441,-8189,-45,-2,-3,-1,0
98037,443,-8190,-37,-2,-3,-1,0
98042,447,-8191,-35,-2,-2,-1,0
98048,453,-8191,-32,-2,-2,0,0
98053,458,-8189,-32,-2,-2,-1,0
98057,464,-8187,-39,-2,-2,-1,0
98062,466,-8185,-44,-2,-2,0,0
98067,466,-8185,-44,-2,-2,0,0
98072,461,-8189,-46,-2,-2,0,0
98077,455,-8191,-40,-2,-2,-1,0
98082,454,-8193,-40,-2,-2,0,0
98088,455,-8194,-39,-2,-2,0,0
98093,456,-8190,-37,-2,-2,0,0
98097,459,-8190,-35,-2,-2,0,0
98103,461,-8192,-36,-2,-2,0,0
98108,465,-8195,-37,-2,-2,0,0
98113,470,-8192,-42,-2,-2,-1,0
98117,474,-8192,-45,-2,-2,0,0
98122,477,-8191,-46,-2,-3,0,0
98127,478,-8191,-44,-2,-3,0,0
98132,475,-8194,-42,-2,-3,0,0
98136,470,-8194,-41,-2,-3,0,0
98141,465,-8196,-41,-2,-3,-1,0
98146,459,-8195,-39,-2,-3,-1,0
98151,455,-8193,-35,-2,-3,-1,0
98156,453,-8189,-32,-2,-3,-1,0
98162,448,-8188,-30,-2,-2,-1,0
98167,448,-8187,-30,-2,-2,-1,0
98172,448,-8186,-30,-2,-2,0,0
98177,447,-8188,-33,-2,-2,-1,0
98182,445,-8186,-35,-2,-2,-1,0
98188,448,-8187,-38,-2,-2,-1,0
98193,451,-8187,-39,-2,-2,-1,0
98198,454,-8186,-40,-2,-2,-1,0
98203,457,-8187,-42,-2,-3,-1,0
98208,460,-8187,-47,-2,-3,-1,0
98213,465,-8188,-49,-2,-4,-1,0
98218,469,-8189,-57,-2,-4,0,0
98223,475,-8189,-63,-2,-4,-1,0
98228,479,-8187,-67,-2,-4,0,0
98233,478,-8185,-68,-2,-4,0,0
98237,477,-8185,-66,-2,-4,-1,0
98242,479,-8181,-65,-2,-4,-1,0
98248,481,-8181,-61,-2,-4,-1,0
98253,485,-8180,-56,-2,-4,0,0
98257,485,-8183,-52,-2,-4,0,0
98263,485,-8186,-50,-2,-4,0,0
98269,487,-8189,-50,-2,-4,0,0
98275,488,-8191,-47,-2,-4,0,0
98280,486,-8191,-41,-2,-3,0,0
98286,484,-8191,-33,-2,-3,0,0
98292,486,-8190,-21,-2,-3,0,0
98297,485,-8190,-16,-2,-3,0,0
98303,485,-8190,-15,-2,-3,0,0
98309,487,-8190,-19,-2,-3,0,0
98315,487,-8189,-24,-2,-3,0,0
98320,488,-8191,-36,-2,-3,0,0
98326,488,-8192,-45,-2,-3,0,0
98332,486,-8194,-47,-2,-3,0,0
98337,481,-8194,-44,-2,-3,0,0
98343,477,-8194,-35,-2,-3,0,0
98349,473,-8191,-27,-2,-3,0,0
98355,467,-8189,-18,-2,-2,0,0
98360,463,-8187,-14,-2,-2,0,0
98365,458,-8189,-9,-2,-2,0,0
98370,453,-8187,-3,-2,-2,0,0
98375,451,-8186,-4,-2,-2,0,0
98379,448,-8184,-9,-2,-2,0,0
98384,446,-8184,-12,-2,-2,0,0
98389,443,-8186,-14,-2,-2,0,0
98394,442,-8185,-11,-2,-2,0,0
98398,437,-8184,-7,-2,-2,0,0
98403,433,-8184,4,-2,-1,0,0
98408,427,-8184,8,-2,-1,0,0
98412,423,-8185,6,-2,-1,0,0
98416,421,-8187,-3,-2,-1,0,0
98422,418,-8186,-5,-2,-1,0,0
98427,424,-8184,-9,-2,-1,0,0
98432,428,-8185,-14,-2,-1,0,0
98436,429,-8185,-22,-2,-1,0,0
98442,431,-8187,-24,-2,-1,0,0
98446,430,-8187,-25,-2,-2,0,0
98451,426,-8187,-27,-2,-2,-1,0
98457,420,-8188,-30,-2,-2,-1,0
98462,417,-8187,-36,-2,-2,-1,0
98467,415,-8187,-43,-2,-2,-1,0
98473,416,-8187,-48,-2,-3,-1,0
98477,418,-8187,-53,-2,-3,-1,0
98482,422,-8188,-56,-2,-3,-1,0
98488,428,-8188,-60,-2,-3,-1,0
98494,434,-8186,-58,-2,-3,-1,0
98498,438,-8188,-55,-2,-3,-1,0
98504,440,-8188,-48,-2,-3,-1,0
98509,439,-8188,-44,-2,-3,-1,0
98514,437,-8187,-40,-2,-3,-1,0
98519,440,-8185,-36,-2,-3,-1,0
98524,442,-8186,-33,-2,-3,-1,0
98529,446,-8185,-28,-2,-3,-1,0
98535,452,-8185,-29,-2,-4,-1,0
98539,459,-8185,-28,-2,-4,-1,0
98545,459,-8186,-32,-2,-4,-1,0
98550,455,-8187,-34,-2,-4,-1,0
98555,450,-8189,-33,-2,-4,-1,0
98560,448,-8190,-30,-2,-4,-1,0
98564,446,-8192,-28,-2,-4,-1,0
98569,442,-8193,-22,-2,-3,-1,0
98575,443,-8194,-19,-2,-3,-1,0
98581,447,-8193,-22,-2,-3,-1,0
98587,455,-8192,-26,-2,-3,-1,0
98594,468,-8190,-28,-2,-3,-1,0
98598,481,-8187,-26,-2,-3,-1,0
98605,488,-8188,-29,-2,-3,-1,0
98611,488,-8189,-31,-2,-4,-1,0
98617,487,-8189,-35,-2,-4,-1,0
98623,484,-8188,-31,-2,-3,-1,0
98629,480,-8187,-29,-2,-3,-1,0
98635,476,-8189,-28,-2,-3,-1,0
98641,474,-8191,-27,-2,-3,-1,0
98646,472,-8190,-29,-2,-3,-1,0
98653,475,-8193,-35,-2,-4,-1,0
98658,478,-8194,-46,-2,-4,-1,0
98665,481,-8191,-58,-2,-4,-1,0
98670,479,-8189,-68,-2,-4,-1,0
98675,479,-8189,-67,-2,-4,-1,0
98680,480,-8190,-65,-2,-4,-1,0
98685,480,-8191,-57,-2,-4,-1,0
98690,480,-8191,-48,-2,-4,-1,0
98695,480,-8190,-37,-2,-4,-1,0
98700,478,-8190,-33,-2,-4,-1,0
98705,477,-8189,-29,-2,-4,-1,0
98710,476,-8186,-26,-2,-5,-1,0
98716,475,-8186,-23,-2,-5,-1,0
98721,475,-8187,-22,-2,-5,-1,0
98726,474,-8186,-20,-2,-5,-1,0
98731,474,-8184,-9,-2,-5,-1,0
98736,476,-8184,2,-2,-5,-1,0
98742,481,-8184,9,-2,-5,-1,0
98746,485,-8186,19,-2,-5,-1,0
98751,493,-8185,23,-2,-5,-1,0
98756,501,-8186,23,-2,-5,-1,0
98761,509,-8185,25,-2,-5,-1,0
98766,514,-8184,24,-2,-5,-1,0
98771,520,-8183,22,-2,-4,0,0
98776,521,-8184,19,-2,-4,0,0
98781,522,-8184,23,-2,-4,0,0
98786,518,-8183,31,-2,-4,0,0
98789,514,-8182,40,-2,-3,0,0
98794,510,-8183,48,-2,-2,0,0
98798,508,-8185,56,-2,-2,0,0
98803,510,-8186,60,-2,-2,0,0
98806,511,-8188,65,-2,-1,0,0
98812,515,-8190,68,-2,-1,0,0
98817,516,-8188,65,-2,-1,0,0
98822,517,-8186,64,-2,-1,0,0
98826,519,-8186,61,-2,0,0,0
98831,516,-8186,54,-2,0,0,0
98835,517,-8186,48,-2,0,0,0
98838,516,-8188,48,-2,0,0,0
98842,517,-8188,47,-2,0,0,0
98846,514,-8186,42,-2,0,0,0
98850,511,-8185,37,-2,0,0,0
98854,510,-8184,35,-2,0,0,0
98857,508,-8183,32,-2,0,0,0
98861,506,-8184,31,-2,0,0,0
98865,504,-8183,32,-2,1,0,0
98869,501,-8183,36,-2,1,0,0
98873,499,-8186,36,-2,1,0,0
98877,494,-8187,37,-2,0,0,0
98881,486,-8186,35,-2,0,0,0
98884,479,-8185,28,-2,0,0,0
98888,474,-8185,22,-2,0,0,0
98892,472,-8186,20,-2,0,0,0
98896,474,-8187,17,-2,0,0,0
98900,475,-8186,10,-2,-1,0,0
98904,476,-8186,2,-2,-1,0,0
98907,479,-8189,1,-2,-1,0,0
98911,476,-8190,1,-2,-1,0,0
98915,473,-8190,7,-2,-1,0,0
98919,466,-8189,12,-2,-1,0,0
98923,459,-8188,12,-2,-1,0,0
98927,456,-8188,14,-2,-2,0,0
98931,457,-8189,12,-2,-1,0,0
98936,459,-8193,11,-2,-1,0,0
98941,460,-8194,10,-2,-1,0,0
98946,462,-8194,8,-2,-1,0,0
98951,464,-8193,5,-2,-1,0,0
98956,464,-8192,5,-2,-1,0,0
98961,464,-8189,8,-2,-1,0,3
98966,464,-8189,12,-2,-1,0,3
98971,461,-8191,10,-2,-1,0,3
98976,458,-8190,4,-2,-1,0,3
98981,457,-8188,-4,-2,-2,0,3
98986,459,-8185,-14,-2,-2,0,3
98991,461,-8187,-20,-2,-1,0,3
98996,469,-8187,-18,-2,-1,0,3
99001,475,-8184,-19,-2,-1,0,3
99006,478,-8183,-20,-2,-2,0,3
99011,482,-8184,-19,-2,-2,0,3
99016,475,-8185,-20,-2,-1,0,3
99021,467,-8183,-20,-2,-1,0,3
99026,459,-8181,-20,-2,-1,0,3
99031,452,-8181,-18,-2,0,0,3
99036,450,-8181,-19,-2,0,0,3
99041,449,-8181,-22,-2,0,0,3
99046,452,-8181,-24,-2,0,0,3
99051,454,-8182,-23,-2,0,0,3
99056,456,-8183,-24,-2,0,0,3
99061,456,-8183,-30,-2,1,0,3
99066,456,-8182,-32,-2,0,0,3
99071,454,-8179,-36,-2,0,0,3
99076,450,-8178,-39,-2,0,0,3
99081,446,-8179,-43,-2,-1,0,3
99086,443,-8179,-48,-2,-1,0,3
99091,440,-8177,-51,-2,-2,0,3
99096,438,-8177,-55,-2,-2,0,3
99101,439,-8177,-56,-2,-2,0,3
99106,444,-8178,-54,-2,-2,0,3
99111,442,-8179,-55,-2,-2,0,3
99116,442,-8179,-50,-2,-2,0,3
99121,437,-8178,-41,-2,-2,0,3
99126,429,-8179,-39,-2,-2,0,3
99131,423,-8181,-34,-2,-2,0,3
99136,417,-8185,-32,-2,-2,0,3
99141,415,-8185,-28,-2,-2,0,3
99146,417,-8185,-21,-2,-2,0,3
99151,423,-8184,-13,-2,-2,0,3
99156,433,-8185,-10,-2,-2,0,3
99161,442,-8186,-7,-2,-3,0,3
99166,449,-8187,-4,-2,-3,0,3
99171,449,-8188,2,-2,-3,-1,3
99176,446,-8189,9,-2,-3,-1,3
99181,443,-8191,18,-2,-3,-1,3
99186,435,-8191,33,-2,-3,-1,3
99191,430,-8191,49,-2,-3,-1,3
99196,429,-8187,58,-2,-3,0,3
99201,428,-8189,61,-2,-3,0,3
99206,432,-8189,64,-2,-3,0,3
99211,440,-8189,65,-2,-3,0,3
99216,450,-8192,61,-2,-2,0,3
99221,457,-8192,60,-2,-2,0,3
99226,462,-8193,58,-2,-2,0,3
99231,465,-8192,63,-2,-2,-1,3
99236,465,-8191,63,-2,-2,-1,3
99241,464,-8191,64,-2,-1,0,3
99246,462,-8191,61,-2,-1,0,3
99251,459,-8192,59,-2,-1,0,3
99256,463,-8191,53,-2,-1,0,3
99261,468,-8190,44,-2,-1,0,3
99266,472,-8190,37,-2,-1,0,3
99271,475,-8188,25,-2,-1,0,3
99276,475,-8185,15,-2,-1,0,3
99281,478,-8183,12,-2,-1,0,3
99286,474,-8181,10,-2,-1,0,3
99291,469,-8179,12,-2,-1,0,3
99296,461,-8177,11,-2,-1,0,3
99301,455,-8176,10,-2,-1,0,3
99306,455,-8176,7,-2,-1,0,3
99311,454,-8174,2,-2,-1,0,3
99316,453,-8175,-3,-2,-1,0,3
99321,455,-8179,-5,-2,-1,0,3
99326,460,-8180,-5,-2,-1,0,3
99331,468,-8179,-9,-2,-1,-1,3
99336,472,-8180,-8,-2,-1,-1,3
99341,473,-8182,-5,-2,-2,-1,3
99346,472,-8182,-6,-2,-2,-1,3
99351,468,-8183,-11,-2,-3,-1,3
99357,464,-8184,-18,-2,-3,-1,3
99362,460,-8188,-24,-2,-3,-1,3
99367,460,-8187,-25,-2,-3,0,3
99371,464,-8183,-26,-2,-3,-1,3
99376,466,-8182,-23,-2,-3,-1,3
99381,469,-8183,-17,-2,-3,0,3
99386,472,-8182,-9,-2,-3,0,3
99391,472,-8181,2,-2,-3,-1,3
99396,469,-8183,13,-2,-2,-1,3
99401,466,-8186,18,-2,-2,-1,3
99406,464,-8188,17,-2,-2,-1,3
99411,460,-8187,16,-2,-2,-1,3
99416,459,-8187,11,-2,-2,0,3
99421,459,-8187,5,-2,-2,0,3
99426,462,-8187,1,-2,-2,0,3
99431,469,-8187,4,-2,-2,-1,3
99436,475,-8188,9,-2,-2,-1,3
99441,476,-8188,16,-2,-3,-1,3
99446,473,-8188,18,-2,-3,-1,3
99452,468,-8190,17,-2,-3,-1,3
99457,461,-8192,17,-2,-2,-1,3
99462,455,-8191,19,-2,-2,-1,3
99466,454,-8190,20,-2,-2,0,3
99471,454,-8189,20,-2,-1,0,3
99476,458,-8188,23,-2,-1,0,3
99481,466,-8187,27,-2,-1,0,3
99486,473,-8188,24,-2,-1,0,3
99491,482,-8190,17,-2,-1,0,3
99496,493,-8189,13,-2,-1,0,3
99501,502,-8191,6,-2,-1,0,3
99506,505,-8195,0,-2,-1,0,3
99511,503,-8194,-4,-2,-1,0,3
99516,499,-8192,-8,-2,-1,0,3
99521,495,-8193,-7,-2,0,0,3
99526,492,-8195,-3,-2,-1,0,3
99531,487,-8195,0,-2,0,0,3
99536,481,-8196,0,-2,0,0,3
99541,475,-8199,-9,-2,0,0,3
99546,474,-8199,-28,-2,0,0,3
99551,473,-8200,-40,-2,0,0,3
99556,471,-8198,-50,-2,0,0,3
99561,466,-8197,-52,-2,0,0,3
99566,453,-8196,-51,-2,0,0,3
99571,438,-8197,-41,-2,0,-1,3
99576,421,-8196,-36,-2,-1,-1,3
99581,405,-8195,-34,-2,-1,-1,3
99586,389,-8194,-37,-2,-1,-1,3
99591,380,-8194,-44,-2,-2,-1,3
99596,381,-8195,-58,-2,-2,-1,3
99601,391,-8196,-65,-2,-2,-1,3
99606,409,-8195,-66,-2,-3,-1,3
99611,426,-8193,-52,-2,-4,-1,3
99616,435,-8193,-24,-2,-5,-1,3
99621,437,-8192,18,-2,-6,-1,3
99626,429,-8192,72,-2,-6,-1,3
99631,416,-8191,126,-2,-7,-1,3
99636,395,-8191,182,-2,-7,-1,3
99641,362,-8189,224,-2,-8,-1,3
99646,325,-8188,236,-2,-8,-1,3
99651,285,-8189,232,-2,-8,-1,3
99656,250,-8192,216,-2,-7,-1,3
99661,233,-8223,199,-3,-5,-1,3
99666,227,-8308,189,-3,-2,-1,3
99671,259,-8449,174,-3,2,-1,3
99676,320,-8636,145,-3,7,-1,3
99681,412,-8864,90,-3,13,-1,3
99686,515,-9129,8,-2,17,-1,3
99691,619,-9424,-88,-2,20,-1,3
99696,713,-9735,-193,-2,22,0,3
99701,793,-10043,-294,-1,23,0,3
99706,863,-10332,-382,-1,21,0,3
99711,927,-10582,-447,0,19,0,3
99716,978,-10778,-493,0,15,1,3
99721,1012,-10920,-514,1,12,1,3
99726,1026,-11000,-515,1,8,1,3
99731,1015,-11030,-497,2,6,1,3
99736,988,-11015,-463,2,4,2,3
99741,947,-10953,-415,2,4,2,3
99746,900,-10848,-356,3,3,2,3
99751,848,-10703,-292,3,3,2,3
99756,793,-10523,-228,3,3,2,3
99761,737,-10324,-163,3,5,3,3
99766,684,-10106,-93,3,8,3,3
99771,637,-9865,-13,3,11,3,3
99776,588,-9610,64,2,15,3,3
99780,542,-9351,134,2,20,4,3
99786,499,-9084,195,2,24,4,3
99790,454,-8817,235,2,28,4,3
99795,422,-8541,257,1,31,4,3
99801,407,-8262,267,1,33,4,3
99805,411,-7985,265,1,33,4,3
99810,431,-7714,255,1,32,4,3
99815,453,-7437,237,1,28,4,3
99820,467,-7154,210,1,24,4,3
99825,464,-6875,184,1,22,4,3
99830,449,-6604,163,1,19,4,3
99835,426,-6334,153,1,17,4,3
99840,401,-6074,149,0,16,4,3
99845,376,-5822,137,0,15,4,3
99850,357,-5581,124,0,16,3,3
99855,344,-5352,112,0,16,3,3
99860,334,-5136,101,-1,16,2,3
99865,331,-4937,80,-1,15,2,3
99870,330,-4759,60,-2,14,1,3
99875,324,-4590,63,-2,14,1,3
99880,300,-4417,76,-3,14,0,3
99885,267,-4236,84,-3,14,-1,3
99890,225,-4041,88,-4,13,-2,3
99895,174,-3834,99,-4,13,-2,3
99900,119,-3629,146,-4,11,-3,3
99905,63,-3438,200,-5,9,-4,3
99910,10,-3261,253,-5,7,-5,3
99915,-41,-3110,295,-6,7,-7,3
99920,-79,-2990,338,-7,7,-8,3
99925,-97,-2906,382,-8,9,-8,3
99930,-97,-2866,433,-9,11,-9,3
99935,-92,-2877,486,-10,15,-10,3
99940,-103,-2945,544,-11,20,-11,3
99945,-139,-3065,606,-12,24,-12,3
99950,-192,-3248,657,-13,28,-13,3
99955,-223,-3495,674,-14,31,-14,3
99960,-198,-3817,631,-15,33,-15,3
99965,-96,-4211,514,-15,34,-16,3
99970,78,-4681,326,-16,34,-17,3
99975,291,-5235,96,-16,33,-17,3
99980,523,-6379,-182,-16,30,-18,3
99985,2306,-7808,-776,-11,45,-20,3
99990,265,-4353,-541,-12,99,-13,3
99995,-216,-6071,-826,-7,-20,-9,3
100000,894,-5464,-899,-6,-29,-5,3
100005,-171,-7018,-428,0,-39,18,3
100010,85,-8355,-191,-2,-52,4,3
100015,190,-9502,-351,-2,20,1,3
100020,402,-10203,-368,0,53,-2,3
100025,974,-10556,-504,0,30,-3,3
100030,1241,-10764,-669,1,-1,1,3
100035,1200,-10975,-723,3,-15,4,3
100040,1012,-11060,-766,4,-7,4,3
100045,873,-10989,-811,5,1,2,3
100050,890,-10779,-981,5,-1,3,3
100055,868,-10509,-1083,5,-7,4,3
100060,903,-10204,-1093,5,-10,3,3
100065,1043,-9841,-946,5,-8,3,3
100070,1069,-9407,-680,6,-6,6,3
100075,1058,-8878,-480,6,-11,6,3
100080,1063,-8263,-349,7,-14,5,3
100085,976,-7571,-258,7,-15,6,3
100090,861,-6813,-176,6,-20,5,3
100095,771,-6020,-26,6,-21,6,3
100100,592,-5230,228,5,-21,6,3
100105,494,-4463,470,4,-22,5,3
100110,381,-3732,672,3,-20,5,3
100115,199,-3053,867,3,-20,5,3
100120,68,-2443,935,1,-17,4,3
100125,16,-1903,959,0,-11,4,3
100130,-90,-1419,1030,-2,-6,4,3
100135,-156,-982,1113,-3,-6,2,3
100140,-128,-621,1085,-5,-3,1,3
100145,4,-321,1014,-7,2,0,3
100150,-302,-142,1212,-7,8,1,3
100155,-664,-84,1531,-8,3,0,3
100160,-756,-157,1325,-9,6,-1,3
100165,-903,-314,1413,-9,24,0,3
100170,-676,-498,1182,-11,42,-1,3
100175,-379,-758,968,-12,55,-2,3
100180,371,-2990,70,-6,68,0,3
100185,206,-223,655,-14,121,-4,3
100190,1668,37,614,-8,64,0,3
100195,2160,-942,588,-5,7,11,3
100200,1774,-1926,583,-4,-28,14,3
100205,1514,-2761,620,-4,0,7,3
100210,1464,-3499,617,-4,55,1,3
100215,1642,-4176,546,-5,53,-4,3
100220,1782,-4725,354,-6,15,-8,3
100225,1592,-5214,255,-5,-8,-8,3
100230,1093,-5643,260,-5,-18,-6,3
100235,324,-6008,245,-5,-18,-5,3
100240,-679,-6339,317,-4,-12,-1,3
100245,-1068,-6611,244,-4,-3,1,3
100250,-1084,-6839,156,-4,9,3,3
100255,-687,-7030,27,-4,7,4,3
100260,-55,-7180,-179,-4,8,3,3
100265,484,-7315,-202,-4,4,2,3
100270,963,-7429,-294,-4,-3,0,3
100275,1150,-7521,-426,-3,-5,-2,3
100280,1203,-7618,-465,-3,-6,-4,3
100285,1107,-7694,-565,-3,-4,-4,3
100290,729,-7770,-576,-3,-7,-4,3
100295,317,-7835,-601,-3,-10,-2,3
100300,-59,-7888,-645,-3,-9,0,3
100305,-247,-7938,-641,-3,-6,1,3
100310,-168,-7969,-652,-3,-3,2,3
100315,162,-7995,-607,-2,-1,2,3
100320,588,-8017,-590,-2,-3,1,3
100325,922,-8034,-595,-2,-7,0,3
100330,1073,-8053,-579,-2,-13,-2,3
100335,1027,-8073,-562,-1,-16,-3,3
100340,777,-8094,-544,-1,-16,-3,3
100345,406,-8113,-494,-1,-16,-2,3
100350,90,-8128,-438,-2,-12,-1,3
100355,-98,-8141,-353,-2,-7,1,3
100360,-97,-8148,-272,-2,-3,1,3
100365,105,-8148,-212,-1,-1,1,3
100370,391,-8147,-163,-1,0,1,3
100375,667,-8149,-160,-1,-2,0,3
100380,860,-8152,-166,-1,-3,-1,3
100385,882,-8156,-183,-1,-5,-2,3
100390,752,-8163,-190,-1,-7,-2,3
100395,528,-8171,-164,-2,-8,-2,3
100400,266,-8178,-112,-2,-7,-1,3
100405,79,-8179,-29,-2,-6,0,3
100410,42,-8177,70,-2,-4,1,3
100415,125,-8175,145,-2,-3,1,3
100420,313,-8171,199,-2,-2,1,3
100425,539,-8170,217,-2,-2,0,3
100430,688,-8166,190,-2,-3,-1,3
100435,755,-8173,154,-2,-4,-1,3
100440,715,-8181,118,-2,-5,-2,3
100445,560,-8189,94,-2,-6,-1,3
100450,389,-8191,107,-3,-6,-1,3
100455,247,-8192,144,-3,-4,0,3
100460,171,-8191,179,-3,-3,0,3
100465,214,-8186,210,-3,-2,1,3
100470,326,-8183,220,-2,-2,1,3
100475,459,-8181,194,-2,-2,0,3
100480,589,-8179,144,-2,-2,0,3
100485,639,-8180,73,-2,-3,-1,3
100490,615,-8181,5,-3,-4,-1,3
100495,538,-8184,-32,-3,-5,-1,3
100500,409,-8187,-41,-3,-6,-1,3
100505,295,-8188,-23,-3,-7,-1,3
100510,234,-8188,20,-3,-6,0,3
100515,229,-8188,53,-3,-6,0,3
100520,294,-8187,64,-2,-5,0,3
100525,385,-8187,51,-2,-4,0,3
100530,456,-8185,9,-2,-4,0,3
100535,505,-8182,-41,-2,-4,-1,3
100540,497,-8182,-87,-2,-3,-1,3
100545,435,-8183,-116,-3,-3,-1,3
100550,367,-8185,-119,-3,-2,-1,3
100555,294,-8186,-109,-3,-2,-1,3
100560,250,-8184,-90,-3,-2,0,3
100565,271,-8184,-68,-2,-1,0,3
100570,321,-8182,-66,-2,-1,0,3
100575,398,-8182,-78,-2,-1,0,3
100580,482,-8182,-105,-2,0,-1,3
100585,527,-8182,-150,-2,-1,-1,3
100590,540,-8183,-181,-2,-2,-1,3
100595,520,-8185,-201,-2,-3,-1,3
100600,463,-8187,-209,-2,-4,-1,3
100605,424,-8187,-181,-2,-5,-1,3
100610,404,-8189,-150,-2,-5,0,3
100615,407,-8188,-120,-2,-6,0,3
100620,454,-8185,-83,-2,-5,0,3
100625,509,-8183,-67,-2,-5,0,3
100630,556,-8181,-66,-2,-4,-1,3
100635,596,-8180,-63,-2,-3,-1,3
100640,592,-8180,-75,-2,-3,-1,3
100645,559,-8179,-83,-2,-2,-1,3
100650,529,-8179,-75,-2,-1,0,3
100655,483,-8176,-74,-2,-1,0,3
100660,460,-8179,-62,-2,0,0,3
100665,471,-8183,-53,-2,0,0,3
100670,489,-8186,-67,-2,0,0,3
100675,531,-8185,-75,-2,0,0,3
100680,572,-8185,-88,-2,-1,0,3
100685,586,-8182,-119,-2,-2,0,3
100690,590,-8184,-121,-2,-2,0,3
100695,571,-8183,-125,-2,-3,0,3
100700,527,-8184,-129,-2,-4,0,3
100705,496,-8187,-109,-2,-4,0,3
100710,474,-8185,-96,-2,-4,0,3
100715,468,-8185,-83,-2,-5,0,3
100720,484,-8185,-60,-2,-4,0,3
100725,499,-8186,-54,-2,-4,0,3
100730,512,-8186,-53,-2,-3,0,3
100735,521,-8185,-38,-2,-1,0,3
100740,504,-8189,-46,-2,-1,0,3
100745,476,-8190,-42,-2,-1,0,3
100751,447,-8191,-34,-2,-1,0,3
100756,409,-8189,-49,-2,-1,0,3
100760,394,-8191,-52,-2,-1,0,3
100765,395,-8193,-55,-2,0,0,3
100770,402,-8191,-66,-2,-1,0,3
100775,428,-8189,-60,-2,-1,0,3
100781,443,-8189,-57,-2,-1,0,3
100787,444,-8190,-70,-2,-2,0,3
100793,437,-8192,-77,-2,-2,0,3
100799,413,-8189,-89,-2,-3,0,3
100804,382,-8189,-102,-2,-3,0,3
100810,360,-8191,-95,-2,-2,0,3
100816,347,-8190,-92,-2,-2,0,3
100822,353,-8190,-83,-2,-2,0,3
100828,370,-8191,-62,-2,-1,0,3
100834,383,-8189,-60,-2,-1,0,3
100840,397,-8187,-53,-2,-1,0,3
100846,404,-8185,-46,-2,-1,0,3
100851,397,-8184,-53,-2,-1,0,3
100857,384,-8187,-56,-2,-1,0,3
100862,364,-8188,-65,-2,-1,0,3
100867,349,-8189,-73,-2,-1,0,3
100872,345,-8192,-71,-2,-1,0,3
100877,341,-8194,-67,-2,-1,0,3
100881,356,-8193,-60,-2,-2,0,3
100885,377,-8192,-52,-2,-2,0,3
100889,390,-8192,-45,-2,-2,0,3
100895,404,-8191,-39,-2,-2,0,3
100901,403,-8191,-29,-2,-2,-1,3
100907,393,-8192,-24,-2,-2,-1,3
100913,392,-8192,-8,-2,-1,-1,3
100919,388,-8192,5,-2,-1,0,3
100925,389,-8192,17,-2,-1,0,3
100931,397,-8193,28,-2,-1,0,3
100936,406,-8196,29,-2,-1,0,3
100941,420,-8194,20,-2,-1,0,3
100947,435,-8194,6,-2,0,0,3
100952,435,-8193,-17,-2,-1,-1,3
100959,435,-8194,-38,-2,-1,-1,3
100964,425,-8195,-54,-2,-1,-1,3
100970,405,-8197,-72,-2,-2,-1,3
100975,396,-8197,-78,-2,-2,-1,3
100981,390,-8198,-79,-2,-2,0,0
100985,387,-8197,-80,-2,-2,-1,0
100991,398,-8196,-77,-2,-2,0,0
100996,408,-8195,-79,-2,-2,-1,0
101001,416,-8195,-83,-2,-2,-1,0
101005,424,-8196,-77,-2,-2,-1,0
101011,420,-8196,-83,-2,-2,-1,0
101016,418,-8197,-86,-2,-3,-1,0
101021,418,-8194,-78,-2,-2,-1,0
101026,409,-8194,-75,-2,-3,-1,0
101032,411,-8193,-55,-2,-3,-1,0
101037,417,-8193,-33,-2,-3,-1,0
101041,416,-8193,-20,-2,-3,-1,0
101047,419,-8193,-4,-2,-3,-1,0
101052,424,-8195,3,-2,-3,-1,0
101057,426,-8197,1,-2,-3,-1,0
101061,436,-8199,6,-2,-3,-1,0
101066,440,-8198,4,-2,-4,-1,0
101071,442,-8197,5,-2,-4,-1,0
101076,450,-8197,16,-2,-4,-1,0
101081,454,-8196,23,-2,-5,-1,0
101086,455,-8191,35,-2,-5,-1,0
101091,457,-8191,59,-2,-4,-1,0
101096,456,-8190,69,-2,-4,-1,0
101101,454,-8189,81,-2,-3,-1,0
101106,452,-8189,88,-2,-2,-1,0
101111,442,-8187,79,-2,-2,-1,0
101116,438,-8186,74,-2,-1,-1,0
101121,433,-8189,63,-2,-1,-1,0
101126,429,-8190,43,-2,-1,-1,0
101132,429,-8194,35,-2,-1,-1,0
101137,431,-8194,27,-2,-1,-1,0
101141,432,-8190,18,-2,-1,-1,0
101147,441,-8190,16,-2,-1,-1,0
101152,443,-8190,6,-2,-1,-1,0
101157,445,-8192,-5,-2,-1,-1,0
101162,445,-8191,-13,-2,-1,-1,0
101167,443,-8193,-28,-2,-1,-1,0
101172,445,-8189,-37,-2,-1,-1,0
101177,445,-8189,-44,-2,-1,-1,0
101182,446,-8188,-48,-2,-2,-1,0
101187,449,-8187,-44,-2,-2,-1,0
101192,451,-8185,-41,-2,-2,-1,0
101197,448,-8183,-39,-2,-2,-1,0
101202,448,-8186,-29,-2,-2,-1,0
101207,447,-8188,-23,-2,-2,-1,0
101213,450,-8185,-19,-2,-2,-1,0
101217,454,-8185,-20,-2,-3,-1,0
101223,458,-8183,-30,-2,-3,-1,0
101228,464,-8184,-35,-2,-3,-1,0
101233,469,-8185,-35,-2,-3,-1,0
101238,470,-8183,-35,-2,-3,-1,0
101244,472,-8183,-33,-2,-3,-1,0
101249,470,-8184,-30,-2,-3,-1,0
101254,472,-8184,-23,-2,-2,-1,0
101259,474,-8184,-20,-2,-1,-1,0
101264,476,-8182,-16,-2,-1,-1,0
101269,479,-8182,-8,-2,-1,-1,0
101274,486,-8182,-3,-2,-1,-1,0
101280,490,-8184,-7,-2,-1,0,0
101285,501,-8183,-7,-2,-1,0,0
101289,510,-8183,-3,-2,-2,0,0
101293,515,-8184,-3,-2,-2,0,0
101298,521,-8185,4,-2,-2,0,0
101302,521,-8184,8,-2,-2,0,0
101306,512,-8184,10,-2,-2,0,0
101310,503,-8185,14,-2,-2,0,0
101315,493,-8186,6,-2,-2,0,0
101319,486,-8187,-3,-2,-2,0,0
101323,481,-8186,-8,-2,-2,0,0
101328,479,-8184,-20,-2,-1,0,0
101332,483,-8184,-19,-2,-1,0,0
101338,490,-8185,-20,-2,-1,0,0
101342,490,-8187,-19,-2,-1,0,0
101346,488,-8188,-11,-2,-1,0,0
101350,479,-8183,-6,-2,-1,0,0
101354,465,-8183,-1,-2,-1,0,0
101358,453,-8185,3,-2,0,0,0
101362,447,-8184,5,-2,0,0,0
101366,447,-8182,-3,-2,0,0,0
101370,454,-8183,-3,-2,-1,0,0
101374,460,-8186,-7,-2,-1,0,0
101379,469,-8188,-12,-2,-2,0,0
101383,474,-8188,-10,-2,-2,0,0
101387,473,-8187,-7,-2,-3,0,0
101391,466,-8187,-7,-2,-3,0,0
101395,458,-8186,-6,-2,-3,0,0
101399,448,-8184,-3,-2,-3,0,0
101403,441,-8183,8,-2,-3,0,0
101407,439,-8185,23,-2,-3,0,0
101411,435,-8182,37,-2,-2,0,0
101414,434,-8181,54,-2,-2,0,0
101419,432,-8180,71,-2,-1,0,0
101424,424,-8177,91,-2,0,0,0
101429,423,-8179,114,-2,1,0,0
101434,420,-8179,136,-2,1,0,0
101439,417,-8182,155,-2,1,0,0
101444,414,-8183,164,-2,1,0,0
101449,408,-8183,156,-2,1,0,0
101454,407,-8185,146,-2,1,0,0
101459,412,-8189,136,-2,1,0,0
101464,418,-8190,118,-2,1,0,0
101469,423,-8190,103,-3,1,0,0
101474,431,-8187,92,-3,1,-1,0
101479,435,-8189,83,-3,1,-1,0
101484,435,-8188,80,-3,1,-1,0
101489,434,-8189,85,-3,1,-1,0
101494,434,-8189,85,-3,1,-1,0
101499,434,-8188,83,-3,1,0,0
101504,433,-8188,68,-3,1,0,0
101509,441,-8189,46,-2,1,0,0
101514,450,-8192,25,-2,1,0,0
101519,456,-8192,3,-3,0,0,0
101524,460,-8191,-19,-2,0,0,0
101529,460,-8192,-31,-2,0,0,0
101534,459,-8192,-41,-2,0,-1,0
101539,454,-8191,-43,-2,-1,-1,0
101544,448,-8190,-43,-2,-1,-1,0
101549,444,-8187,-46,-2,-1,-1,0
101554,442,-8187,-44,-2,-1,-1,0
101559,441,-8188,-48,-2,-1,-1,0
101564,440,-8187,-54,-2,-2,-1,0
101569,440,-8185,-59,-2,-2,-1,0
101574,441,-8184,-66,-2,-2,-1,0
101579,443,-8183,-65,-2,-2,-1,0
101584,442,-8183,-61,-2,-2,-1,0
101589,442,-8183,-58,-2,-2,-1,0
101594,443,-8184,-55,-2,-2,-1,0
101599,440,-8187,-53,-2,-2,-1,0
101604,441,-8187,-56,-2,-2,-1,0
101610,439,-8183,-56,-2,-2,-1,0
101615,436,-8181,-60,-2,-2,-1,0
101621,438,-8185,-64,-2,-2,-1,0
101626,442,-8186,-63,-2,-2,-1,0
101631,443,-8186,-61,-2,-2,-1,0
101636,446,-8184,-54,-2,-2,-1,0
101641,449,-8186,-39,-2,-2,-1,0
101647,447,-8185,-29,-2,-2,-1,0
101652,449,-8186,-18,-2,-2,-1,0
101657,449,-8185,-10,-2,-2,-1,0
101662,447,-8183,-7,-2,-2,-1,0
101667,452,-8186,-4,-2,-2,-1,0
101673,459,-8187,-10,-2,-2,-1,0
101678,467,-8188,-17,-2,-2,-1,0
101683,475,-8188,-20,-2,-2,-1,0
101688,485,-8187,-21,-2,-2,-1,0
101693,496,-8185,-21,-2,-2,-1,0
101699,506,-8185,-17,-2,-2,-1,0
101704,508,-8186,-19,-2,-2,-1,0
101710,508,-8188,-20,-2,-2,-1,0
101715,509,-8190,-19,-2,-1,-1,0
101721,509,-8192,-21,-2,-1,-1,0
101725,510,-8191,-18,-2,0,-1,0
101730,507,-8188,-17,-2,0,-1,0
101735,505,-8184,-18,-2,0,-1,0
101740,505,-8185,-17,-2,0,-1,0
101745,505,-8184,-26,-2,0,-1,0
101750,500,-8185,-34,-2,-1,-1,0
101755,497,-8185,-35,-2,-1,-1,0
101760,492,-8184,-35,-2,-1,0,0
101765,490,-8184,-37,-2,-1,0,0
101770,486,-8185,-30,-2,-1,0,0
101775,479,-8188,-19,-2,-1,0,0
101780,473,-8191,-8,-2,-1,0,0
101785,465,-8192,4,-2,-1,0,0
101790,458,-8195,7,-2,-1,0,0
101794,454,-8196,14,-2,0,-1,0
101799,453,-8195,14,-2,0,-1,0
101804,451,-8193,12,-2,0,-1,0
101809,449,-8189,13,-2,0,-1,0
101814,449,-8188,7,-2,0,-1,0
101818,447,-8190,0,-2,0,-1,0
101823,449,-8190,-4,-2,0,-1,0
101828,454,-8190,-9,-2,0,0,0
101833,463,-8190,-17,-2,0,-1,0
101838,476,-8189,-27,-2,0,-1,0
101842,484,-8188,-38,-2,0,-1,0
101848,494,-8187,-48,-2,0,0,0
101853,501,-8188,-56,-2,0,-1,0
101858,507,-8187,-58,-2,-1,0,0
101862,509,-8187,-56,-2,-1,0,0
101866,510,-8186,-50,-2,-1,-1,0
101871,509,-8183,-49,-2,-1,-1,0
101875,510,-8181,-49,-2,-2,0,0
101879,509,-8181,-47,-2,-2,0,0
101884,509,-8181,-46,-2,-2,0,0
101889,507,-8183,-46,-2,-3,0,0
101894,507,-8184,-46,-2,-3,0,0
101899,507,-8185,-38,-2,-3,0,0
101904,507,-8185,-32,-2,-3,0,0
101909,507,-8186,-25,-2,-3,0,0
101914,509,-8184,-21,-2,-3,0,0
101919,510,-8184,-20,-2,-3,0,0
101924,505,-8187,-15,-2,-3,0,0
101929,500,-8190,-10,-2,-3,0,0
101934,498,-8190,-6,-2,-2,0,0
101940,498,-8190,-2,-2,-2,0,0
101945,501,-8189,4,-2,-2,0,0
101950,504,-8188,7,-2,-2,0,0
101954,509,-8185,11,-2,-2,0,0
101959,507,-8184,15,-2,-2,0,0
101964,501,-8182,22,-2,-2,0,0
101969,499,-8179,27,-2,-2,0,0
101974,491,-8181,33,-2,-2,0,0
101979,481,-8180,38,-2,-1,0,0
101984,472,-8179,43,-2,-1,0,0
101989,466,-8180,44,-2,-1,0,0
101994,463,-8182,37,-2,-1,0,0
101999,464,-8183,30,-2,-1,0,0
102004,466,-8181,22,-2,-1,0,0
102009,468,-8180,13,-2,-1,0,0
102014,470,-8176,8,-2,0,0,0
102019,471,-8177,2,-2,-1,0,0
102024,468,-8180,0,-2,-1,0,0
102029,462,-8180,-13,-2,-1,0,0
102034,453,-8180,-22,-2,-1,0,0
102039,445,-8181,-26,-2,-1,0,0
102044,437,-8182,-28,-2,-1,0,0
102049,427,-8180,-32,-2,-1,0,0
102054,420,-8183,-27,-2,0,0,0
102059,417,-8185,-25,-2,0,0,0
102064,420,-8186,-24,-2,0,0,0
102069,421,-8186,-21,-2,-1,0,0
102074,422,-8186,-24,-2,-1,0,0
102080,425,-8185,-32,-2,-1,0,0
102085,430,-8184,-40,-2,-1,0,0
102091,430,-8186,-51,-2,-1,0,0
102097,433,-8188,-59,-2,-1,0,0
102102,433,-8189,-65,-2,-1,-1,0
102108,440,-8189,-68,-2,-1,-1,0
102115,446,-8189,-66,-2,-2,-1,0
102121,454,-8190,-64,-2,-2,-1,0
102126,455,-8190,-62,-2,-3,-1,0
102132,453,-8187,-64,-2,-3,-1,0
102138,449,-8187,-66,-2,-3,-1,0
102144,445,-8185,-62,-2,-3,-1,0
102148,440,-8182,-55,-2,-3,-1,0
102154,435,-8183,-44,-2,-4,-1,0
102161,432,-8185,-27,-2,-4,-1,0
102166,433,-8187,-7,-2,-4,-1,0
102172,441,-8188,14,-2,-4,-1,0
102178,450,-8188,30,-2,-3,-1,0
102184,455,-8186,35,-2,-3,-1,0
102190,458,-8185,35,-2,-3,-1,0
102196,460,-8184,36,-2,-3,-1,0
102202,462,-8183,40,-2,-2,-1,0
102206,464,-8185,41,-2,-2,-1,0
102210,469,-8186,44,-2,-2,-1,0
102214,474,-8186,48,-2,-2,-1,0
102218,481,-8187,60,-2,-2,-1,0
102223,490,-8185,68,-2,-2,-1,0
102227,497,-8187,75,-2,-2,-1,0
102231,506,-8190,83,-2,-2,-1,0
102235,509,-8190,86,-2,-3,-1,0
102239,507,-8190,84,-2,-3,-1,0
102243,504,-8191,80,-2,-3,-1,0
102247,502,-8191,81,-2,-3,-1,0
102251,497,-8191,82,-2,-2,-1,0
102255,496,-8193,86,-2,-2,-1,0
102260,499,-8194,86,-2,-2,-1,0
102264,505,-8189,86,-2,-2,0,0
102268,506,-8188,89,-2,-2,0,0
102272,511,-8189,82,-2,-1,0,0
102276,513,-8189,68,-2,-1,0,0
102280,516,-8190,54,-2,-1,0,0
102284,517,-8191,37,-2,-1,0,0
102288,518,-8190,25,-2,0,0,0
102293,521,-8191,12,-3,0,0,0
102298,528,-8188,0,-3,-1,0,0
102303,529,-8186,-9,-2,-2,0,0
102308,524,-8184,-23,-2,-2,0,0
102313,520,-8182,-28,-2,-2,0,0
102318,515,-8183,-33,-2,-2,0,0
102323,507,-8184,-34,-2,-2,0,0
102328,494,-8183,-32,-2,-1,0,0
102333,484,-8182,-30,-2,-1,0,0
102338,473,-8182,-26,-2,-1,0,0
102343,465,-8182,-27,-2,-1,0,0
102348,465,-8183,-35,-2,-1,0,0
102353,474,-8181,-48,-2,-1,0,0
102358,489,-8181,-62,-2,-1,0,0
102363,500,-8179,-74,-2,-2,0,0
102368,507,-8179,-83,-2,-2,0,0
102373,507,-8179,-88,-2,-2,0,0
102378,498,-8181,-89,-2,-2,0,0
102383,485,-8184,-79,-2,-2,-1,0
102388,475,-8186,-73,-2,-2,0,0
102393,466,-8185,-64,-2,-2,0,0
102398,468,-8182,-55,-2,-2,0,0
102403,477,-8179,-56,-2,-2,0,0
102408,496,-8177,-66,-2,-3,0,0
102413,512,-8178,-83,-2,-4,0,0
102418,519,-8179,-94,-2,-4,0,0
102423,515,-8178,-92,-2,-4,-1,0
102428,501,-8179,-79,-2,-3,0,0
102433,478,-8178,-57,-2,-3,0,0
102438,459,-8178,-36,-2,-2,0,0
102443,447,-8178,-14,-2,-1,0,0
102448,443,-8181,-1,-2,-1,0,0
102453,451,-8182,6,-2,-1,0,0
102458,461,-8183,1,-2,-1,0,0
102463,471,-8186,-8,-2,-1,0,0
102468,477,-8188,-13,-2,0,0,0
102473,477,-8190,-5,-2,0,0,0
102478,472,-8190,10,-2,0,0,0
102483,463,-8190,29,-2,0,0,0
102488,455,-8186,49,-2,0,0,0
102493,452,-8187,64,-2,-1,0,0
102498,456,-8187,67,-2,-1,0,0
102503,459,-8188,59,-2,-1,0,0
102508,466,-8193,52,-2,0,0,0
102513,475,-8191,44,-2,0,0,0
102518,480,-8192,38,-2,0,0,0
102523,479,-8191,39,-2,0,0,0
102528,478,-8190,44,-2,0,0,0
102533,476,-8190,49,-3,0,0,0
102538,472,-8189,51,-2,-1,0,0
102543,475,-8185,45,-2,-1,0,0
102548,481,-8184,36,-2,-1,0,0
102553,490,-8185,19,-2,-1,0,0
102558,496,-8184,1,-2,-1,0,0
102563,503,-8184,-15,-2,0,0,0
102568,509,-8186,-19,-3,0,0,0
102573,507,-8186,-22,-3,-1,0,0
102578,502,-8187,-25,-3,-1,0,0
102583,495,-8186,-28,-2,-1,0,0
102588,489,-8184,-34,-2,-1,0,0
102593,489,-8182,-44,-2,-1,0,0
102598,490,-8181,-55,-2,-1,0,0
102603,495,-8182,-71,-2,0,0,0
102608,502,-8181,-81,-2,0,0,0
102613,512,-8183,-88,-2,-1,0,0
102618,517,-8183,-88,-2,-1,0,0
102623,517,-8184,-89,-2,-1,0,0
102628,515,-8181,-91,-2,-2,0,0
102633,507,-8181,-87,-2,-2,0,0
102638,498,-8181,-82,-2,-2,0,0
102643,489,-8181,-83,-2,-2,0,0
102648,486,-8182,-84,-2,-2,0,0
102653,486,-8183,-81,-2,-2,0,0
102658,486,-8184,-76,-2,-2,0,0
102663,490,-8185,-71,-2,-2,0,0
102668,492,-8188,-64,-2,-2,0,0
102673,490,-8188,-57,-2,-2,0,0
102678,485,-8189,-47,-2,-2,0,0
102683,476,-8188,-38,-2,-2,0,0
102688,468,-8187,-32,-2,-2,0,0
102693,462,-8187,-26,-2,-2,0,0
102698,461,-8191,-25,-2,-2,0,0
102703,465,-8194,-21,-2,-2,0,0
102708,473,-8192,-19,-2,-2,0,0
102713,482,-8193,-18,-2,-2,0,0
102718,486,-8190,-13,-2,-2,0,0
102723,487,-8189,-6,-2,-2,0,0
102728,484,-8185,-4,-2,-2,0,0
102733,482,-8184,2,-2,-2,0,0
102738,479,-8187,9,-2,-2,0,0
102743,477,-8187,8,-2,-2,0,0
102748,474,-8188,4,-2,-2,0,0
102753,467,-8189,8,-2,-1,0,0
102758,460,-8187,14,-2,-1,0,0
102763,453,-8187,21,-2,-1,0,0
102768,448,-8185,22,-2,0,0,0
102773,443,-8183,23,-2,0,0,0
102778,434,-8184,17,-2,0,0,0
102783,427,-8186,12,-2,-1,0,0
102788,424,-8189,9,-2,-1,0,0
102793,422,-8188,4,-2,-1,0,0
102798,423,-8191,-2,-2,-1,-1,0
102803,430,-8191,-5,-2,-1,0,0
102808,435,-8192,-2,-2,-2,-1,0
102813,441,-8191,-1,-2,-2,0,0
102818,442,-8192,0,-2,-2,-1,0
102823,447,-8194,1,-2,-2,-1,0
102828,454,-8195,-2,-2,-2,-1,0
102833,458,-8193,-4,-2,-2,-1,0
102838,458,-8193,-8,-2,-2,-1,0
102843,461,-8192,-6,-2,-2,-1,0
102848,461,-8188,-8,-2,-2,-1,0
102853,461,-8188,-2,-2,-2,-1,0
102858,457,-8188,2,-2,-2,-1,0
102863,458,-8189,5,-2,-2,-1,0
102868,462,-8190,7,-2,-2,-1,0
102873,467,-8191,4,-2,-2,-1,0
102878,469,-8191,-4,-2,-2,-1,0
102883,474,-8190,-13,-2,-2,-1,0
102888,478,-8190,-19,-2,-2,-1,0
102893,482,-8192,-20,-2,-2,-1,0
102898,485,-8192,-18,-2,-2,-1,0
102903,487,-8192,-13,-2,-2,-1,0
102908,494,-8192,-10,-2,-2,-1,0
102913,501,-8186,-10,-2,-2,-1,0
102918,507,-8188,-10,-2,-2,-1,0
102923,514,-8191,-12,-2,-2,-1,0
102928,519,-8191,-18,-2,-2,-1,0
102933,525,-8190,-23,-2,-2,-1,0
102938,526,-8191,-27,-2,-2,-1,0
102943,524,-8188,-27,-2,-2,-1,0
102948,518,-8186,-24,-2,-2,0,0
102953,516,-8188,-18,-2,-2,0,0
102958,512,-8189,-15,-2,-2,0,0
102963,510,-8187,-12,-2,-1,0,0
102968,506,-8187,-9,-2,-1,0,0
102973,502,-8184,-6,-2,-1,0,0
102978,500,-8185,-8,-2,-1,0,0
102983,504,-8189,-11,-2,-1,0,0
102988,505,-8188,-15,-2,-2,0,0
102993,504,-8186,-18,-2,-2,0,0
102998,503,-8184,-25,-2,-2,0,0
103003,502,-8185,-30,-2,-2,0,0
103008,501,-8184,-33,-2,-3,0,0
103013,496,-8184,-37,-2,-3,0,0
103018,495,-8184,-40,-2,-3,0,0
103023,492,-8185,-37,-2,-2,0,0
103028,489,-8186,-39,-2,-2,0,0
103033,485,-8186,-39,-2,-2,0,0
103038,482,-8186,-38,-2,-2,0,0
103043,479,-8186,-39,-2,-2,0,0
103048,474,-8186,-39,-2,-1,0,0
103053,473,-8187,-45,-2,-1,0,0
103058,470,-8186,-49,-2,-1,0,0
103063,469,-8187,-49,-2,-1,0,0
103068,473,-8189,-52,-2,-1,0,0
103073,479,-8188,-55,-2,-2,0,0
103078,488,-8190,-56,-2,-2,0,0
103083,497,-8190,-62,-2,-2,0,0
103088,506,-8190,-68,-2,-2,0,0
103093,511,-8191,-71,-2,-2,0,0
103098,512,-8190,-71,-2,-3,0,0
103103,514,-8191,-77,-2,-3,0,0
103108,513,-8192,-83,-2,-3,0,0
103113,508,-8190,-85,-2,-3,0,0
103118,506,-8188,-86,-2,-3,0,0
103123,507,-8189,-85,-2,-2,0,0
103128,510,-8190,-83,-2,-2,0,0
103133,516,-8187,-83,-2,-2,0,0
103138,525,-8186,-80,-2,-2,0,0
103143,530,-8186,-83,-2,-2,0,0
103148,532,-8188,-81,-2,-2,0,0
103153,531,-8190,-82,-2,-2,0,0
103158,530,-8192,-79,-2,-2,0,0
103163,528,-8188,-75,-2,-2,0,0
103168,526,-8186,-71,-2,-2,0,0
103173,525,-8186,-68,-2,-2,0,0
103178,529,-8186,-69,-2,-2,0,0
103183,531,-8187,-64,-2,-3,0,0
103188,536,-8189,-60,-2,-3,0,0
103193,538,-8193,-58,-2,-3,0,0
103198,535,-8195,-49,-2,-3,0,0
103203,527,-8197,-39,-2,-3,0,0
103208,512,-8197,-30,-2,-3,0,0
103213,496,-8198,-17,-2,-3,0,0
103218,484,-8196,-2,-2,-3,0,0
103223,473,-8197,17,-2,-2,0,0
103228,466,-8195,29,-2,-2,0,0
103233,465,-8193,38,-2,-1,0,0
103238,464,-8194,37,-2,-1,0,0
103243,465,-8194,36,-2,-1,0,0
103248,469,-8193,31,-2,-1,0,0
103253,471,-8193,23,-2,0,0,0
103257,474,-8191,21,-2,0,0,0
103263,475,-8189,14,-2,-1,0,0
103268,474,-8189,7,-2,-1,0,0
103273,471,-8190,3,-2,-1,0,0
103277,469,-8191,0,-2,-1,0,0
103282,472,-8191,-5,-2,-1,0,0
103287,475,-8191,-12,-2,-2,0,0
103292,478,-8190,-13,-2,-2,0,0
103297,482,-8187,-23,-2,-2,0,0
103302,485,-8185,-26,-2,-2,0,0
103307,483,-8186,-29,-2,-2,0,0
103312,478,-8184,-27,-2,-2,0,0
103317,474,-8187,-18,-2,-2,0,0
103322,468,-8187,-8,-2,-2,0,0
103327,467,-8188,0,-2,-2,0,0
103332,468,-8189,5,-2,-1,0,0
103337,474,-8187,3,-2,-1,0,0
103342,477,-8186,0,-2,-1,0,0
103347,481,-8185,-2,-2,-1,0,0
103352,484,-8186,-5,-2,-1,0,0
103357,482,-8188,-5,-2,-1,0,0
103362,477,-8192,-6,-2,-1,0,0
103367,473,-8193,-2,-2,-1,0,0
103372,468,-8192,7,-2,-2,0,0
103377,463,-8190,14,-2,-2,0,0
103382,461,-8189,17,-2,-2,0,0
103387,461,-8189,21,-2,-2,0,0
103392,464,-8188,24,-2,-2,0,0
103397,467,-8189,23,-2,-2,0,0
103402,464,-8190,26,-2,-2,0,0
103407,460,-8192,30,-2,-2,0,0
103412,453,-8193,34,-2,-1,0,0
103417,442,-8190,37,-2,-1,0,0
103422,435,-8191,40,-2,-1,0,0
103427,432,-8193,43,-2,0,0,0
103432,433,-8194,44,-2,0,0,0
103437,440,-8193,39,-2,0,0,0
103442,448,-8193,31,-2,0,0,0
103447,455,-8197,21,-2,0,0,0
103452,463,-8199,9,-2,0,0,0
103457,461,-8196,2,-2,1,0,0
103462,461,-8196,-4,-2,1,0,0
103467,461,-8195,-8,-2,0,0,0
103472,461,-8193,-6,-2,0,0,0
103477,464,-8191,-9,-2,-1,0,0
103482,469,-8188,-12,-2,-1,0,0
103487,478,-8188,-22,-2,-1,0,0
103492,485,-8192,-29,-2,-2,0,0
103497,487,-8191,-32,-2,-2,0,0
103502,484,-8192,-37,-2,-2,0,0
103507,480,-8192,-38,-2,-2,0,0
103512,473,-8190,-34,-2,-2,0,0
103517,466,-8188,-29,-2,-2,0,0
103522,461,-8190,-23,-2,-2,0,0
103527,459,-8191,-22,-2,-1,0,0
103532,461,-8189,-24,-2,-1,0,0
103537,465,-8190,-27,-2,-1,0,0
103542,476,-8190,-29,-2,-1,0,0
103547,485,-8190,-33,-2,0,0,0
103552,493,-8190,-38,-2,0,0,0
103557,493,-8188,-45,-2,-1,0,0
103562,490,-8185,-49,-2,-1,0,0
103567,488,-8184,-52,-2,-1,0,0
103572,487,-8183,-57,-2,-1,0,0
103577,491,-8184,-64,-2,-2,0,0
103582,493,-8185,-71,-2,-2,0,0
103587,493,-8183,-73,-2,-2,0,0
103592,495,-8185,-71,-2,-2,0,0
103597,496,-8184,-67,-2,-2,0,0
103602,496,-8185,-59,-2,-2,0,0
103607,495,-8184,-53,-2,-1,0,0
103612,488,-8185,-53,-2,-1,0,0
103617,481,-8185,-52,-2,-1,0,0
103622,475,-8187,-53,-2,-1,0,0
103627,473,-8191,-52,-2,-1,0,0
103632,478,-8191,-53,-2,-1,0,0
103637,483,-8190,-53,-2,-1,0,0
103642,490,-8189,-57,-2,-1,0,0
103647,497,-8190,-61,-2,-2,0,0
103652,501,-8189,-64,-2,-2,0,0
103657,500,-8190,-66,-2,-2,0,0
103662,497,-8191,-66,-2,-2,0,0
103667,486,-8191,-65,-2,-2,0,0
103672,479,-8191,-60,-2,-2,0,0
103677,472,-8191,-52,-2,-2,0,0
103682,473,-8190,-50,-2,-2,0,0
103687,475,-8188,-48,-2,-3,0,0
103692,476,-8189,-44,-2,-3,0,0
103697,479,-8191,-42,-2,-3,0,0
103702,483,-8193,-38,-2,-3,0,0
103707,483,-8196,-33,-2,-2,0,0
103712,483,-8194,-25,-2,-2,0,0
103717,480,-8194,-13,-2,-2,0,0
103722,475,-8191,-7,-2,-2,0,0
103727,469,-8187,-3,-2,-2,0,0
103732,470,-8186,2,-2,-2,0,0
103737,474,-8185,3,-2,-2,0,0
103742,478,-8185,-2,-2,-1,0,0
103747,485,-8186,-9,-2,-1,0,0
103752,492,-8186,-11,-2,-2,0,0
103757,492,-8186,-14,-2,-2,0,0
103762,489,-8185,-17,-2,-2,0,0
103767,481,-8186,-13,-2,-2,0,0
103772,475,-8185,-10,-2,-2,0,0
103777,471,-8184,-6,-2,-2,0,0
103782,466,-8183,-5,-2,-2,0,0
103787,461,-8177,-5,-2,-2,0,0
103792,462,-8175,-6,-2,-2,0,0
103797,466,-8177,-4,-2,-2,0,0
103802,471,-8177,-3,-2,-2,0,0
103807,471,-8180,2,-2,-2,0,0
103812,469,-8177,1,-2,-2,0,0
103817,465,-8176,7,-2,-1,0,0
103822,463,-8176,11,-2,-1,0,0
103827,460,-8179,11,-2,-1,0,0
103832,461,-8180,12,-2,-1,0,0
103837,465,-8181,8,-2,-1,0,0
103842,472,-8183,5,-2,-1,0,0
103847,475,-8182,0,-2,-1,0,0
103852,474,-8183,-7,-2,-1,0,0
103857,476,-8185,-9,-2,-1,0,0
103862,475,-8183,-11,-2,-1,0,0
103867,467,-8186,-14,-2,-1,0,0
103872,453,-8184,-19,-2,-1,0,0
103877,439,-8184,-24,-2,-2,0,0
103882,429,-8183,-27,-2,-2,0,0
103887,424,-8182,-29,-2,-2,0,0
103892,423,-8180,-32,-2,-1,0,0
103897,429,-8178,-37,-2,-1,0,0
103902,434,-8178,-38,-2,-1,0,0
103907,442,-8180,-43,-2,-2,-1,0
103912,449,-8183,-52,-2,-2,-1,0
103917,453,-8184,-63,-2,-2,-1,0
103922,457,-8186,-67,-2,-1,-1,0
103927,459,-8185,-68,-2,-1,-1,0
103932,459,-8186,-71,-2,-1,-1,0
103937,463,-8186,-75,-2,-1,-1,0
103942,468,-8187,-84,-2,-2,0,0
103947,476,-8189,-94,-2,-2,0,0
103952,484,-8189,-98,-2,-2,0,0
103957,492,-8188,-106,-2,-3,0,3
103962,500,-8186,-105,-2,-3,0,3
103967,504,-8187,-98,-2,-3,0,3
103972,502,-8188,-91,-2,-2,0,3
103977,499,-8189,-80,-2,-2,0,3
103982,495,-8187,-71,-2,-2,0,3
103987,493,-8188,-69,-2,-2,0,3
103992,492,-8186,-71,-2,-2,0,3
103997,492,-8186,-68,-2,-2,0,3
104002,496,-8184,-69,-2,-2,0,3
104007,500,-8185,-72,-2,-1,0,3
104012,504,-8185,-72,-2,-1,0,3
104017,510,-8187,-73,-2,-1,0,3
104022,512,-8187,-70,-2,-1,0,3
104027,507,-8185,-65,-2,-2,0,3
104032,503,-8185,-65,-2,-2,0,3
104037,500,-8188,-62,-2,-2,0,3
104042,494,-8187,-59,-2,-2,0,3
104047,490,-8189,-61,-2,-2,0,3
104052,488,-8189,-62,-2,-2,0,3
104057,487,-8188,-55,-2,-2,0,3
104062,489,-8187,-48,-2,-2,0,3
104067,491,-8187,-41,-2,-2,0,3
104072,492,-8184,-35,-2,-2,0,3
104077,493,-8183,-31,-2,-2,0,3
104082,494,-8182,-27,-2,-2,0,3
104087,498,-8182,-26,-2,-2,0,3
104092,503,-8182,-27,-2,-1,0,3
104097,508,-8182,-27,-2,-1,0,3
104102,514,-8183,-26,-2,-1,0,3
104107,516,-8183,-20,-2,-1,0,3
104112,520,-8183,-17,-2,-1,0,3
104117,524,-8184,-17,-2,-1,0,3
104122,530,-8183,-25,-2,-1,0,3
104127,529,-8185,-30,-2,-1,0,3
104132,526,-8185,-33,-2,-1,0,3
104137,523,-8186,-36,-2,-1,0,3
104142,520,-8185,-38,-2,-2,0,3
104147,517,-8184,-37,-2,-2,0,3
104152,516,-8185,-42,-2,-2,0,3
104157,513,-8185,-38,-2,-2,0,3
104162,510,-8183,-37,-2,-2,0,3
104167,504,-8183,-37,-2,-2,0,3
104172,496,-8185,-32,-2,-2,0,3
104177,490,-8188,-27,-2,-2,0,3
104182,482,-8186,-24,-2,-2,0,3
104187,474,-8186,-20,-2,-1,0,3
104192,467,-8189,-16,-2,-1,0,3
104197,458,-8190,-15,-2,-1,0,3
104202,452,-8189,-14,-2,-1,0,3
104207,443,-8187,-11,-2,-1,0,3
104212,434,-8185,-7,-2,-1,0,3
104217,428,-8187,-2,-2,-2,0,3
104222,423,-8189,2,-2,-2,0,3
104227,417,-8188,5,-2,-3,0,3
104232,411,-8188,3,-2,-3,0,3
104237,408,-8186,3,-2,-3,0,3
104242,405,-8183,3,-2,-3,-1,3
104247,404,-8183,6,-2,-3,-1,3
104252,405,-8186,9,-2,-3,-1,3
104257,405,-8189,15,-2,-3,-1,3
104262,405,-8190,21,-2,-2,-1,3
104267,406,-8188,27,-2,-2,-1,3
104272,407,-8187,30,-2,-2,-1,3
104278,404,-8188,29,-2,-1,-1,3
104284,406,-8187,32,-2,-1,-1,3
104288,408,-8190,30,-2,-1,-1,3
104293,414,-8192,25,-2,-1,-1,3
104298,425,-8193,20,-2,-2,-1,3
104304,435,-8195,17,-2,-2,-1,3
104309,446,-8197,10,-2,-2,-1,3
104314,457,-8197,7,-2,-2,-1,3
104319,465,-8196,0,-2,-3,-1,3
104325,468,-8195,-5,-2,-3,-1,3
104330,472,-8195,-13,-2,-3,-1,3
104335,476,-8193,-28,-2,-3,-1,3
104341,480,-8193,-41,-2,-2,-1,3
104345,492,-8194,-61,-2,-2,-1,3
104351,512,-8192,-83,-2,-2,-1,3
104356,533,-8191,-108,-2,-2,-1,3
104361,549,-8189,-134,-2,-2,-1,3
104365,557,-8187,-160,-2,-2,-1,3
104370,549,-8188,-180,-2,-2,-1,3
104375,532,-8184,-189,-1,-1,-1,3
104380,514,-8184,-191,-1,0,0,3
104385,501,-8183,-187,-1,1,0,3
104390,499,-8185,-188,-1,2,0,3
104394,509,-8188,-198,-1,3,0,3
104399,535,-8186,-225,-1,3,0,3
104404,569,-8182,-262,-1,2,0,3
104409,601,-8182,-306,-1,1,0,3
104414,627,-8182,-344,-1,0,0,3
104418,638,-8180,-371,-1,-2,0,3
104423,622,-8180,-378,-1,-3,0,3
104428,587,-8181,-360,0,-5,0,3
104432,541,-8181,-322,0,-5,0,3
104437,499,-8183,-269,0,-6,0,3
104442,469,-8184,-208,0,-6,0,3
104447,463,-8182,-151,0,-6,0,3
104452,484,-8183,-101,0,-5,0,3
104457,520,-8184,-60,0,-5,0,3
104462,565,-8186,-33,0,-5,0,3
104467,598,-8187,-5,0,-5,0,3
104472,610,-8190,26,-1,-5,-1,3
104477,595,-8191,64,-1,-5,-1,3
104482,559,-8192,108,-1,-5,-1,3
104487,504,-8190,153,-1,-5,-1,3
104492,446,-8189,194,-1,-4,0,3
104497,390,-8191,224,-1,-3,0,3
104502,351,-8190,242,-1,-1,0,3
104507,338,-8189,246,-1,1,0,3
104512,354,-8198,236,-1,2,0,3
104517,373,-8270,237,-1,2,0,3
104522,428,-8429,232,-1,3,0,3
104527,553,-8639,198,-1,6,0,3
104532,717,-8878,161,-2,9,0,3
104536,888,-9155,118,-2,10,0,3
104542,1024,-9464,103,-2,9,0,3
104547,1129,-9789,83,-2,9,0,3
104552,1202,-10105,78,-2,8,0,3
104557,1258,-10403,45,-2,8,0,3
104562,1301,-10664,15,-2,8,1,3
104567,1345,-10873,-11,-2,9,1,3
104572,1368,-11020,-20,-1,10,1,3
104577,1363,-11100,-25,-1,9,1,3
104581,1319,-11119,-25,-1,9,1,3
104586,1252,-11081,-36,-1,10,2,3
104592,1176,-10994,-55,-1,12,2,3
104596,1102,-10861,-77,-1,13,2,3
104602,1040,-10686,-89,-1,14,2,3
104607,986,-10466,-94,0,13,2,3
104612,930,-10210,-89,0,11,2,3
104617,862,-9932,-81,0,9,2,3
104621,779,-9635,-67,0,7,2,3
104626,685,-9321,-43,0,6,2,3
104631,595,-8988,-10,1,5,2,3
104636,525,-8644,32,1,5,1,3
104642,473,-8295,83,1,6,1,3
104647,427,-7949,135,1,6,1,3
104652,371,-7604,181,0,5,1,3
104657,306,-7259,214,0,4,1,3
104662,238,-6916,244,0,2,0,3
104667,175,-6586,269,0,1,0,3
104672,128,-6263,298,0,0,0,3
104677,96,-5953,331,0,0,0,3
104681,63,-5658,363,-1,1,-1,3
104687,26,-5381,387,-1,2,-1,3
104691,-20,-5116,403,-1,4,-1,3
104696,-70,-4866,415,-2,5,-2,3
104701,-111,-4620,425,-2,5,-2,3
104706,-148,-4375,426,-2,5,-2,3
104712,-176,-4133,432,-2,4,-3,3
104717,-205,-3902,441,-3,2,-3,3
104722,-243,-3686,461,-3,1,-4,3
104727,-291,-3485,482,-3,-1,-5,3
104732,-339,-3294,503,-4,-2,-5,3
104738,-380,-3119,519,-4,-3,-6,3
104742,-408,-2960,528,-5,-2,-6,3
104747,-427,-2823,540,-5,-2,-7,3
104751,-446,-2718,567,-6,-1,-8,3
104756,-474,-2649,602,-7,0,-9,3
104761,-495,-2626,634,-7,2,-9,3
104766,-492,-2662,638,-8,3,-10,3
104771,-446,-2769,611,-8,5,-11,3
104776,-359,-2961,555,-9,6,-11,3
104781,-237,-3244,481,-9,7,-12,3
104786,-102,-3631,409,-10,9,-13,3
104791,41,-4124,329,-10,11,-13,3
104796,207,-4727,222,-10,14,-14,3
104801,425,-6392,-62,-9,18,-14,3
104806,1055,-5293,112,-11,64,-17,3
104812,-242,-6877,-159,-7,37,-9,3
104818,867,-6056,-233,-3,-58,-6,3
104822,627,-7203,-57,1,-50,14,3
104826,318,-8514,12,-1,-25,4,3
104831,113,-9511,-171,-2,46,-1,3
104836,1105,-9934,-251,-2,71,-6,3
104841,1583,-10191,-391,-2,46,-2,3
104846,1531,-10441,-488,-1,-6,0,3
104851,1108,-10660,-683,0,-7,0,3
104856,789,-10715,-846,1,8,0,3
104861,618,-10614,-949,1,8,1,3
104866,784,-10484,-884,2,2,2,3
104871,1150,-10339,-671,3,-1,3,3
104876,1311,-10141,-556,4,-10,3,3
104881,1336,-9956,-502,5,-15,2,3
104886,1239,-9750,-502,5,-11,3,3
104891,1128,-9490,-476,5,-5,3,3
104896,1078,-9149,-569,5,-3,3,3
104901,1072,-8745,-581,5,-4,3,3
104906,1079,-8295,-496,5,-6,3,3
104911,1148,-7827,-317,5,-13,3,3
104916,1065,-7344,-139,5,-21,3,3
104921,909,-6842,2,5,-28,4,3
104926,761,-6314,126,5,-29,4,3
104931,583,-5760,214,5,-27,4,3
104936,413,-5196,321,4,-25,4,3
104941,259,-4652,507,3,-22,4,3
104946,162,-4139,699,3,-18,4,3
104951,119,-3663,875,2,-15,3,3
104956,31,-3225,964,1,-13,3,3
104961,-44,-2829,1007,0,-11,3,3
104966,-107,-2463,1006,-1,-8,2,3
104971,-153,-2136,1031,-2,-6,1,3
104976,-160,-1859,1022,-4,-4,1,3
104981,-81,-1631,1047,-5,0,0,3
104986,31,-1454,1013,-7,4,-1,3
104991,-159,-1343,1166,-7,5,-1,3
104996,-423,-1333,1285,-8,2,-1,3
105001,-556,-1413,1266,-8,7,-1,3
105006,-465,-1515,1176,-9,19,-1,3
105011,-118,-1632,970,-10,29,-2,3
105016,305,-2357,725,-10,34,-4,3
105021,925,-4116,765,-8,45,-5,3
105026,713,-4491,738,-11,69,-7,3
105031,2014,-3816,696,-6,-30,0,3
105036,1676,-3967,800,-2,-69,13,3
105041,655,-4337,821,-3,-66,12,3
105046,393,-4747,699,-5,24,5,3
105051,802,-5194,647,-6,77,0,3
105056,1286,-5603,530,-7,51,-3,3
105061,1537,-5947,320,-8,14,-4,3
105066,1481,-6247,228,-7,-2,-4,3
105071,1106,-6521,217,-6,0,-5,3
105076,594,-6750,252,-5,4,-5,3
105081,162,-6958,241,-4,6,-3,3
105086,-313,-7145,202,-3,-1,-1,3
105091,-558,-7300,18,-3,-3,1,3
105096,-512,-7430,-197,-3,6,2,3
105101,-183,-7538,-397,-4,11,3,3
105106,244,-7619,-546,-4,13,2,3
105111,719,-7689,-565,-4,11,0,3
105116,1010,-7750,-580,-4,6,-1,3
105121,1092,-7803,-612,-3,0,-2,3
105126,990,-7855,-591,-3,-4,-3,3
105131,772,-7900,-604,-2,-6,-3,3
105136,466,-7943,-640,-2,-7,-2,3
105141,194,-7984,-699,-2,-7,-1,3
105146,37,-8017,-771,-2,-5,0,3
105151,82,-8042,-803,-2,-4,1,3
105156,289,-8060,-787,-2,-3,1,3
105161,556,-8071,-735,-2,-5,0,3
105166,807,-8081,-642,-1,-7,-1,3
105171,915,-8092,-574,-1,-10,-2,3
105176,861,-8102,-514,0,-12,-2,3
105181,691,-8119,-465,0,-12,-3,3
105186,429,-8133,-481,0,-11,-2,3
105191,185,-8147,-500,0,-10,-1,3
105196,58,-8159,-506,0,-7,0,3
105201,64,-8166,-512,0,-5,0,3
105206,206,-8165,-476,-1,-4,0,3
105211,438,-8166,-401,0,-4,0,3
105216,654,-8162,-331,0,-6,-1,3
105221,797,-8160,-237,0,-8,-2,3
105226,826,-8163,-166,0,-11,-2,3
105231,725,-8167,-131,1,-14,-3,3
105236,549,-8175,-103,0,-14,-2,3
105241,373,-8186,-80,0,-13,-2,3
105246,250,-8192,-58,0,-12,-1,3
105251,242,-8193,0,0,-10,0,3
105256,344,-8190,68,0,-9,0,3
105261,514,-8188,145,-1,-9,0,3
105266,695,-8182,225,0,-10,-1,3
105271,820,-8182,285,0,-11,-1,3
105276,848,-8182,313,0,-12,-2,3
105281,782,-8187,334,0,-12,-2,3
105286,646,-8190,327,-1,-11,-2,3
105291,493,-8194,321,-1,-9,-1,3
105296,388,-8197,332,-1,-7,-1,3
105301,363,-8198,345,-1,-6,0,3
105306,431,-8195,376,-1,-4,0,3
105311,565,-8191,409,-2,-4,0,3
105316,713,-8188,416,-1,-4,0,3
105321,833,-8185,421,-1,-5,-1,3
105326,888,-8183,408,-1,-6,-1,3
105331,861,-8183,372,-1,-7,-2,3
105336,778,-8186,351,-2,-8,-1,3
105341,664,-8191,334,-2,-8,-1,3
105346,573,-8194,337,-2,-6,0,3
105351,538,-8195,380,-2,-5,0,3
105356,564,-8191,438,-3,-3,0,3
105361,643,-8186,490,-3,-3,0,3
105366,736,-8183,538,-3,-2,0,3
105371,809,-8181,542,-2,-2,0,3
105376,838,-8180,520,-2,-2,-1,3
105381,813,-8181,479,-3,-2,-1,3
105386,738,-8183,424,-3,-2,-1,3
105391,653,-8182,376,-3,-2,0,3
105396,583,-8183,354,-3,-2,0,3
105401,556,-8180,343,-3,-2,0,3
105406,578,-8181,346,-3,-2,0,3
105411,637,-8179,353,-3,-2,0,3
105416,716,-8176,345,-3,-1,0,3
105421,778,-8176,322,-3,-1,0,3
105426,796,-8173,283,-3,-2,0,3
105431,774,-8170,231,-3,-2,0,3
105436,712,-8173,176,-3,-2,0,3
105441,631,-8175,136,-3,-2,0,3
105446,568,-8177,115,-4,-1,0,3
105451,535,-8182,108,-4,0,0,3
105456,544,-8182,113,-4,1,1,3
105461,593,-8180,126,-4,1,1,3
105466,636,-8180,128,-3,0,0,3
105471,676,-8177,123,-3,1,0,3
105476,693,-8176,113,-3,2,0,3
105481,668,-8179,86,-3,2,0,3
105486,620,-8180,60,-3,3,0,3
105491,563,-8185,42,-4,3,0,3
105496,513,-8183,27,-4,3,0,3
105501,491,-8181,33,-4,3,0,3
105506,497,-8181,40,-4,3,1,3
105511,531,-8180,45,-3,3,1,3
105516,577,-8176,55,-3,3,0,3
105521,614,-8177,49,-3,3,0,3
105526,630,-8177,29,-3,3,0,3
105531,626,-8177,8,-3,3,0,3
105536,596,-8179,-23,-3,3,0,3
105541,552,-8182,-49,-3,3,0,3
105546,520,-8181,-55,-3,3,0,3
105551,502,-8182,-59,-3,3,0,3
105556,508,-8181,-56,-3,3,1,3
105561,538,-8179,-56,-3,3,1,3
105566,573,-8177,-68,-3,3,0,3
105571,614,-8177,-77,-3,3,0,3
105576,638,-8179,-92,-3,3,0,3
105581,636,-8180,-117,-3,3,0,3
105586,619,-8183,-131,-3,3,0,3
105591,587,-8186,-145,-3,3,0,3
105596,553,-8185,-153,-3,3,0,3
105601,533,-8187,-148,-3,4,0,3
105606,530,-8185,-147,-3,3,0,3
105611,537,-8181,-142,-3,3,0,3
105616,555,-8179,-133,-2,3,0,3
105621,575,-8178,-137,-2,2,0,3
105626,590,-8177,-143,-2,2,0,3
105631,587,-8178,-148,-2,1,0,3
105636,566,-8180,-155,-2,0,0,3
105641,543,-8179,-151,-2,0,0,3
105646,516,-8179,-141,-2,-1,0,3
105651,490,-8179,-128,-2,-1,0,3
105656,482,-8179,-103,-2,-1,0,3
105661,486,-8181,-83,-2,0,0,3
105666,499,-8179,-73,-2,0,0,3
105671,521,-8179,-58,-2,0,0,3
105676,533,-8182,-56,-2,-1,0,3
105681,537,-8182,-53,-2,-1,0,3
105686,532,-8183,-34,-2,-1,0,3
105691,514,-8185,-16,-2,-1,0,3
105696,494,-8188,11,-2,-1,0,3
105701,478,-8190,45,-2,0,0,3
105706,467,-8190,74,-2,0,0,3
105711,466,-8190,103,-2,0,0,3
105716,472,-8189,121,-2,0,0,3
105721,476,-8188,125,-2,0,0,3
105726,480,-8190,120,-2,0,0,3
105731,479,-8191,112,-2,0,0,3
105736,474,-8191,109,-2,0,0,3
105741,466,-8189,108,-3,0,0,3
105746,458,-8186,113,-3,0,0,3
105751,458,-8184,119,-3,0,0,3
105756,461,-8185,128,-3,0,0,3
105761,464,-8185,135,-3,0,0,3
105766,473,-8186,131,-3,0,0,3
105771,484,-8188,122,-3,0,0,3
105776,495,-8190,103,-3,0,0,3
105781,507,-8193,83,-3,1,0,3
105786,509,-8192,59,-3,1,0,3
105791,512,-8193,41,-3,1,0,3
105796,513,-8194,32,-3,0,0,3
105801,511,-8193,28,-3,0,0,3
105806,514,-8190,21,-3,0,0,3
105811,520,-8189,11,-3,0,0,3
105816,524,-8187,1,-2,0,0,3
105821,529,-8187,-15,-2,0,0,3
105826,527,-8185,-35,-2,0,0,3
105831,524,-8182,-55,-2,0,0,3
105836,520,-8180,-71,-2,-1,0,3
105841,513,-8179,-88,-2,-1,0,3
105846,506,-8179,-103,-2,-1,0,3
105851,500,-8178,-108,-2,-1,0,3
105856,494,-8177,-116,-2,-2,0,3
105861,494,-8177,-118,-2,-2,0,3
105866,495,-8178,-119,-2,-2,0,3
105871,492,-8177,-125,-2,-2,0,3
105876,490,-8175,-125,-2,-2,0,3
105881,488,-8178,-118,-2,-3,0,3
105886,477,-8180,-121,-2,-3,-1,3
105891,470,-8181,-120,-2,-3,0,3
105896,465,-8179,-116,-2,-3,0,3
105901,464,-8179,-117,-2,-3,0,3
105906,466,-8179,-109,-2,-3,0,3
105911,470,-8179,-101,-2,-3,0,3
105916,473,-8179,-93,-2,-3,-1,3
105921,477,-8184,-82,-2,-3,-1,3
105926,476,-8183,-75,-2,-3,-1,3
105931,475,-8184,-74,-2,-3,-1,3
105936,474,-8186,-66,-2,-3,-1,3
105941,472,-8187,-62,-2,-3,-1,3
105946,471,-8188,-61,-2,-3,-1,3
105951,474,-8188,-54,-2,-4,-1,3
105956,480,-8188,-47,-2,-4,-1,0
105961,489,-8186,-35,-2,-3,-1,0
105965,497,-8186,-22,-2,-3,-1,0
105971,499,-8184,-17,-2,-4,-1,0
105975,495,-8183,-6,-2,-4,-1,0
105981,491,-8179,3,-2,-4,-1,0
105986,487,-8178,4,-2,-4,-1,0
105991,491,-8179,10,-2,-3,-1,0
105996,495,-8179,11,-2,-3,-1,0
106000,503,-8181,10,-2,-3,-1,0
106006,515,-8180,13,-2,-3,-1,0
106010,519,-8182,16,-2,-4,-1,0
106015,519,-8183,22,-2,-3,-1,0
106020,520,-8181,32,-2,-3,-1,0
106025,519,-8178,37,-2,-3,-1,0
106030,520,-8179,43,-2,-2,-1,0
106035,525,-8178,45,-2,-2,-1,0
106040,530,-8180,34,-2,-2,-1,0
106045,540,-8181,23,-2,-2,-1,0
106050,546,-8179,11,-2,-2,-1,0
106055,549,-8180,1,-2,-2,-1,0
106060,550,-8178,-2,-2,-2,-1,0
106065,546,-8180,5,-2,-2,-1,0
106070,541,-8180,16,-2,-2,-1,0
106075,541,-8178,27,-2,-2,-1,0
106080,544,-8181,34,-2,-2,-1,0
106085,549,-8181,31,-2,-3,-1,0
106090,560,-8181,28,-1,-3,-1,0
106095,570,-8181,22,-1,-4,-1,0
106100,578,-8185,16,-2,-4,-1,0
106105,580,-8187,23,-2,-4,-1,0
106110,574,-8188,37,-2,-3,-1,0
106115,561,-8188,61,-2,-3,-1,0
106120,551,-8188,88,-2,-3,-1,0
106125,544,-8186,106,-2,-3,-1,0
106130,542,-8188,117,-2,-3,-1,0
106135,548,-8187,112,-2,-3,-1,0
106140,560,-8186,102,-2,-3,-1,0
106145,570,-8186,87,-2,-3,-1,0
106150,573,-8189,76,-2,-2,-1,0
106155,577,-8188,74,-2,-2,-1,0
106160,576,-8186,81,-2,-2,-1,0
106165,571,-8186,98,-2,-2,-1,0
106170,569,-8185,116,-2,-2,-1,0
106175,567,-8187,125,-2,-2,-1,0
106180,573,-8184,127,-2,-2,0,0
106185,585,-8185,119,-2,-2,0,0
106190,596,-8185,99,-2,-3,0,0
106195,604,-8186,84,-2,-3,0,0
106200,607,-8188,72,-2,-3,-1,0
106205,605,-8188,72,-2,-3,0,0
106210,598,-8186,88,-2,-2,0,0
106215,591,-8185,111,-2,-2,0,0
106220,584,-8182,132,-2,-2,0,0
106225,582,-8180,144,-2,-2,0,0
106230,580,-8179,137,-2,-2,0,0
106235,580,-8178,120,-2,-2,0,0
106240,582,-8179,103,-2,-2,0,0
106245,579,-8180,85,-2,-2,0,0
106250,576,-8180,80,-2,-1,0,0
106255,577,-8181,87,-2,-1,0,0
106260,575,-8178,100,-2,-2,0,0
106265,571,-8179,117,-2,-2,0,0
106270,569,-8181,123,-2,-2,0,0
106275,570,-8182,115,-2,-2,0,0
106280,573,-8183,99,-2,-2,0,0
106285,574,-8184,83,-2,-2,0,0
106290,568,-8183,62,-2,-2,0,0
106295,563,-8184,54,-2,-2,0,0
106300,553,-8184,53,-2,-1,0,0
106305,545,-8188,64,-2,-1,0,0
106310,543,-8188,84,-2,-1,0,0
106315,540,-8187,93,-2,-1,0,0
106320,542,-8191,92,-2,-1,0,0
106325,542,-8194,85,-2,-1,0,0
106330,540,-8195,63,-2,-2,0,0
106335,538,-8193,38,-2,-2,0,0
106340,539,-8190,19,-2,-2,0,0
106345,538,-8188,13,-2,-2,0,0
106350,539,-8188,19,-2,-2,0,0
106355,540,-8188,25,-2,-2,0,0
106360,540,-8186,38,-2,-2,0,0
106365,543,-8185,48,-2,-2,0,0
106370,546,-8189,52,-2,-2,0,0
106375,549,-8188,40,-2,-2,0,0
106380,554,-8190,23,-2,-2,0,0
106385,556,-8189,7,-2,-2,0,0
106390,554,-8186,-1,-2,-2,0,0
106395,548,-8187,-1,-2,-2,0,0
106400,540,-8186,5,-2,-1,0,0
106405,539,-8185,15,-2,-1,0,0
106410,539,-8184,24,-2,-1,0,0
106415,544,-8183,26,-2,-1,0,0
106420,553,-8181,17,-2,-1,0,0
106425,564,-8180,6,-2,-1,0,0
106430,575,-8182,-7,-2,-1,0,0
106435,579,-8186,-21,-2,-1,0,0
106440,578,-8186,-27,-2,-2,0,0
106445,578,-8185,-30,-2,-2,0,0
106450,574,-8185,-22,-2,-2,0,0
106455,570,-8187,-12,-2,-2,0,0
106460,568,-8185,1,-2,-2,0,0
106465,562,-8184,10,-2,-2,0,0
106470,558,-8182,13,-2,-2,0,0
106475,552,-8180,9,-2,-2,0,0
106480,547,-8179,-2,-2,-2,0,0
106485,541,-8180,-8,-2,-1,0,0
106490,534,-8180,-11,-2,-1,0,0
106495,526,-8180,-8,-2,-1,0,0
106500,514,-8181,3,-2,-1,0,0
106505,510,-8183,16,-2,-1,0,0
106510,506,-8185,23,-2,-1,0,0
106515,506,-8182,24,-2,-1,0,0
106520,504,-8182,21,-2,-1,0,0
106525,505,-8182,8,-2,-1,0,0
106530,506,-8186,-4,-2,-1,0,0
106535,504,-8186,-12,-2,-2,0,0
106540,495,-8184,-22,-2,-2,0,0
106545,487,-8185,-19,-2,-3,0,0
106550,478,-8185,-13,-2,-3,0,0
106555,470,-8185,-5,-2,-2,0,0
106560,466,-8183,11,-2,-2,0,0
106565,467,-8183,18,-2,-2,0,0
106570,473,-8182,19,-2,-3,0,0
106575,481,-8183,16,-2,-3,0,0
106581,488,-8184,12,-2,-3,0,0
106586,492,-8185,9,-2,-2,-1,0
106590,497,-8184,2,-2,-2,-1,0
106596,501,-8185,10,-2,-2,-1,0
106602,507,-8184,19,-2,-2,-1,0
106607,514,-8183,29,-2,-2,-1,0
106611,521,-8184,36,-2,-3,-1,0
106615,532,-8185,40,-2,-3,0,0
106620,543,-8185,36,-2,-4,-1,0
106626,546,-8183,32,-2,-4,-1,0
106630,550,-8182,37,-2,-4,-1,0
106635,545,-8181,40,-2,-3,-1,0
106640,536,-8181,47,-2,-3,-1,0
106645,528,-8180,63,-2,-3,-1,0
106650,526,-8179,76,-2,-3,-1,0
106655,526,-8178,82,-2,-3,-1,0
106660,529,-8178,80,-2,-3,0,0
106665,532,-8178,73,-2,-3,-1,0
106670,538,-8180,65,-2,-3,-1,0
106675,543,-8181,55,-2,-3,-1,0
106681,541,-8181,52,-2,-3,-1,0
106685,538,-8181,54,-2,-2,-1,0
106690,536,-8182,61,-2,-2,0,0
106695,537,-8182,75,-2,-2,0,0
106700,547,-8183,82,-2,-2,0,0
106706,560,-8182,85,-2,-2,0,0
106710,574,-8182,83,-2,-2,0,0
106715,587,-8181,81,-2,-2,0,0
106721,595,-8185,74,-2,-2,0,0
106726,596,-8185,73,-2,-1,0,0
106730,590,-8186,75,-2,-1,-1,0
106735,583,-8187,83,-2,-1,0,0
106740,574,-8188,95,-2,-1,0,0
106745,572,-8187,108,-2,-1,0,0
106750,576,-8188,115,-2,-1,0,0
106755,583,-8188,118,-2,-1,0,0
106760,592,-8187,114,-2,-1,0,0
106765,598,-8185,108,-2,-1,0,0
106770,597,-8184,101,-2,-1,0,0
106776,588,-8183,96,-2,-1,0,0
106781,579,-8184,96,-2,-1,0,0
106787,572,-8184,99,-2,-1,0,0
106792,570,-8185,102,-2,-1,0,0
106797,572,-8184,104,-2,-1,0,0
106803,578,-8186,105,-2,-1,0,0
106809,588,-8186,101,-2,-1,0,0
106814,595,-8188,87,-2,-1,0,0
106820,598,-8188,76,-2,-1,0,0
106826,596,-8186,75,-2,-1,0,0
106830,586,-8183,75,-2,-1,0,0
106836,571,-8181,75,-2,-1,0,0
106842,561,-8181,79,-2,-1,0,0
106847,555,-8181,83,-2,-1,0,0
106852,553,-8183,80,-2,-1,0,0
106857,554,-8185,81,-2,-1,0,0
106861,557,-8186,76,-2,-1,0,0
106865,559,-8187,69,-2,-1,0,0
106869,561,-8187,63,-2,-1,0,0
106874,557,-8187,56,-2,-1,0,0
106879,551,-8183,57,-2,-1,0,0
106883,541,-8183,59,-2,-1,0,0
106887,534,-8181,59,-2,-1,0,0
106891,528,-8180,60,-2,-1,0,0
106895,522,-8177,59,-2,-1,0,0
106901,524,-8174,53,-2,-1,0,0
106905,530,-8176,48,-2,-1,0,0
106910,534,-8176,44,-2,-1,0,0
106915,529,-8178,44,-2,-1,0,0
106920,520,-8181,47,-2,-1,0,0
106925,508,-8182,46,-2,-1,0,0
106930,500,-8184,43,-2,-1,0,0
106935,491,-8183,38,-2,-1,0,0
106940,483,-8181,31,-2,-1,0,0
106945,485,-8180,25,-2,-1,0,0
106950,493,-8178,16,-2,-1,0,0
106955,496,-8179,5,-2,-1,0,0
106960,502,-8182,-2,-2,-1,0,0
106965,507,-8183,-11,-2,-1,0,0
106970,508,-8182,-17,-2,-1,0,0
106975,505,-8185,-15,-2,-2,0,0
106980,498,-8185,-15,-2,-2,0,0
106985,492,-8186,-15,-2,-2,0,0
106990,490,-8189,-17,-2,-2,0,0
106995,488,-8189,-19,-2,-2,0,0
107001,492,-8188,-21,-2,-2,0,0
107006,495,-8191,-21,-2,-2,-1,0
107011,495,-8190,-20,-2,-2,-1,0
107015,496,-8187,-19,-2,-2,-1,0
107020,497,-8186,-14,-2,-2,-1,0
107026,499,-8185,-14,-2,-2,-1,0
107030,499,-8185,-13,-2,-3,-1,0
107035,498,-8186,-10,-2,-3,-1,0
107040,501,-8184,-7,-2,-3,-1,0
107046,502,-8183,-5,-2,-3,-1,0
107050,508,-8182,-1,-2,-3,-1,0
107056,513,-8181,2,-2,-3,-1,0
107060,519,-8180,5,-2,-3,-1,0
107065,523,-8180,9,-2,-3,-1,0
107070,524,-8180,16,-2,-3,-1,0
107075,524,-8180,24,-2,-3,-1,0
107080,524,-8182,24,-2,-3,-1,0
107085,528,-8181,24,-2,-3,-1,0
107090,532,-8184,24,-2,-3,-1,0
107095,539,-8188,23,-2,-3,-1,0
107100,544,-8187,23,-2,-3,-1,0
107105,547,-8187,31,-2,-3,-1,0
107110,553,-8189,41,-2,-3,-1,0
107114,558,-8186,51,-2,-3,-1,0
107120,560,-8184,62,-2,-3,-1,0
107125,561,-8182,67,-2,-3,-1,0
107129,563,-8180,69,-2,-3,-1,0
107135,567,-8180,68,-2,-3,-1,0
107140,573,-8181,62,-2,-3,-1,0
107145,577,-8183,62,-2,-3,-1,0
107150,582,-8182,68,-2,-3,-1,0
107155,589,-8180,75,-2,-3,-1,0
107159,591,-8181,85,-2,-3,-1,0
107164,588,-8181,91,-2,-3,-1,0
107170,583,-8182,98,-2,-3,-1,0
107175,575,-8183,102,-2,-3,-1,0
107179,571,-8184,103,-2,-3,0,0
107184,569,-8184,99,-2,-2,0,0
107189,572,-8184,97,-2,-2,0,0
107195,580,-8184,95,-2,-2,0,0
107200,590,-8183,94,-2,-2,0,0
107205,595,-8185,92,-2,-2,0,0
107210,594,-8186,94,-2,-2,0,0
107215,594,-8185,96,-2,-2,0,0
107220,591,-8183,99,-2,-2,0,0
107225,585,-8184,100,-2,-2,0,0
107229,576,-8181,101,-2,-2,0,0
107235,569,-8180,100,-2,-2,0,0
107240,562,-8180,99,-2,-1,0,0
107245,556,-8183,96,-2,-1,0,0
107250,556,-8186,95,-2,-1,0,0
107255,559,-8184,98,-2,-1,0,0
107259,561,-8182,96,-2,-1,0,0
107264,556,-8181,92,-2,-1,0,0
107269,555,-8180,83,-2,-1,0,0
107274,554,-8177,77,-2,-1,0,0
107279,555,-8174,75,-2,-1,0,0
107284,552,-8175,73,-2,-1,0,0
107289,553,-8174,65,-2,-1,0,0
107294,556,-8176,63,-2,-1,0,0
107299,559,-8175,64,-2,-1,0,0
107305,560,-8176,63,-2,-1,0,0
107310,556,-8177,66,-2,-1,0,0
107315,556,-8176,66,-2,-1,0,0
107320,556,-8177,64,-2,-1,0,0
107325,557,-8177,62,-2,-1,0,0
107329,556,-8178,56,-2,-2,0,0
107335,557,-8179,49,-2,-2,0,0
107340,563,-8180,44,-2,-2,0,0
107344,573,-8180,40,-2,-2,0,0
107349,578,-8182,35,-2,-2,0,0
107354,580,-8181,35,-2,-2,0,0
107359,577,-8180,37,-2,-2,0,0
107364,570,-8179,33,-2,-2,0,0
107370,564,-8179,30,-2,-2,0,0
107376,555,-8179,32,-2,-2,0,0
107381,550,-8180,31,-2,-1,0,0
107386,549,-8181,26,-2,-1,0,0
107390,551,-8180,22,-2,-1,0,0
107395,555,-8180,12,-2,-1,0,0
107401,560,-8183,9,-2,-1,0,0
107405,560,-8184,5,-2,-1,0,0
107410,560,-8185,5,-2,-1,0,0
107415,552,-8184,4,-2,-1,0,0
107420,543,-8184,4,-2,-1,0,0
107425,535,-8187,3,-2,-1,0,0
107430,533,-8188,1,-2,-1,0,0
107435,536,-8190,0,-2,-1,0,0
107440,538,-8189,1,-2,-1,0,0
107444,540,-8188,3,-2,-2,0,0
107450,539,-8186,6,-2,-2,0,0
107455,541,-8185,7,-2,-2,0,0
107459,539,-8186,8,-2,-2,0,0
107465,533,-8185,11,-2,-2,0,0
107470,530,-8184,13,-2,-2,0,0
107475,527,-8184,13,-2,-2,0,0
107480,523,-8184,19,-2,-2,0,0
107485,528,-8183,23,-2,-2,0,0
107491,533,-8184,27,-2,-2,0,0
107497,537,-8187,30,-2,-2,0,0
107502,539,-8187,36,-2,-2,0,0
107508,536,-8190,42,-2,-2,0,0
107513,536,-8190,50,-2,-1,0,0
107519,530,-8190,49,-2,-1,0,0
107525,527,-8189,47,-2,-1,0,0
107530,525,-8189,43,-2,-1,0,0
107535,524,-8185,42,-2,-1,0,0
107541,526,-8184,44,-2,-2,0,0
107547,535,-8185,44,-2,-2,0,0
107551,542,-8186,44,-2,-2,0,0
107557,549,-8187,50,-2,-2,0,0
107563,549,-8189,53,-2,-2,0,0
107569,546,-8190,54,-2,-2,0,0
107574,542,-8187,56,-2,-2,0,0
107578,535,-8187,63,-2,-2,0,0
107582,528,-8187,69,-2,-2,0,0
107587,523,-8186,74,-2,-2,0,0
107590,525,-8186,83,-2,-2,0,0
107595,527,-8187,93,-2,-2,0,0
107599,531,-8188,92,-2,-2,0,0
107603,534,-8185,89,-2,-1,0,0
107607,534,-8181,89,-2,-1,0,0
107611,533,-8179,89,-2,-1,-1,0
107616,536,-8181,88,-2,-1,-1,0
107621,536,-8182,88,-2,-1,0,0
107626,538,-8183,90,-2,-2,0,0
107630,540,-8184,86,-2,-2,0,0
107634,544,-8185,84,-2,-3,0,0
107639,551,-8184,79,-2,-3,0,0
107644,559,-8182,73,-2,-3,0,0
107649,562,-8183,72,-2,-2,0,0
107654,563,-8183,75,-2,-2,-1,0
107659,560,-8181,72,-2,-2,-1,0
107664,554,-8179,73,-2,-2,0,0
107669,545,-8178,76,-2,-2,0,0
107674,542,-8178,72,-2,-2,0,0
107679,541,-8179,73,-2,-2,0,0
107684,542,-8180,72,-2,-1,0,0
107689,543,-8181,70,-2,-1,0,0
107694,543,-8183,69,-2,-1,0,0
107699,551,-8185,65,-2,-1,0,0
107704,558,-8188,67,-2,-1,0,0
107710,561,-8189,64,-2,-1,0,0
107715,561,-8188,57,-2,-1,0,0
107719,560,-8189,49,-2,-1,0,0
107724,557,-8188,44,-2,-1,0,0
107729,552,-8189,43,-2,-1,0,0
107734,553,-8187,44,-2,-1,0,0
107739,555,-8188,50,-2,-1,0,0
107744,558,-8188,51,-2,-1,0,0
107749,562,-8187,48,-2,-2,0,0
107754,564,-8188,47,-2,-1,0,0
107759,562,-8188,45,-2,-1,0,0
107764,561,-8184,44,-2,-1,-1,0
107769,556,-8185,42,-2,-1,0,0
107774,551,-8182,41,-2,-1,0,0
107779,550,-8182,49,-2,-1,0,0
107784,550,-8183,53,-2,-1,0,0
107789,558,-8187,53,-2,-1,0,0
107794,567,-8187,50,-2,-1,0,0
107799,572,-8188,45,-2,-1,0,0
107804,575,-8188,38,-2,-1,0,0
107809,576,-8188,30,-2,-2,0,0
107814,571,-8188,25,-2,-2,0,0
107819,562,-8187,27,-2,-2,0,0
107824,556,-8187,28,-2,-2,0,0
107829,551,-8189,37,-2,-2,0,0
107834,548,-8187,41,-2,-2,0,0
107839,552,-8188,44,-2,-2,0,0
107844,561,-8191,42,-2,-2,0,0
107849,569,-8191,44,-2,-2,0,0
107854,572,-8188,42,-2,-2,0,0
107859,575,-8186,39,-2,-2,0,0
107864,572,-8186,42,-2,-2,0,0
107869,563,-8187,47,-2,-2,0,0
107874,554,-8187,53,-2,-2,0,0
107879,551,-8185,60,-2,-1,0,0
107884,549,-8186,64,-2,-1,0,0
107889,549,-8183,70,-2,-1,0,0
107894,553,-8181,64,-2,-2,0,0
107899,553,-8179,62,-2,-2,0,0
107904,558,-8178,57,-2,-2,0,0
107909,561,-8177,52,-2,-2,0,0
107914,560,-8175,48,-2,-2,0,0
107919,558,-8178,47,-2,-2,0,0
107924,551,-8182,49,-2,-2,0,0
107929,545,-8185,53,-2,-2,0,0
107934,545,-8188,54,-2,-2,0,0
107939,544,-8186,52,-2,-2,0,0
107944,544,-8184,52,-2,-2,0,0
107949,548,-8183,53,-2,-1,0,0
107954,550,-8182,53,-2,-1,0,0
107959,551,-8185,55,-2,-1,0,0
107964,556,-8186,56,-2,-1,0,0
107969,560,-8185,55,-2,-1,0,0
107974,562,-8188,58,-2,-2,0,0
107979,562,-8187,58,-2,-2,0,0
107984,559,-8185,58,-2,-2,0,0
107989,557,-8184,58,-2,-2,0,0
107994,551,-8183,60,-2,-1,0,0
107999,547,-8183,60,-2,-1,0,0
108004,545,-8185,60,-2,-1,0,0
108009,544,-8185,58,-2,-1,0,0
108014,550,-8186,53,-2,-1,0,0
108019,558,-8186,50,-2,-2,0,0
108024,566,-8184,48,-2,-2,0,0
108029,575,-8184,45,-2,-2,0,0
108034,578,-8180,45,-2,-2,0,0
108039,575,-8178,49,-2,-2,0,0
108044,568,-8178,54,-2,-1,0,0
108049,558,-8180,58,-2,-1,0,0
108054,550,-8180,59,-2,-1,0,0
108059,550,-8184,57,-2,-1,0,0
108064,553,-8186,52,-2,-1,0,0
108069,557,-8186,42,-2,-1,0,0
108074,566,-8186,29,-2,-1,0,0
108079,573,-8185,15,-2,-2,0,0
108084,572,-8186,8,-2,-2,0,0
108089,567,-8185,12,-2,-2,0,0
108094,563,-8183,21,-2,-1,0,0
108099,555,-8182,31,-2,-1,0,0
108104,547,-8182,40,-2,-1,0,0
108109,549,-8181,40,-2,-1,0,0
108114,557,-8180,37,-2,-1,0,0
108119,569,-8181,30,-2,-2,0,0
108124,581,-8185,21,-2,-2,0,0
108129,589,-8189,14,-2,-2,0,0
108134,590,-8190,15,-2,-2,0,0
108139,583,-8193,23,-2,-2,0,0
108144,568,-8191,30,-2,-1,0,0
108149,553,-8190,45,-2,-1,0,0
108154,543,-8189,53,-2,-1,0,0
108159,540,-8191,57,-2,-1,0,0
108164,543,-8191,58,-2,-1,0,0
108169,556,-8191,51,-2,-1,0,0
108174,572,-8191,44,-2,-1,0,0
108179,581,-8190,39,-2,-1,0,0
108184,585,-8188,39,-2,-2,0,0
108189,577,-8185,40,-2,-1,0,0
108194,561,-8185,49,-2,-1,0,0
108199,546,-8187,65,-2,-1,0,0
108204,535,-8184,81,-2,-1,0,0
108209,531,-8182,92,-2,-1,0,0
108214,534,-8181,88,-2,-1,0,0
108219,547,-8178,80,-2,-2,0,0
108224,565,-8181,60,-2,-2,0,0
108229,580,-8181,44,-2,-2,0,0
108234,586,-8182,40,-2,-2,0,0
108239,581,-8180,40,-2,-2,0,0
108244,570,-8180,56,-2,-2,0,0
108249,555,-8182,71,-2,-2,0,0
108254,541,-8184,85,-2,-2,0,0
108259,534,-8187,89,-2,-2,0,0
108264,533,-8188,88,-2,-2,0,0
108269,541,-8189,74,-2,-1,0,0
108274,555,-8189,60,-2,-1,0,0
108279,566,-8189,49,-2,-1,0,0
108284,571,-8188,45,-2,-1,0,0
108289,570,-8183,50,-2,-1,0,0
108294,565,-8182,65,-2,-1,0,0
108299,556,-8182,74,-2,-1,0,0
108304,545,-8181,81,-2,-1,0,0
108309,537,-8182,79,-2,-2,0,0
108314,534,-8182,70,-2,-1,0,0
108319,537,-8182,56,-2,-1,0,0
108324,543,-8181,46,-2,-1,0,0
108329,555,-8180,39,-2,-1,0,0
108334,560,-8183,39,-2,-1,0,0
108339,561,-8182,42,-2,-1,0,0
108344,557,-8185,53,-2,-1,0,0
108349,545,-8187,57,-2,-1,0,0
108354,536,-8187,58,-2,-1,0,0
108359,531,-8186,53,-2,-1,0,0
108364,529,-8187,43,-2,-1,0,0
108369,532,-8188,34,-2,-1,0,0
108374,537,-8188,26,-2,-1,0,0
108379,544,-8190,26,-2,-2,0,0
108384,551,-8188,26,-2,-2,0,0
108389,550,-8184,28,-2,-2,0,0
108394,547,-8184,28,-2,-2,0,0
108399,542,-8185,28,-2,-2,0,0
108404,537,-8184,28,-2,-2,0,0
108409,535,-8185,27,-2,-2,0,0
108414,532,-8182,26,-2,-2,0,0
108419,535,-8181,24,-2,-1,0,0
108424,539,-8181,22,-2,-1,0,0
108428,545,-8183,22,-2,-1,0,0
108433,550,-8183,24,-2,-2,0,0
108438,552,-8182,27,-2,-2,0,0
108443,554,-8182,29,-2,-2,0,0
108448,549,-8184,34,-2,-2,0,0
108453,545,-8186,34,-2,-2,0,0
108458,542,-8184,33,-2,-2,0,0
108463,539,-8184,34,-2,-2,0,0
108468,538,-8182,39,-2,-2,0,0
108473,547,-8183,41,-2,-2,0,0
108478,553,-8179,38,-2,-2,0,0
108483,561,-8179,42,-2,-2,0,0
108488,570,-8180,43,-2,-2,0,0
108493,575,-8180,46,-2,-2,0,0
108498,576,-8180,46,-2,-2,0,0
108503,575,-8177,43,-2,-2,0,0
108508,575,-8175,37,-2,-2,0,0
108513,574,-8177,39,-2,-2,0,0
108518,575,-8180,43,-2,-2,0,0
108523,575,-8186,48,-2,-2,0,0
108528,571,-8184,53,-2,-2,0,0
108533,565,-8183,56,-2,-2,0,0
108538,556,-8183,56,-2,-1,0,0
108543,549,-8184,60,-2,-1,0,0
108548,545,-8185,59,-2,-1,0,0
108553,542,-8184,56,-2,-1,0,0
108558,542,-8181,53,-2,-1,0,0
108563,541,-8178,51,-2,-1,0,0
108568,543,-8177,55,-2,-1,0,0
108573,543,-8178,57,-2,-1,0,0
108578,545,-8178,58,-2,-1,0,0
108583,549,-8177,57,-2,-2,0,0
108588,549,-8179,55,-2,-2,0,0
108593,549,-8181,51,-2,-2,0,0
108598,547,-8182,48,-2,-2,0,0
108603,545,-8184,50,-2,-2,0,0
108608,542,-8184,53,-2,-2,0,0
108613,534,-8186,53,-2,-2,0,0
108618,530,-8185,59,-2,-2,0,0
108623,528,-8187,64,-2,-2,0,0
108628,527,-8186,73,-2,-2,0,0
108633,532,-8186,78,-2,-2,0,0
108638,537,-8184,77,-2,-1,0,0
108643,542,-8184,70,-2,-1,0,0
108648,549,-8182,67,-2,-1,0,0
108653,556,-8179,67,-2,-1,0,0
108658,560,-8178,68,-2,-1,0,0
108663,566,-8176,66,-2,-2,0,0
108668,566,-8176,66,-2,-2,0,0
108673,567,-8176,68,-2,-2,0,0
108678,566,-8178,68,-2,-2,0,0
108683,564,-8180,65,-2,-2,0,0
108688,563,-8180,62,-2,-2,0,0
108693,560,-8182,57,-2,-2,0,0
108698,557,-8185,54,-2,-2,0,0
108703,557,-8185,52,-2,-2,0,0
108708,555,-8185,52,-2,-2,0,0
108713,553,-8182,55,-2,-1,0,0
108718,548,-8180,60,-2,-1,0,0
108723,544,-8179,66,-2,-1,0,0
108728,540,-8176,65,-2,-1,0,0
108733,541,-8176,58,-2,-1,0,0
108738,544,-8180,50,-2,-1,0,0
108743,549,-8183,42,-2,-1,0,0
108748,554,-8184,36,-2,-1,0,0
108753,557,-8184,36,-2,-1,0,0
108758,561,-8183,42,-2,-1,0,0
108763,559,-8183,47,-2,-2,0,0
108768,559,-8183,48,-2,-2,0,0
108773,557,-8182,47,-2,-2,0,0
108778,553,-8181,42,-2,-2,0,0
108783,548,-8184,37,-2,-2,0,0
108788,547,-8188,27,-2,-2,0,0
108793,549,-8188,23,-2,-2,0,0
108798,551,-8186,23,-2,-2,0,0
108803,554,-8186,30,-2,-2,0,0
108808,553,-8186,35,-2,-2,0,0
108813,549,-8187,36,-2,-2,0,0
108818,546,-8187,39,-2,-1,0,0
108823,546,-8186,38,-2,-1,0,0
108828,546,-8186,38,-2,-1,0,0
108833,548,-8187,38,-2,-1,0,0
108838,551,-8188,34,-2,-1,0,0
108843,556,-8188,33,-2,-1,0,0
108848,562,-8187,30,-2,-1,0,0
108853,568,-8186,28,-2,-2,0,0
108858,571,-8187,27,-2,-2,0,0
108863,574,-8190,28,-2,-2,0,0
108868,576,-8190,29,-2,-2,0,0
108873,572,-8190,33,-2,-2,0,0
108878,567,-8188,33,-2,-2,0,0
108883,562,-8187,35,-2,-2,0,0
108888,558,-8188,39,-2,-2,0,0
108893,553,-8187,45,-2,-2,0,0
108898,552,-8185,47,-2,-2,0,0
108903,552,-8188,48,-2,-1,0,0
108908,550,-8188,51,-2,-1,0,0
108913,546,-8190,52,-2,-1,0,0
108918,545,-8191,52,-2,-1,0,0
108923,547,-8191,52,-2,-1,0,0
108928,550,-8193,52,-2,-1,0,0
108933,550,-8192,49,-2,-1,0,0
108938,552,-8190,47,-2,-1,0,0
108943,557,-8191,47,-2,-1,0,0
108948,564,-8189,47,-2,-1,0,0
108953,569,-8189,43,-2,-1,0,0
108958,576,-8191,45,-2,-1,0,0
108963,578,-8192,47,-2,-2,0,0
108968,576,-8192,47,-2,-2,0,0
108973,572,-8191,42,-2,-2,0,0
108978,563,-8190,36,-2,-2,0,0
108983,556,-8192,35,-2,-2,0,0
108988,550,-8193,37,-2,-2,0,0
108993,548,-8190,41,-2,-1,0,0
108998,551,-8189,45,-2,-1,0,0
109003,552,-8189,54,-2,-1,0,0
109008,551,-8190,62,-2,-1,0,0
109013,553,-8189,59,-2,-1,0,0
109018,551,-8191,55,-2,0,0,0
109023,553,-8190,48,-2,0,0,0
109028,553,-8190,43,-2,-1,0,0
109033,553,-8192,40,-2,-1,0,0
109038,551,-8191,37,-2,-1,0,0
109043,551,-8191,34,-2,-1,0,0
109048,554,-8191,35,-2,-2,0,0
109053,554,-8191,36,-2,-2,0,0
109058,553,-8187,37,-2,-2,0,0
109063,548,-8185,36,-2,-2,0,0
109068,541,-8183,38,-2,-2,0,0
109073,534,-8184,38,-2,-2,0,0
109078,529,-8182,38,-2,-2,0,0
109083,526,-8180,43,-2,-2,0,0
109088,527,-8180,45,-2,-2,0,0
109093,530,-8180,46,-2,-1,0,0
109098,536,-8178,45,-2,-1,0,0
109103,543,-8178,43,-2,-2,0,0
109108,548,-8175,39,-2,-2,0,0
109113,550,-8174,38,-2,-1,0,0
109118,551,-8176,37,-2,-1,0,0
109123,547,-8177,36,-2,-1,0,0
109128,540,-8177,39,-2,-1,0,0
109133,540,-8176,40,-2,-1,0,0
109138,540,-8176,38,-2,-1,0,0
109143,544,-8178,39,-2,-1,0,0
109148,547,-8179,39,-2,-1,0,0
109153,553,-8181,36,-2,-1,0,0
109158,556,-8178,36,-2,-1,0,0
109163,558,-8177,35,-2,-1,0,0
109168,560,-8178,34,-2,-1,0,0
109173,558,-8179,33,-2,-2,0,0
109178,557,-8183,33,-2,-2,0,0
109183,557,-8182,33,-2,-2,0,0
109188,557,-8181,35,-2,-2,0,0
109193,558,-8182,35,-2,-2,0,0
109198,560,-8182,36,-2,-2,0,0
109203,561,-8182,41,-2,-1,0,0
109208,560,-8180,40,-2,-1,0,0
109213,561,-8180,36,-2,-1,0,0
109218,559,-8182,37,-2,-1,0,0
109223,556,-8181,35,-2,-1,0,0
109228,554,-8182,33,-2,-1,0,0
109233,551,-8182,29,-2,-1,0,0
109238,551,-8182,28,-2,-1,0,0
109243,549,-8183,30,-2,-1,0,0
109248,551,-8185,33,-2,-1,0,0
109253,557,-8185,35,-2,-1,0,0
109258,562,-8186,35,-2,-1,0,0
109263,570,-8188,33,-2,-2,0,0
109268,570,-8187,31,-2,-2,0,0
109273,567,-8185,30,-2,-2,0,0
109278,562,-8183,28,-2,-2,0,0
109283,555,-8185,30,-2,-2,0,0
109288,553,-8187,31,-2,-2,0,0
109293,555,-8187,38,-2,-2,0,0
109298,558,-8185,44,-2,-2,0,0
109303,563,-8188,50,-2,-1,0,0
109308,567,-8189,52,-2,-1,0,0
109313,571,-8188,46,-2,-1,0,0
109318,575,-8186,40,-2,-1,0,0
109323,578,-8183,40,-2,-1,0,0
109328,577,-8178,37,-2,-1,0,0
109333,575,-8177,32,-2,-1,0,0
109338,574,-8176,29,-2,-1,0,0
109343,575,-8175,29,-2,-1,0,0
109348,578,-8175,30,-2,-1,0,0
109353,580,-8177,31,-2,-1,0,0
109358,582,-8180,29,-2,-1,0,0
109363,579,-8181,27,-2,-1,0,0
109368,578,-8181,16,-2,-1,0,0
109373,577,-8182,13,-2,-1,0,0
109378,570,-8182,12,-2,-2,0,0
109383,563,-8181,10,-2,-2,0,0
109388,551,-8181,11,-2,-2,0,0
109393,544,-8180,13,-2,-1,0,0
109398,542,-8177,14,-2,-1,0,0
109403,544,-8178,14,-2,-1,0,0
109408,545,-8179,13,-2,-1,0,0
109413,545,-8177,14,-2,-1,0,0
109418,543,-8178,10,-2,-1,0,0
109423,539,-8176,5,-2,-1,0,0
109428,538,-8178,3,-2,-1,0,0
109433,535,-8177,4,-2,-2,0,0
109438,531,-8176,10,-2,-2,0,0
109443,527,-8177,15,-2,-2,0,0
109448,526,-8179,20,-2,-2,0,0
109453,524,-8179,22,-2,-2,0,0
109458,522,-8178,30,-2,-2,0,0
109463,520,-8179,35,-2,-2,0,0
109468,519,-8181,34,-2,-2,0,0
109473,519,-8183,36,-2,-1,0,0
109478,520,-8183,40,-2,-1,0,0
109483,521,-8182,44,-2,-2,0,0
109488,523,-8181,48,-2,-2,0,0
109493,524,-8180,49,-2,-2,0,0
109498,525,-8180,48,-2,-2,0,0
109503,528,-8179,44,-2,-2,0,0
109508,532,-8177,46,-2,-2,0,0
109513,535,-8180,49,-2,-2,0,0
109518,534,-8181,57,-2,-2,0,0
109523,531,-8179,62,-2,-2,0,0
109528,531,-8178,59,-2,-2,0,0
109533,531,-8178,59,-2,-2,0,0
109538,530,-8178,63,-2,-2,0,0
109543,533,-8181,65,-2,-1,0,0
109548,534,-8183,66,-2,-1,0,0
109553,536,-8182,70,-2,-1,0,0
109558,538,-8181,72,-2,-1,0,0
109563,542,-8184,70,-2,-1,0,0
109568,545,-8184,65,-2,-1,0,0
109573,547,-8183,62,-2,-1,0,0
109578,545,-8185,58,-2,-1,0,0
109583,545,-8184,55,-2,-1,0,0
109588,544,-8182,50,-2,-1,0,0
109593,544,-8181,47,-2,-1,0,0
109598,546,-8180,43,-2,-1,0,0
109603,543,-8179,41,-2,-2,0,0
109608,539,-8182,38,-2,-2,0,0
109613,533,-8185,35,-2,-2,0,0
109618,526,-8186,32,-2,-2,0,0
109624,522,-8184,29,-2,-1,0,0
109628,522,-8184,22,-2,-1,0,0
109633,524,-8184,15,-2,-1,0,0
109638,530,-8182,12,-2,-1,0,0
109643,532,-8181,11,-2,-1,0,0
109648,535,-8182,10,-2,-1,0,0
109653,536,-8183,9,-2,-2,0,0
109658,536,-8184,11,-2,-2,0,0
109663,537,-8182,11,-2,-2,0,0
109668,537,-8185,8,-2,-1,0,0
109673,538,-8187,10,-2,-2,0,0
109678,540,-8187,10,-2,-2,0,0
109683,541,-8186,10,-2,-2,0,0
109688,543,-8186,9,-2,-2,0,0
109693,549,-8187,7,-2,-2,0,0
109698,553,-8187,9,-2,-2,0,0
109703,558,-8189,13,-2,-2,0,0
109708,557,-8190,19,-2,-2,0,0
109713,552,-8193,26,-2,-2,0,0
109718,550,-8193,33,-2,-2,0,0
109723,553,-8193,38,-2,-2,0,0
109728,553,-8190,39,-2,-2,0,0
109732,554,-8190,44,-2,-1,0,0
109737,558,-8190,48,-2,-1,0,0
109742,566,-8190,50,-2,-1,0,0
109747,574,-8189,51,-2,-1,0,0
109753,577,-8187,49,-2,-1,0,0
109758,576,-8188,50,-2,-1,0,0
109763,571,-8189,52,-2,-1,0,0
109768,567,-8189,53,-2,-1,0,0
109773,565,-8187,58,-2,-1,0,0
109778,566,-8186,59,-2,-1,0,0
109783,567,-8185,57,-2,-1,0,0
109789,569,-8187,54,-2,-2,0,0
109794,568,-8187,50,-2,-2,0,0
109799,569,-8186,47,-2,-2,0,0
109805,563,-8185,47,-2,-2,0,0
109811,557,-8186,52,-2,-1,0,0
109816,549,-8188,55,-2,-1,0,0
109822,543,-8188,58,-2,-1,0,0
109828,539,-8189,59,-2,-1,0,0
109833,540,-8192,59,-2,-1,0,0
109839,543,-8192,60,-2,-1,0,0
109845,547,-8192,60,-2,-1,0,0
109850,552,-8190,53,-2,-1,0,0
109855,556,-8188,49,-2,-1,0,0
109861,560,-8189,47,-2,-1,0,0
109865,561,-8188,44,-2,-1,0,0
109869,560,-8186,46,-2,-1,0,0
109873,555,-8186,45,-2,-1,0,0
109877,549,-8187,42,-2,-1,0,0
109881,544,-8184,39,-2,-1,0,0
109886,543,-8184,32,-2,-1,0,0
109892,544,-8184,29,-2,-1,0,0
109897,543,-8184,23,-2,-1,0,0
109903,543,-8182,22,-2,-1,0,0
109909,539,-8181,18,-2,-1,0,0
109914,534,-8179,15,-2,-1,0,0
109920,529,-8177,12,-2,-1,0,0
109926,530,-8178,13,-2,-1,0,0
109931,533,-8179,11,-2,-1,0,0
109937,537,-8180,4,-2,-2,0,0
109942,539,-8183,-3,-2,-2,0,0
109948,543,-8183,-4,-2,-2,0,0
109954,548,-8181,-7,-2,-2,0,0
109960,551,-8181,-7,-2,-2,0,0
109966,551,-8181,-6,-2,-2,0,0
109972,552,-8180,1,-2,-2,0,0
109977,550,-8181,12,-2,-2,0,0
109982,545,-8182,18,-2,-2,0,0
109987,538,-8183,24,-2,-1,0,0
109992,530,-8183,30,-2,-1,0,0
109996,527,-8183,35,-2,-1,0,0
110001,528,-8185,34,-2,-1,0,0
110006,528,-8185,32,-2,-1,0,0
110011,531,-8185,28,-2,-1,0,0
110015,536,-8184,27,-2,-1,0,0
110020,540,-8185,24,-2,-1,0,0
110025,544,-8186,22,-2,-1,0,0
110030,544,-8183,24,-2,-1,0,0
110035,537,-8185,26,-2,-1,0,0
110040,530,-8189,26,-2,-1,0,0
110045,524,-8190,26,-2,-1,0,0
110049,521,-8188,30,-2,-1,0,0
110053,520,-8186,32,-2,-2,0,0
110057,522,-8185,31,-2,-2,0,0
110061,525,-8186,34,-2,-2,0,0
110065,524,-8186,37,-2,-2,0,0
110070,523,-8186,39,-2,-1,0,0
110074,519,-8185,44,-2,-1,0,0
110079,512,-8184,51,-2,-1,0,0
110083,505,-8183,53,-2,-1,0,0
110087,500,-8184,55,-2,-1,0,0
110091,498,-8182,56,-2,-1,0,0
110095,504,-8180,55,-2,-1,0,0
110099,512,-8181,53,-2,-1,0,0
110103,519,-8182,51,-2,-1,0,0
110107,525,-8183,47,-2,-1,0,0
110112,533,-8183,46,-2,-2,0,0
110117,539,-8185,49,-2,-2,0,0
110122,544,-8184,51,-2,-2,0,0
110127,547,-8186,52,-2,-2,0,0
110132,549,-8190,50,-2,-2,0,0
110137,549,-8192,47,-2,-2,0,0
110142,551,-8194,46,-2,-2,0,0
110147,552,-8194,47,-2,-2,0,0
110152,554,-8195,51,-2,-1,0,0
110157,557,-8194,58,-2,-1,0,0
110162,558,-8191,64,-2,-1,0,0
110167,557,-8190,62,-2,-1,0,0
110172,555,-8190,63,-2,-1,0,0
110177,553,-8192,57,-2,-1,0,0
110182,553,-8192,55,-2,0,0,0
110187,558,-8193,50,-2,-1,0,0
110192,566,-8193,52,-2,-1,0,0
110197,573,-8191,52,-2,-1,0,0
110202,577,-8189,51,-2,-1,0,0
110207,579,-8188,46,-2,-1,0,0
110212,577,-8188,47,-2,-2,0,0
110217,573,-8186,45,-2,-2,0,0
110222,564,-8184,42,-2,-2,0,0
110227,556,-8183,41,-2,-2,0,0
110232,548,-8181,41,-2,-1,0,0
110237,545,-8177,40,-2,-1,0,0
110242,547,-8176,39,-2,-1,0,0
110247,550,-8178,39,-2,-1,0,0
110252,552,-8181,36,-2,-1,0,0
110257,557,-8182,35,-2,-1,0,0
110262,555,-8181,37,-2,-1,0,0
110267,552,-8181,39,-2,-1,0,0
110272,545,-8182,41,-2,-1,0,0
110277,538,-8184,43,-2,-1,0,0
110282,534,-8185,48,-2,-1,0,0
110287,528,-8186,52,-2,-1,0,0
110292,528,-8184,51,-2,-1,0,0
110297,533,-8185,50,-2,-1,0,0
110302,537,-8185,51,-2,-1,0,0
110307,541,-8185,51,-2,-2,0,0
110312,540,-8186,50,-2,-2,0,0
110317,535,-8187,49,-2,-2,0,0
110322,531,-8186,48,-2,-2,0,0
110327,522,-8184,43,-2,-2,0,0
110332,515,-8184,43,-2,-2,0,0
110337,510,-8184,43,-2,-2,0,0
110342,509,-8185,42,-2,-2,0,0
110347,512,-8185,43,-2,-2,0,0
110352,515,-8184,41,-2,-2,0,0
110357,518,-8185,38,-2,-2,0,0
110362,517,-8186,40,-2,-2,0,0
110367,516,-8184,43,-2,-2,0,0
110372,514,-8182,45,-2,-2,0,0
110377,508,-8183,48,-2,-2,0,0
110382,503,-8184,44,-2,-2,0,0
110387,503,-8184,42,-2,-1,0,0
110392,503,-8185,33,-2,-2,0,0
110397,505,-8185,25,-2,-2,0,0
110402,512,-8186,17,-2,-2,0,0
110408,514,-8186,14,-2,-2,0,0
110413,518,-8183,15,-2,-2,0,0
110417,518,-8185,15,-2,-2,-1,0
110422,516,-8180,18,-2,-2,-1,0
110428,511,-8178,21,-2,-3,0,0
110433,503,-8176,22,-2,-3,0,0
110438,499,-8177,20,-2,-3,0,0
110443,499,-8178,23,-2,-2,0,0
110448,500,-8181,31,-2,-2,0,0
110452,503,-8181,36,-2,-2,-1,0
110457,507,-8183,42,-2,-2,-1,0
110462,511,-8183,49,-2,-2,-1,0
110467,515,-8185,53,-2,-2,0,0
110472,519,-8185,55,-2,-2,0,0
110477,525,-8183,56,-2,-2,0,0
110482,531,-8181,54,-2,-2,0,0
110487,535,-8182,50,-2,-2,-1,0
110492,538,-8183,49,-2,-2,0,0
110497,541,-8184,48,-2,-2,-1,0
110502,543,-8184,51,-2,-2,-1,0
110507,543,-8186,53,-2,-2,-1,0
110512,540,-8189,59,-2,-2,-1,0
110517,537,-8190,63,-2,-2,-1,0
110523,528,-8189,66,-2,-2,-1,0
110528,522,-8187,66,-2,-2,-1,0
110533,520,-8187,64,-2,-2,0,0
110538,519,-8187,60,-2,-1,0,0
110543,521,-8187,56,-2,-1,0,0
110548,525,-8186,52,-2,-1,0,0
110553,529,-8186,50,-2,-1,0,0
110558,531,-8185,47,-2,-2,-1,0
110563,532,-8186,45,-2,-2,-1,0
110567,533,-8184,40,-2,-2,-1,0
110573,532,-8184,37,-2,-2,-1,0
110577,533,-8183,33,-2,-3,-1,0
110583,536,-8182,29,-2,-3,-1,0
110588,540,-8180,28,-2,-3,0,0
110594,543,-8183,31,-2,-3,0,0
110599,547,-8183,33,-2,-3,-1,0
110605,549,-8182,40,-2,-3,-1,0
110611,549,-8183,47,-2,-3,-1,0
110616,547,-8184,52,-2,-3,-1,0
110622,548,-8186,60,-2,-3,-1,0
110628,549,-8185,67,-2,-2,-1,0
110633,548,-8183,71,-2,-2,-1,0
110639,550,-8180,70,-2,-2,-1,0
110645,557,-8182,71,-2,-2,-1,0
110651,566,-8183,74,-2,-2,0,0
110656,569,-8184,76,-2,-2,0,0
110661,571,-8183,78,-2,-2,0,0
110667,571,-8182,81,-2,-2,0,0
110673,573,-8180,83,-2,-2,0,0
110678,573,-8181,81,-2,-2,0,0
110683,573,-8180,78,-2,-2,0,0
110688,574,-8182,76,-2,-2,0,0
110693,573,-8184,69,-2,-2,0,0
110697,573,-8185,66,-2,-2,0,0
110702,573,-8187,66,-2,-2,0,0
110707,576,-8187,64,-2,-2,0,0
110712,580,-8189,61,-2,-2,0,0
110716,579,-8184,65,-2,-2,0,0
110721,577,-8182,70,-2,-1,0,0
110726,567,-8180,73,-2,-1,0,0
110731,561,-8181,76,-2,-1,0,0
110735,555,-8181,75,-2,-1,0,0
110741,552,-8182,71,-2,-1,0,0
110746,553,-8180,67,-2,-1,0,0
110751,554,-8180,60,-2,-1,0,0
110755,559,-8181,55,-2,-1,0,0
110760,559,-8182,48,-2,-1,0,0
110765,562,-8180,50,-2,-1,0,0
110770,561,-8178,50,-2,-1,0,0
110775,555,-8179,51,-2,-1,0,0
110779,550,-8179,58,-2,-1,0,0
110784,544,-8180,56,-2,-1,0,0
110789,541,-8181,50,-2,-1,0,0
110794,540,-8179,46,-2,-1,0,0
110800,539,-8179,43,-2,-1,0,0
110806,542,-8178,42,-2,-1,0,0
110811,549,-8178,42,-2,-1,0,0
110816,549,-8178,44,-2,-1,0,0
110822,551,-8178,41,-2,-1,0,0
110828,549,-8179,49,-2,-2,0,0
110833,545,-8179,52,-2,-2,0,0
110838,542,-8181,55,-2,-2,0,0
110844,538,-8181,54,-2,-2,0,0
110850,537,-8179,48,-2,-2,0,0
110855,539,-8181,47,-2,-2,0,0
110861,541,-8183,41,-2,-2,0,0
110865,542,-8182,38,-2,-2,0,0
110868,543,-8181,41,-2,-2,0,0
110872,544,-8178,40,-2,-2,0,0
110876,538,-8178,42,-2,-2,0,0
110882,529,-8177,51,-2,-2,0,0
110886,524,-8180,50,-2,-2,0,0
110891,521,-8182,51,-2,-2,0,0
110896,519,-8183,49,-2,-2,0,0
110900,518,-8185,46,-2,-2,0,0
110905,523,-8185,42,-2,-2,0,0
110910,526,-8182,39,-2,-2,0,0
110915,531,-8177,39,-2,-2,0,0
110920,536,-8178,39,-2,-2,0,0
110925,539,-8175,44,-2,-2,0,0
110930,540,-8173,49,-2,-3,0,0
110935,543,-8174,55,-2,-3,0,0
110940,547,-8174,61,-2,-3,0,0
110945,551,-8175,62,-2,-3,0,0
110950,553,-8175,64,-2,-3,0,0
110955,555,-8176,66,-2,-2,0,0
110960,556,-8178,71,-2,-2,0,3
110964,554,-8180,73,-2,-2,0,3
110969,554,-8179,74,-2,-2,0,3
110974,552,-8181,74,-2,-2,0,3
110978,549,-8184,72,-2,-2,0,3
110983,544,-8188,73,-2,-1,0,3
110988,541,-8186,75,-2,-1,0,3
110993,538,-8186,80,-2,-1,0,3
110997,537,-8184,78,-2,-1,0,3
111002,536,-8185,77,-2,-1,0,3
111007,537,-8184,72,-2,-1,0,3
111012,538,-8182,66,-2,-1,0,3
111016,538,-8180,59,-2,-2,0,3
111022,536,-8179,49,-2,-2,0,3
111027,537,-8181,45,-2,-2,0,3
111031,532,-8182,45,-2,-2,0,3
111036,526,-8181,48,-2,-2,0,3
111042,524,-8181,57,-2,-2,0,3
111047,525,-8182,66,-2,-2,0,3
111051,526,-8182,73,-2,-2,0,3
111056,527,-8182,80,-2,-2,0,3
111062,527,-8182,84,-2,-2,0,3
111067,530,-8182,85,-2,-2,0,3
111072,533,-8183,85,-2,-2,0,3
111076,538,-8181,88,-2,-2,0,3
111082,542,-8181,91,-2,-1,0,3
111086,547,-8182,98,-2,-1,0,3
111091,550,-8184,106,-2,-1,0,3
111096,553,-8184,110,-2,-1,0,3
111101,558,-8184,112,-2,-1,0,3
111106,564,-8182,113,-2,-1,0,3
111111,569,-8182,112,-2,-1,0,3
111116,573,-8185,106,-2,-1,0,3
111120,575,-8186,110,-2,-1,0,3
111126,573,-8185,111,-2,-1,0,3
111130,571,-8186,113,-2,-2,0,3
111135,565,-8185,113,-2,-2,0,3
111140,563,-8186,111,-2,-1,0,3
111145,560,-8188,108,-2,-1,0,3
111150,559,-8187,104,-2,-1,0,3
111155,563,-8188,95,-2,-1,0,3
111160,566,-8191,87,-2,-1,0,3
111165,570,-8191,80,-2,-1,0,3
111170,573,-8193,74,-2,-1,0,3
111175,575,-8191,71,-2,-1,0,3
111179,576,-8190,70,-2,-1,0,3
111184,576,-8186,66,-2,-1,0,3
111189,578,-8184,64,-2,-1,0,3
111194,578,-8185,62,-2,-1,0,3
111198,577,-8185,61,-2,-1,0,3
111203,575,-8187,59,-2,-1,0,3
111208,574,-8186,55,-2,-1,0,3
111213,575,-8184,51,-2,-1,0,3
111217,571,-8183,48,-2,-1,0,3
111222,567,-8180,42,-2,-1,0,3
111227,562,-8179,36,-2,-1,0,3
111231,557,-8179,37,-2,-1,0,3
111236,553,-8179,39,-2,-1,0,3
111242,550,-8177,34,-2,-1,0,3
111246,550,-8176,32,-2,-1,0,3
111251,553,-8177,32,-2,-1,0,3
111256,556,-8177,30,-2,-1,0,3
111262,555,-8177,29,-2,-1,0,3
111266,551,-8177,30,-2,-1,0,3
111271,545,-8177,30,-2,-1,0,3
111276,540,-8177,33,-2,-1,0,3
111281,538,-8178,31,-2,-1,0,3
111286,535,-8179,32,-2,-1,0,3
111291,531,-8179,33,-2,-2,0,3
111296,529,-8177,35,-2,-2,0,3
111301,527,-8175,41,-2,-2,0,3
111307,525,-8176,44,-2,-2,0,3
111312,524,-8176,48,-2,-2,0,3
111316,520,-8176,56,-2,-2,0,3
111321,517,-8178,63,-2,-2,0,3
111326,514,-8181,69,-2,-2,0,3
111331,509,-8182,71,-2,-2,0,3
111336,505,-8184,81,-2,-2,0,3
111342,505,-8186,93,-2,-2,0,3
111347,510,-8188,102,-2,-2,0,3
111351,513,-8186,107,-2,-1,0,3
111356,518,-8188,110,-2,-1,0,3
111361,519,-8189,116,-2,-1,0,3
111366,519,-8187,120,-2,-1,0,3
111371,521,-8188,120,-2,-1,0,3
111376,520,-8186,120,-2,-1,0,3
111381,521,-8187,121,-2,-1,0,3
111386,524,-8187,120,-2,-1,0,3
111391,528,-8188,121,-2,-1,0,3
111396,534,-8191,119,-2,-1,0,3
111401,542,-8193,119,-2,-1,0,3
111406,550,-8190,118,-2,-1,0,3
111411,555,-8190,114,-2,-1,0,3
111416,560,-8187,108,-2,-1,0,3
111421,567,-8185,104,-2,-1,0,3
111426,569,-8185,97,-2,-1,0,3
111431,569,-8186,88,-2,-1,0,3
111436,570,-8185,83,-2,-1,0,3
111441,573,-8185,77,-2,-1,0,3
111446,574,-8185,69,-2,-1,0,3
111451,575,-8186,67,-2,-1,0,3
111456,579,-8185,67,-2,-1,0,3
111461,581,-8185,67,-2,-1,0,3
111466,580,-8185,67,-2,0,0,3
111471,581,-8185,62,-2,0,0,3
111476,577,-8184,58,-2,0,0,3
111481,573,-8182,53,-2,0,0,3
111486,572,-8185,46,-2,0,0,3
111491,573,-8184,43,-2,0,0,3
111496,574,-8183,37,-2,0,0,3
111501,577,-8181,28,-2,0,0,3
111506,579,-8180,21,-2,0,0,3
111511,577,-8181,13,-2,0,0,3
111516,574,-8183,2,-2,0,0,3
111521,568,-8185,-8,-2,0,0,3
111526,554,-8185,-16,-2,-1,0,3
111531,541,-8183,-28,-2,-1,0,3
111536,521,-8184,-41,-2,-1,0,3
111542,503,-8184,-46,-2,-1,0,3
111547,495,-8188,-45,-2,-1,0,3
111552,498,-8190,-42,-2,-1,0,3
111556,512,-8190,-34,-2,-1,0,3
111562,543,-8188,-18,-2,-1,0,3
111567,579,-8182,-9,-2,0,0,3
111572,618,-8179,-5,-2,0,0,3
111576,654,-8181,-10,-2,0,0,3
111581,686,-8180,-27,-2,1,0,3
111587,719,-8173,-53,-2,1,0,3
111591,744,-8170,-80,-2,2,0,3
111596,761,-8166,-111,-2,1,0,3
111601,759,-8164,-142,-2,2,0,3
111606,754,-8165,-169,-2,2,0,3
111611,740,-8166,-176,-1,2,0,3
111616,715,-8168,-173,-1,2,0,3
111621,687,-8173,-170,-1,1,1,3
111626,662,-8219,-164,-1,2,1,3
111631,645,-8337,-180,-1,2,1,3
111636,709,-8505,-206,-1,3,0,3
111641,813,-8688,-242,-1,4,0,3
111646,928,-8885,-264,0,2,0,3
111651,991,-9087,-265,0,0,0,3
111656,1005,-9279,-245,0,-2,0,3
111661,976,-9450,-204,0,-3,0,3
111666,943,-9597,-162,0,-3,0,3
111671,930,-9722,-120,0,-2,0,3
111676,954,-9822,-80,0,-1,0,3
111681,982,-9898,-38,0,0,0,3
111686,1001,-9954,3,0,0,0,3
111691,986,-9991,46,0,0,-1,3
111696,949,-10013,81,0,0,-1,3
111701,902,-10019,107,0,0,-1,3
111706,868,-10011,132,-1,1,-1,3
111711,854,-9985,153,-1,3,-1,3
111716,857,-9937,171,-1,3,-1,3
111722,853,-9859,177,-1,3,-1,3
111727,831,-9746,174,-1,1,0,3
111733,784,-9607,169,-1,1,0,3
111737,720,-9446,162,-1,0,0,3
111743,655,-9268,165,-1,-1,0,3
111748,595,-9064,173,-1,-1,0,3
111754,546,-8832,177,-1,-2,0,3
111758,499,-8578,182,-1,-3,0,3
111764,447,-8294,193,-1,-3,0,3
111770,374,-7981,206,-1,-4,0,3
111775,286,-7644,220,-1,-3,0,3
111779,188,-7299,236,-1,-2,0,3
111783,100,-6952,245,-1,-1,0,3
111789,29,-6608,244,-1,0,0,3
111793,-18,-6264,231,-1,1,0,3
111798,-45,-5933,207,-1,2,0,3
111802,-72,-5618,181,-1,1,0,3
111807,-102,-5315,153,-1,0,0,3
111811,-144,-5021,131,-1,-1,0,3
111816,-188,-4740,119,-1,-2,0,3
111821,-232,-4476,114,-1,-4,-1,3
111826,-266,-4232,109,-1,-5,-1,3
111831,-297,-4013,113,-1,-6,-2,3
111836,-323,-3815,123,-1,-6,-2,3
111842,-346,-3637,142,-2,-5,-2,3
111847,-363,-3485,165,-2,-5,-3,3
111852,-370,-3357,200,-2,-4,-3,3
111857,-362,-3261,240,-3,-2,-4,3
111862,-340,-3200,285,-3,-1,-5,3
111867,-307,-3179,341,-4,-1,-5,3
111871,-273,-3211,406,-4,1,-6,3
111876,-231,-3308,468,-5,2,-7,3
111881,-174,-3479,508,-6,4,-7,3
111886,-85,-3733,512,-6,6,-8,3
111891,41,-4071,476,-7,9,-8,3
111896,276,-5829,320,-7,12,-9,3
111901,1167,-5015,653,-8,45,-11,3
111906,517,-6639,141,-6,38,-7,3
111911,1159,-7357,338,-3,-49,-1,3
111916,841,-7133,445,-1,-49,11,3
111921,130,-7887,466,-2,-29,6,3
111926,227,-8539,416,-3,34,0,3
111931,749,-8674,302,-4,57,-4,3
111936,1258,-8733,214,-4,25,-3,3
111941,1264,-8857,194,-4,-5,-1,3
111946,1051,-8956,147,-3,-5,-2,3
111951,825,-8930,122,-2,10,-3,3
111956,668,-8868,36,-2,8,-2,3
111961,533,-8860,-157,-2,-1,-1,3
111966,777,-8904,-325,-2,3,-1,3
111971,1023,-8937,-424,-2,7,-1,3
111976,1257,-8996,-378,-2,5,-2,3
111981,1325,-9046,-306,-2,1,-2,3
111986,1215,-9036,-245,-1,-2,-2,3
111991,1040,-8967,-261,-1,-1,-1,3
111996,929,-8864,-303,-1,-2,-1,3
112001,901,-8742,-378,-1,-2,0,3
112006,1034,-8593,-369,-1,-4,0,3
112011,1162,-8410,-309,-1,-7,0,3
112016,1235,-8201,-182,-1,-13,-1,3
112021,1202,-7962,-83,0,-18,-1,3
112026,1020,-7681,6,0,-19,-1,3
112031,802,-7353,37,-1,-18,-1,3
112036,620,-6992,124,-1,-14,0,3
112041,530,-6609,194,-2,-9,0,3
112046,565,-6213,321,-2,-6,0,3
112051,593,-5812,441,-3,-5,0,3
112056,580,-5429,518,-3,-6,-1,3
112061,472,-5061,547,-4,-7,-1,3
112066,294,-4712,547,-4,-6,-1,3
112071,174,-4384,551,-5,-3,-2,3
112076,127,-4085,579,-6,0,-2,3
112081,170,-3820,623,-6,2,-2,3
112086,250,-3594,628,-7,4,-3,3
112091,295,-3413,603,-7,4,-3,3
112096,317,-3281,526,-8,5,-4,3
112101,298,-3186,434,-8,6,-4,3
112106,176,-5070,-316,-6,9,-4,3
112111,424,-3675,115,-11,42,-7,3
112116,1245,-3600,262,-6,-2,-4,3
112121,1357,-3996,570,-2,-51,6,3
