millis,ax,ay,az,gx,gy,gz,label
1829148,34,-8366,698,0,-1,-1,0
1829153,34,-8364,707,0,-1,-1,0
1829158,34,-8363,713,0,-1,-1,0
1829162,29,-8365,720,0,0,-1,0
1829167,28,-8368,720,0,0,-1,0
1829173,25,-8369,720,0,0,-1,0
1829177,23,-8371,715,0,0,-1,0
1829183,21,-8370,712,0,0,-1,0
1829187,23,-8370,709,0,0,-1,0
1829193,25,-8371,708,0,0,-1,0
1829198,26,-8373,708,0,0,-1,0
1829202,24,-8371,711,0,0,-1,0
1829208,21,-8370,710,0,0,-1,0
1829212,18,-8368,708,0,0,-1,0
1829217,14,-8368,704,0,0,-1,0
1829223,5,-8369,701,0,0,-1,0
1829227,-4,-8369,699,0,0,-1,0
1829232,-13,-8368,698,0,0,-1,0
1829237,-18,-8365,696,0,0,-1,0
1829242,-22,-8363,696,0,0,-1,0
1829247,-25,-8366,693,0,0,-1,0
1829253,-25,-8367,692,0,0,-1,0
1829258,-23,-8368,692,0,0,-1,0
1829263,-15,-8369,694,0,0,-1,0
1829267,-8,-8371,695,0,0,-1,0
1829272,-1,-8371,693,0,0,-1,0
1829277,2,-8370,696,0,0,-1,0
1829282,2,-8372,699,0,0,-1,0
1829287,5,-8371,701,0,0,-1,0
1829292,4,-8371,700,0,0,-1,0
1829297,3,-8371,698,0,0,-1,0
1829302,-2,-8371,701,0,0,-1,0
1829307,-2,-8371,704,0,0,-1,0
1829312,0,-8374,703,0,0,-1,0
1829317,0,-8374,701,0,0,-1,0
1829322,0,-8372,701,0,0,-1,0
1829327,2,-8371,700,0,0,-1,0
1829332,4,-8372,709,0,0,-1,0
1829337,6,-8374,714,0,0,-1,0
1829342,6,-8375,727,0,0,-1,0
1829347,3,-8376,732,0,0,-1,0
1829352,-4,-8374,739,0,0,-1,0
1829357,-12,-8375,747,0,0,-1,0
1829362,-20,-8373,751,0,0,-1,0
1829367,-28,-8372,757,0,0,-1,0
1829372,-30,-8369,763,0,0,-1,0
1829377,-32,-8369,768,0,0,-1,0
1829382,-28,-8370,773,0,0,-1,0
1829387,-19,-8369,779,0,0,-1,0
1829392,-12,-8367,781,0,0,-1,0
1829397,-8,-8368,778,0,0,-1,0
1829402,-6,-8367,772,0,0,-1,0
1829407,-6,-8367,767,0,0,-1,0
1829412,-5,-8370,762,0,0,-1,0
1829417,-5,-8371,757,0,0,-1,0
1829422,-5,-8373,752,0,0,-1,0
1829427,-8,-8376,749,0,0,-1,0
1829432,-15,-8373,753,0,0,-1,0
1829437,-14,-8372,756,0,0,-1,0
1829442,-9,-8369,763,0,0,-1,0
1829447,-5,-8368,770,0,0,-1,0
1829452,1,-8369,776,0,-1,-1,0
1829457,8,-8371,780,0,-1,-1,0
1829462,15,-8374,784,0,-1,-1,0
1829467,16,-8375,790,0,-1,-1,0
1829472,19,-8377,797,0,-1,-1,0
1829477,23,-8378,802,0,0,-1,0
1829482,26,-8379,805,0,0,-1,0
1829487,28,-8379,805,0,0,-1,0
1829492,30,-8379,804,0,0,-1,0
1829497,28,-8380,808,0,0,-1,0
1829502,24,-8379,813,0,0,-1,0
1829507,18,-8378,816,0,-1,-1,0
1829512,10,-8379,817,0,-1,-1,0
1829517,3,-8377,816,0,-1,-1,0
1829522,4,-8374,818,0,0,-1,0
1829527,6,-8374,811,0,0,-1,0
1829532,11,-8374,800,0,0,-1,0
1829537,22,-8375,793,0,0,-1,0
1829542,32,-8375,789,0,0,-1,0
1829547,39,-8373,779,0,0,-1,0
1829552,41,-8373,771,0,0,-1,0
1829557,37,-8373,766,0,0,-1,0
1829562,31,-8373,768,0,0,-1,0
1829567,23,-8372,771,0,0,-1,0
1829572,12,-8371,771,0,0,-1,0
1829577,4,-8371,771,0,0,-1,0
1829582,-2,-8371,768,0,0,-1,0
1829587,-5,-8371,767,0,0,-1,0
1829592,-2,-8369,767,0,0,-1,0
1829597,3,-8370,768,0,0,-1,0
1829602,9,-8371,765,0,0,-1,0
1829607,16,-8375,758,0,0,0,0
1829612,24,-8377,758,0,0,-1,0
1829617,29,-8380,765,0,0,-1,0
1829622,31,-8378,770,0,0,-1,0
1829627,30,-8376,773,0,0,-1,0
1829632,21,-8374,776,0,0,-1,0
1829637,11,-8372,773,0,0,-1,0
1829642,-2,-8372,774,0,0,-1,0
1829647,-10,-8369,772,0,0,-1,0
1829652,-15,-8369,768,0,0,-1,0
1829657,-15,-8371,768,0,0,-1,0
1829662,-12,-8369,764,0,0,-1,0
1829667,-1,-8369,764,0,0,-1,0
1829672,8,-8369,764,0,0,-1,0
1829677,23,-8368,764,0,0,-1,0
1829682,37,-8367,765,0,0,-1,0
1829687,48,-8370,772,0,0,-1,0
1829692,58,-8373,774,0,0,-1,0
1829697,63,-8375,780,0,0,-1,0
1829702,62,-8374,782,0,0,-1,0
1829707,56,-8371,782,0,0,-1,0
1829712,50,-8370,780,0,0,-1,0
1829717,45,-8370,783,0,0,0,0
1829722,41,-8372,789,0,0,0,0
1829727,39,-8373,794,0,0,-1,0
1829732,36,-8376,797,0,0,0,0
1829737,37,-8377,800,0,0,0,0
1829742,41,-8378,804,0,0,0,0
1829747,46,-8380,808,0,0,0,0
1829752,49,-8380,808,0,0,0,0
1829757,50,-8380,806,0,0,0,0
1829762,45,-8380,806,0,0,0,0
1829767,40,-8378,802,0,0,0,0
1829772,29,-8378,797,0,0,0,0
1829777,16,-8376,795,0,0,0,0
1829782,5,-8375,795,0,0,0,0
1829787,0,-8372,791,0,0,0,0
1829792,-2,-8369,787,0,0,0,0
1829797,-1,-8367,785,0,0,-1,0
1829802,0,-8369,781,0,0,0,0
1829807,2,-8370,782,0,0,0,0
1829812,5,-8369,784,0,0,0,0
1829817,13,-8370,780,0,0,0,0
1829822,16,-8370,777,0,0,-1,0
1829827,18,-8372,774,0,0,-1,0
1829832,19,-8373,778,0,0,-1,0
1829837,17,-8373,774,0,0,-1,0
1829842,15,-8375,770,0,0,-1,0
1829847,11,-8376,770,0,0,-1,0
1829852,4,-8377,770,0,0,-1,0
1829857,0,-8378,779,-1,0,-1,0
1829862,-3,-8379,784,-1,0,0,0
1829867,-5,-8380,789,-1,0,-1,0
1829872,-6,-8380,793,0,0,-1,0
1829877,-6,-8379,795,0,0,-1,0
1829882,-4,-8378,794,-1,0,-1,0
1829887,-4,-8378,790,-1,0,-1,0
1829892,-1,-8376,787,-1,0,-1,0
1829897,3,-8376,787,-1,0,-1,0
1829902,6,-8377,791,-1,0,-1,0
1829907,7,-8379,793,-1,0,-1,0
1829912,9,-8379,790,-1,0,-1,0
1829917,7,-8380,790,-1,0,-1,0
1829922,8,-8380,781,-1,0,-1,0
1829927,7,-8377,777,-1,0,-1,0
1829932,5,-8377,771,-1,0,-1,0
1829937,0,-8376,773,-1,0,-1,0
1829942,-4,-8374,771,-1,0,-1,0
1829947,-6,-8374,767,-1,0,-1,0
1829952,-5,-8374,764,-1,0,-1,0
1829957,2,-8375,757,-1,0,-1,0
1829962,6,-8377,749,0,0,-1,0
1829967,8,-8375,741,0,0,-1,0
1829972,14,-8373,735,0,0,-1,0
1829977,20,-8373,729,0,0,-1,0
1829982,26,-8375,727,-1,0,-1,0
1829987,27,-8375,728,-1,0,-1,0
1829992,25,-8374,733,-1,-1,-1,0
1829997,22,-8376,738,0,-1,-1,0
1830002,19,-8374,746,0,0,-1,0
1830007,16,-8370,751,0,0,-1,0
1830012,19,-8366,751,0,0,-1,0
1830017,21,-8364,748,0,0,-1,0
1830022,24,-8362,748,0,0,0,0
1830027,28,-8364,748,0,0,0,0
1830032,35,-8367,752,0,0,0,0
1830037,37,-8366,756,0,0,0,0
1830042,39,-8369,761,0,0,0,0
1830047,37,-8369,772,0,0,0,0
1830052,32,-8369,777,0,0,-1,0
1830057,28,-8370,781,0,0,-1,0
1830062,23,-8371,784,0,0,0,0
1830067,21,-8372,782,0,0,0,0
1830072,24,-8375,783,0,0,0,0
1830077,21,-8374,776,0,0,0,0
1830082,16,-8374,772,0,0,0,0
1830087,10,-8373,773,0,0,0,0
1830092,1,-8374,769,0,0,0,0
1830097,-4,-8372,769,-1,0,-1,0
1830102,-6,-8371,769,-1,0,-1,0
1830107,-9,-8370,769,0,0,0,0
1830112,-11,-8372,769,0,0,0,0
1830117,-9,-8374,770,0,0,0,0
1830122,-5,-8376,766,0,0,-1,0
1830127,-1,-8375,763,0,0,-1,0
1830132,-1,-8374,758,-1,0,-1,0
1830137,0,-8375,759,-1,0,-1,0
1830142,3,-8374,756,0,0,-1,0
1830147,2,-8375,759,0,0,-1,0
1830152,4,-8377,760,-1,0,-1,0
1830157,5,-8381,756,-1,0,-1,0
1830162,5,-8382,759,-1,0,-1,0
1830167,3,-8382,759,-1,0,-1,0
1830172,2,-8381,760,0,0,-1,0
1830177,3,-8379,761,-1,0,-1,0
1830182,5,-8375,758,0,0,-1,0
1830187,7,-8374,758,0,0,-1,0
1830192,8,-8374,760,0,0,-1,0
1830197,7,-8374,761,0,0,-1,0
1830202,12,-8374,765,0,0,-1,0
1830207,17,-8374,765,0,0,-1,0
1830212,20,-8371,761,0,0,-1,0
1830217,20,-8371,757,0,0,-1,0
1830222,20,-8370,748,0,0,-1,0
1830227,18,-8367,739,0,0,-1,0
1830232,18,-8365,732,0,0,-1,0
1830237,15,-8364,734,0,0,-1,0
1830242,11,-8368,734,0,0,-1,0
1830247,11,-8368,738,0,0,-1,0
1830252,15,-8365,739,0,0,-1,0
1830257,20,-8364,740,0,0,-1,0
1830262,25,-8364,744,0,0,0,0
1830267,33,-8366,749,0,0,0,0
1830272,39,-8369,753,0,0,0,0
1830277,48,-8373,758,0,0,-1,0
1830282,53,-8373,760,0,0,-1,0
1830287,54,-8372,770,0,0,0,0
1830292,53,-8372,769,0,0,0,0
1830297,49,-8371,774,0,0,0,0
1830302,47,-8370,780,0,0,0,0
1830307,44,-8372,780,0,0,0,0
1830312,42,-8374,779,0,0,0,0
1830317,39,-8375,778,0,0,0,0
1830322,33,-8373,774,0,0,0,0
1830327,26,-8374,774,0,0,0,0
1830332,20,-8374,779,0,0,0,0
1830337,13,-8374,779,0,0,0,0
1830342,5,-8375,778,0,0,0,0
1830347,0,-8373,780,0,0,0,0
1830352,-2,-8372,782,0,0,0,0
1830357,-4,-8371,785,0,0,0,0
1830361,-6,-8369,784,0,0,0,0
1830366,-13,-8367,778,0,0,0,0
1830372,-15,-8366,776,0,1,-1,0
1830376,-15,-8367,771,0,1,-1,0
1830381,-14,-8369,766,0,1,-1,0
1830387,-13,-8369,767,0,1,-1,0
1830392,-14,-8367,764,-1,1,0,0
1830397,-17,-8368,764,-1,1,-1,0
1830402,-18,-8368,761,-1,1,-1,0
1830406,-20,-8368,768,0,1,-1,0
1830411,-21,-8369,775,0,1,-1,0
1830416,-22,-8373,780,0,1,-1,0
1830422,-23,-8371,774,0,1,-1,0
1830427,-25,-8371,770,-1,1,-1,0
1830431,-25,-8373,768,-1,1,-1,0
1830436,-21,-8372,764,-1,1,-1,0
1830442,-13,-8372,763,-1,1,-1,0
1830446,-7,-8371,762,-1,1,-1,0
1830452,-3,-8369,762,-1,1,-1,0
1830456,5,-8369,762,0,1,-1,0
1830462,6,-8370,761,0,1,-1,0
1830467,8,-8369,753,0,1,-1,0
1830472,9,-8368,749,0,1,-1,0
1830476,8,-8369,742,0,1,-1,0
1830481,7,-8370,740,0,2,-1,0
1830486,7,-8371,739,0,2,-1,0
1830491,9,-8370,735,0,2,-1,0
1830497,15,-8370,738,0,2,-1,0
1830501,22,-8372,741,0,3,-1,0
1830506,27,-8373,744,0,3,0,0
1830511,29,-8373,746,0,4,0,0
1830516,32,-8373,747,0,5,0,0
1830521,36,-8372,747,0,5,0,0
1830526,41,-8373,747,0,6,0,0
1830531,44,-8374,748,0,6,0,0
1830536,48,-8376,750,0,5,0,0
1830541,53,-8377,756,-1,4,0,0
1830546,56,-8377,766,0,4,0,0
1830551,62,-8373,767,0,4,0,0
1830556,69,-8368,763,0,4,0,0
1830561,76,-8366,754,0,5,0,0
1830566,79,-8365,732,0,5,0,0
1830571,81,-8361,702,0,5,0,0
1830576,82,-8361,669,0,5,0,0
1830581,78,-8361,631,0,5,0,0
1830586,74,-8360,588,0,5,0,0
1830591,69,-8363,546,0,6,0,0
1830596,65,-8359,513,0,7,0,0
1830601,62,-8359,487,0,9,0,0
1830606,56,-8358,466,0,10,0,0
1830611,52,-8358,452,1,11,0,0
1830616,42,-8358,445,1,11,0,0
1830621,31,-8357,445,1,10,0,0
1830626,15,-8358,444,1,8,0,0
1830631,-2,-8357,459,1,6,0,0
1830636,-22,-8357,480,1,4,0,0
1830641,-42,-8357,500,1,4,0,0
1830646,-57,-8358,527,1,4,0,0
1830651,-63,-8358,545,1,4,0,0
1830656,-68,-8355,557,1,6,0,0
1830661,-71,-8353,563,1,8,0,0
1830666,-67,-8353,564,1,10,0,0
1830671,-58,-8356,567,1,11,0,0
1830676,-44,-8360,570,1,11,0,0
1830681,-29,-8357,576,1,9,0,0
1830686,-12,-8355,580,1,6,0,0
1830691,5,-8358,589,1,4,0,0
1830696,21,-8361,597,2,3,0,0
1830701,40,-8363,602,2,3,0,0
1830706,60,-8362,610,2,4,0,0
1830711,80,-8362,619,2,6,0,0
1830716,103,-8365,624,2,8,0,0
1830721,127,-8367,628,2,10,0,0
1830726,155,-8368,638,2,13,0,0
1830731,185,-8369,648,2,15,1,0
1830736,216,-8368,668,2,16,1,0
1830741,252,-8368,690,2,16,1,0
1830746,279,-8369,726,2,15,1,0
1830751,303,-8372,769,2,13,1,0
1830756,311,-8378,820,1,9,1,0
1830761,292,-8383,883,1,4,0,0
1830766,245,-8385,942,1,-1,0,0
1830771,168,-8386,994,0,-3,0,0
1830776,82,-8386,1055,0,-4,0,0
1830781,-15,-8385,1160,0,-5,0,0
1830786,-132,-8387,1288,0,-6,-1,0
1830791,-258,-8387,1388,1,-8,-1,0
1830796,-386,-8387,1431,1,-7,-1,0
1830801,-496,-8388,1398,1,-5,-1,0
1830806,-564,-8389,1297,1,-3,-1,0
1830811,-585,-8390,1154,1,-1,-1,0
1830816,-556,-8386,997,1,-1,-1,0
1830821,-483,-8381,857,0,-1,-1,0
1830826,-373,-8375,743,0,0,-1,0
1830831,-241,-8369,671,0,-1,-1,0
1830836,-112,-8365,633,1,-1,-1,0
1830841,-2,-8363,614,1,-1,-1,0
1830846,79,-8363,607,1,-2,-1,0
1830851,134,-8364,599,1,-2,-1,0
1830856,169,-8365,584,1,-2,-1,0
1830861,191,-8363,564,2,-2,-1,0
1830866,211,-8364,538,2,-2,-1,0
1830871,234,-8365,527,2,-1,0,0
1830876,259,-8365,533,1,-1,0,0
1830881,279,-8366,555,1,-1,0,0
1830886,279,-8364,601,1,-2,0,0
1830891,262,-8367,662,2,-2,0,0
1830896,226,-8370,731,2,-2,0,0
1830901,177,-8374,802,2,-2,0,0
1830906,124,-8376,874,1,-2,0,0
1830911,73,-8382,952,1,-1,0,0
1830916,21,-8384,1042,1,-2,0,0
1830921,-26,-8388,1129,1,-2,0,0
1830926,-72,-8390,1220,1,-2,-1,0
1830931,-112,-8392,1307,1,-3,-1,0
1830936,-146,-8395,1381,0,-3,-1,0
1830941,-175,-8394,1443,0,-3,-1,0
1830946,-194,-8397,1483,0,-3,-1,0
1830951,-206,-8398,1504,0,-4,-1,0
1830956,-207,-8397,1510,0,-5,-1,0
1830961,-201,-8399,1507,-1,-6,-1,0
1830966,-189,-8400,1490,-1,-7,-1,0
1830971,-172,-8397,1462,-1,-8,-1,0
1830976,-156,-8393,1424,-1,-8,-2,0
1830981,-137,-8392,1372,-1,-9,-2,0
1830986,-119,-8387,1309,-1,-9,-2,0
1830991,-103,-8382,1242,-1,-10,-2,0
1830996,-91,-8378,1171,-1,-10,-2,0
1831001,-80,-8376,1102,-1,-11,-2,0
1831006,-71,-8375,1042,-1,-11,-2,0
1831011,-65,-8373,989,-1,-12,-2,0
1831016,-63,-8372,944,-1,-13,-2,0
1831021,-62,-8369,905,-1,-14,-2,0
1831026,-56,-8366,873,-1,-14,-2,0
1831031,-47,-8363,823,-1,-13,-2,0
1831036,-37,-8360,771,-1,-11,-2,0
1831041,-26,-8357,717,-1,-9,-2,0
1831046,-7,-8359,662,-1,-6,-2,0
1831051,12,-8358,612,0,-5,-2,0
1831056,29,-8360,573,0,-4,-2,0
1831061,37,-8361,548,0,-5,-2,0
1831066,39,-8363,544,0,-5,-2,0
1831071,41,-8362,553,0,-6,-2,0
1831076,40,-8361,575,0,-7,-1,0
1831081,44,-8361,600,0,-7,-1,0
1831086,54,-8363,628,0,-7,-1,0
1831091,71,-8364,651,0,-7,-1,0
1831096,90,-8364,659,0,-7,-1,0
1831101,107,-8361,661,0,-8,-1,0
1831106,124,-8361,658,0,-9,-1,0
1831111,141,-8361,653,0,-10,-1,0
1831116,154,-8359,649,0,-10,-1,0
1831121,171,-8359,658,0,-10,-1,0
1831126,190,-8358,675,0,-10,-1,0
1831131,214,-8362,705,0,-10,-1,0
1831136,239,-8365,737,0,-10,-1,0
1831141,260,-8366,761,1,-9,-1,0
1831146,281,-8368,779,1,-8,-1,0
1831151,303,-8367,795,1,-8,-1,0
1831156,329,-8367,805,1,-8,-1,0
1831161,349,-8369,813,0,-9,-1,0
1831166,360,-8371,823,0,-10,-1,0
1831171,350,-8373,840,0,-12,-1,0
1831176,350,-8375,877,0,-10,0,0
1831181,338,-8376,910,0,-6,0,0
1831186,332,-8373,953,0,-3,0,0
1831191,316,-8374,974,0,-2,0,0
1831196,285,-8377,984,1,-2,0,0
1831201,244,-8383,971,1,-3,0,0
1831206,199,-8384,953,0,-3,0,0
1831211,157,-8384,937,0,-4,0,0
1831216,126,-8384,932,0,-5,0,0
1831221,109,-8382,952,0,-6,0,0
1831226,100,-8380,976,0,-7,0,0
1831231,98,-8380,1010,0,-10,0,0
1831236,101,-8383,1039,0,-12,0,0
1831241,114,-8383,1057,0,-14,0,0
1831246,126,-8384,1066,0,-14,0,0
1831251,131,-8384,1059,0,-14,0,0
1831256,130,-8383,1048,0,-12,0,0
1831261,133,-8382,1047,0,-10,0,0
1831266,139,-8380,1055,0,-9,0,0
1831271,145,-8379,1067,0,-9,0,0
1831276,156,-8380,1081,0,-12,0,0
1831281,168,-8383,1094,0,-16,0,0
1831286,180,-8382,1097,0,-20,0,0
1831291,185,-8381,1107,0,-22,0,0
1831296,182,-8382,1108,-1,-21,0,0
1831301,185,-8381,1102,-1,-19,0,0
1831306,188,-8379,1107,-1,-16,0,0
1831311,191,-8376,1105,-1,-14,0,0
1831316,191,-8374,1110,-1,-13,0,0
1831321,186,-8374,1109,-1,-14,0,0
1831326,180,-8373,1111,-1,-16,0,0
1831331,172,-8373,1103,-1,-18,0,0
1831336,169,-8374,1090,-1,-20,0,0
1831341,166,-8373,1072,-1,-21,0,0
1831346,172,-8375,1063,-1,-21,0,0
1831351,176,-8375,1050,-1,-22,0,0
1831356,194,-8376,1061,-1,-23,0,0
1831361,203,-8377,1075,-1,-25,0,0
1831366,198,-8382,1079,-1,-27,0,0
1831371,180,-8383,1086,-1,-27,0,0
1831376,144,-8385,1067,-1,-24,0,0
1831381,96,-8384,1035,-1,-19,0,0
1831386,40,-8383,982,-1,-13,1,0
1831391,-13,-8381,935,-1,-7,1,0
1831396,-59,-8382,891,-1,-3,1,0
1831401,-80,-8379,869,-1,-1,1,0
1831406,-92,-8381,880,-1,-2,1,0
1831411,-97,-8381,910,-2,-2,1,0
1831416,-91,-8379,962,-2,-2,1,0
1831421,-78,-8381,1010,-1,-1,1,0
1831426,-68,-8381,1038,-1,-1,1,0
1831431,-71,-8382,1045,-1,-1,1,0
1831436,-77,-8383,1027,-1,-1,1,0
1831441,-85,-8380,993,-1,-1,1,0
1831446,-94,-8378,960,-1,-1,1,0
1831451,-105,-8376,926,-1,-1,1,0
1831456,-124,-8378,898,-1,-1,1,0
1831461,-143,-8376,883,-1,-1,1,0
1831466,-166,-8375,873,-1,0,1,0
1831471,-190,-8374,869,-1,1,0,0
1831476,-220,-8372,865,-1,2,0,0
1831481,-256,-8373,856,-1,2,0,0
1831486,-291,-8373,846,-1,4,0,0
1831491,-315,-8370,837,-1,4,0,0
1831496,-336,-8368,819,-1,5,0,0
1831501,-348,-8368,813,-1,6,0,0
1831506,-350,-8370,810,-1,7,0,0
1831511,-356,-8368,821,-1,9,0,0
1831516,-334,-8367,842,-1,11,0,0
1831521,-316,-8365,868,-1,13,0,0
1831526,-284,-8364,881,-1,13,0,0
1831531,-249,-8365,881,-1,13,0,0
1831536,-214,-8366,861,-1,13,0,0
1831541,-171,-8366,824,-1,13,0,0
1831546,-127,-8364,775,-1,13,0,0
1831551,-87,-8364,734,-1,13,0,0
1831556,-43,-8365,711,-1,12,0,0
1831561,3,-8365,710,-1,11,0,0
1831566,55,-8367,724,-1,9,0,0
1831571,108,-8365,753,-1,7,0,0
1831576,154,-8364,788,-1,4,0,0
1831580,190,-8364,816,-1,2,0,0
1831585,211,-8365,839,-1,1,0,0
1831591,212,-8365,855,-1,-1,0,0
1831595,190,-8365,864,-1,-2,0,0
1831601,143,-8367,876,-1,-3,0,0
1831606,89,-8366,886,-1,-4,0,0
1831611,26,-8368,897,-1,-4,0,0
1831616,-31,-8369,913,-1,-4,0,0
1831621,-78,-8369,918,-1,-3,0,0
1831625,-106,-8371,924,-1,-2,0,0
1831631,-117,-8374,911,-1,-1,0,0
1831636,-118,-8374,891,-1,-1,0,0
1831641,-110,-8374,870,-1,0,0,0
1831646,-97,-8375,855,-1,0,0,0
1831651,-87,-8374,834,-1,0,0,0
1831655,-84,-8376,833,-1,0,0,0
1831660,-88,-8378,843,-1,0,0,0
1831665,-100,-8379,868,-1,0,0,0
1831670,-111,-8381,906,-1,0,-1,0
1831676,-119,-8382,948,-1,0,0,0
1831680,-121,-8382,989,-1,0,0,0
1831685,-116,-8386,1030,-1,1,0,0
1831690,-106,-8387,1062,-1,1,0,0
1831695,-92,-8388,1084,-1,1,0,0
1831700,-77,-8387,1105,-1,2,0,0
1831705,-61,-8386,1124,-2,2,0,0
1831710,-52,-8385,1144,-2,2,-1,0
1831715,-51,-8383,1167,-2,2,-1,0
1831721,-51,-8382,1190,-2,1,-1,0
1831725,-53,-8382,1215,-2,1,-1,0
1831730,-58,-8385,1239,-2,0,-1,0
1831735,-58,-8387,1264,-2,0,-1,0
1831740,-56,-8385,1276,-2,0,-1,0
1831745,-48,-8386,1275,-2,-1,-1,0
1831750,-33,-8389,1262,-3,-1,-1,0
1831755,-20,-8390,1229,-3,-2,-1,0
1831760,-12,-8390,1187,-3,-2,-1,0
1831765,-7,-8386,1146,-3,-2,-1,0
1831770,-10,-8384,1111,-3,-1,-1,0
1831775,-24,-8384,1081,-3,-1,-1,0
1831780,-37,-8382,1050,-3,-1,-1,0
1831785,-47,-8380,1031,-3,-1,-1,0
1831790,-53,-8378,1013,-3,-1,-1,0
1831795,-50,-8376,1007,-3,-1,-1,0
1831800,-45,-8374,1006,-3,0,0,0
1831805,-28,-8380,1018,-3,0,0,0
1831810,-22,-8382,1039,-4,-1,-1,0
1831815,-22,-8384,1076,-4,-2,-1,0
1831820,-33,-8389,1115,-4,-2,-1,0
1831825,-58,-8387,1135,-4,-3,-1,0
1831830,-94,-8383,1130,-4,-3,-1,0
1831835,-137,-8382,1093,-3,-2,-1,0
1831840,-177,-8381,1022,-3,-2,-1,0
1831845,-218,-8380,919,-3,-2,-1,0
1831850,-246,-8376,811,-3,-2,-1,0
1831855,-273,-8373,710,-3,-2,-1,0
1831860,-292,-8371,630,-3,-1,-1,0
1831865,-298,-8368,578,-3,-1,-1,0
1831870,-296,-8361,544,-3,0,-2,0
1831875,-285,-8358,521,-3,-1,-2,0
1831880,-264,-8355,505,-3,-2,-2,0
1831885,-244,-8356,483,-3,-3,-2,0
1831890,-231,-8354,463,-3,-4,-2,0
1831895,-224,-8353,457,-3,-3,-2,0
1831900,-226,-8353,458,-3,-3,-2,0
1831905,-235,-8352,473,-2,-3,-2,0
1831910,-252,-8354,507,-2,-3,-2,0
1831915,-263,-8359,548,-2,-3,-2,0
1831920,-261,-8361,598,-2,-2,-2,0
1831925,-242,-8364,645,-2,-1,-2,0
1831930,-212,-8364,688,-2,-1,-2,0
1831935,-164,-8362,726,-2,0,-2,0
1831940,-111,-8363,742,-2,0,-2,0
1831945,-60,-8366,743,-2,0,-2,0
1831950,-16,-8368,737,-2,-1,-2,0
1831955,13,-8368,721,-2,-1,-2,0
1831960,23,-8367,703,-2,-1,-2,0
1831965,15,-8364,695,-2,-2,-3,0
1831970,-5,-8363,695,-2,-2,-2,0
1831975,-30,-8365,706,-2,-2,-2,0
1831980,-58,-8366,717,-2,-3,-2,0
1831985,-91,-8363,725,-2,-3,-3,0
1831990,-127,-8360,722,-2,-3,-3,0
1831995,-167,-8360,701,-2,-3,-3,0
1832000,-206,-8358,663,-2,-2,-3,0
1832005,-235,-8360,605,-2,-2,-3,0
1832010,-252,-8360,539,-2,-2,-3,0
1832015,-258,-8360,473,-2,-2,-3,0
1832020,-248,-8358,421,-2,-1,-3,0
1832025,-216,-8357,396,-2,0,-3,0
1832030,-164,-8357,394,-2,1,-3,0
1832035,-98,-8357,422,-2,1,-3,0
1832040,-24,-8361,473,-2,1,-3,0
1832045,47,-8363,541,-2,1,-3,9
1832050,118,-8364,615,-2,1,-3,9
1832055,189,-8367,681,-2,1,-3,9
1832060,243,-8367,738,-2,0,-3,9
1832065,285,-8370,778,-2,-1,-3,9
1832070,311,-8372,797,-2,-1,-3,9
1832075,320,-8375,797,-2,-2,-2,9
1832080,319,-8375,782,-2,-2,-2,9
1832085,315,-8372,754,-2,-2,-2,9
1832090,310,-8373,722,-2,-1,-2,9
1832095,308,-8371,686,-2,-1,-2,9
1832100,317,-8371,648,-2,0,-2,9
1832105,328,-8370,615,-1,0,-2,9
1832110,347,-8367,584,-1,0,-2,9
1832115,366,-8364,554,-1,1,-2,9
1832120,373,-8364,527,-1,0,-2,9
1832125,369,-8362,502,-1,0,-2,9
1832130,349,-8361,477,-1,0,-2,9
1832135,316,-8365,452,-1,0,-2,9
1832140,276,-8364,433,-1,0,-2,9
1832145,236,-8361,424,-1,0,-1,9
1832150,202,-8360,417,-1,0,-1,9
1832155,176,-8360,416,-1,0,-1,9
1832160,159,-8362,415,0,1,-1,9
1832165,147,-8363,410,0,1,-1,9
1832170,137,-8363,410,0,1,-1,9
1832175,132,-8364,413,0,1,-1,9
1832180,124,-8365,418,0,1,-1,9
1832185,114,-8367,431,0,1,-1,9
1832190,103,-8364,447,0,1,-1,9
1832195,100,-8362,468,0,2,-1,9
1832200,101,-8364,490,0,2,-1,9
1832205,103,-8366,519,0,2,-1,9
1832210,103,-8368,550,0,2,-1,9
1832215,98,-8366,588,0,2,-1,9
1832220,93,-8365,633,0,2,-1,9
1832225,87,-8366,679,0,2,-2,9
1832230,77,-8369,726,0,2,-2,9
1832235,66,-8376,776,0,2,-1,9
1832240,58,-8379,824,0,3,-1,9
1832245,52,-8380,871,-1,3,-2,9
1832250,44,-8380,927,-1,2,-2,9
1832255,38,-8381,976,-1,1,-2,9
1832260,32,-8385,1028,-1,1,-2,9
1832265,24,-8389,1077,-1,1,-2,9
1832270,16,-8390,1127,-1,2,-2,9
1832275,10,-8390,1164,-2,3,-2,9
1832280,1,-8390,1183,-1,5,-2,9
1832285,-7,-8389,1168,-1,7,-2,9
1832290,12,-8390,1129,-1,8,-2,9
1832295,23,-8388,1057,-1,8,-2,9
1832300,45,-8385,965,-2,8,-1,9
1832305,76,-8381,865,-2,10,-1,9
1832310,123,-8378,770,-2,11,-1,9
1832315,182,-8371,653,-1,9,-1,9
1832320,246,-8366,558,-1,6,-1,9
1832325,314,-8367,462,-1,3,-1,9
1832330,382,-8367,397,-1,3,-1,9
1832335,439,-8370,373,-1,3,-1,9
1832340,482,-8368,382,-1,2,-1,9
1832345,484,-8368,424,-1,0,-2,9
1832350,437,-8367,482,-1,-2,-2,9
1832355,366,-8366,543,-1,-1,-1,9
1832360,302,-8371,593,-1,0,-1,9
1832365,248,-8374,636,-1,1,-1,9
1832370,199,-8376,670,-1,0,-1,9
1832375,158,-8378,694,-1,0,-1,9
1832380,120,-8378,727,-1,0,-1,9
1832385,88,-8380,752,-1,0,-1,9
1832390,54,-8379,778,-1,-1,-1,9
1832395,19,-8380,805,-1,-1,-2,9
1832400,-10,-8379,822,-1,-1,-2,9
1832405,-35,-8383,832,-1,-1,-2,9
1832410,-52,-8383,841,-1,0,-2,9
1832415,-53,-8382,840,-1,0,-2,9
1832420,-32,-8380,836,-1,-1,-2,9
1832425,-4,-8381,812,-1,-2,-2,9
1832430,28,-8383,787,-1,-2,-2,9
1832435,83,-8380,758,-1,0,-1,9
1832440,165,-8381,743,-2,1,-1,9
1832445,245,-8380,743,-2,0,-1,9
1832450,307,-8380,759,-2,-1,-1,9
1832455,346,-8382,787,-2,-1,-2,9
1832460,367,-8384,809,-2,-1,-2,9
1832465,358,-8384,836,-2,-1,-2,9
1832470,320,-8381,839,-2,-1,-2,9
1832475,268,-8382,828,-2,-1,-1,9
1832480,213,-8382,810,-2,-1,-1,9
1832485,170,-8384,777,-2,0,-1,9
1832490,141,-8384,754,-2,0,-1,9
1832495,139,-8383,740,-2,0,-1,9
1832500,153,-8382,730,-2,0,-1,9
1832505,180,-8381,729,-2,0,-1,9
1832510,212,-8380,731,-2,0,-1,9
1832515,236,-8378,730,-2,0,-1,9
1832520,250,-8377,724,-2,-1,-1,9
1832525,251,-8375,701,-2,-1,-1,9
1832530,237,-8375,672,-2,-1,-1,9
1832535,208,-8375,640,-2,-1,-1,9
1832540,171,-8375,605,-2,-1,-1,9
1832545,135,-8374,572,-2,-1,-1,9
1832550,106,-8371,550,-2,-1,-1,9
1832555,88,-8371,533,-2,0,-1,9
1832560,84,-8371,524,-2,0,-1,9
1832565,93,-8371,520,-2,0,-1,9
1832570,112,-8374,519,-2,0,-1,9
1832575,134,-8374,522,-2,0,-1,9
1832580,151,-8373,524,-1,0,-1,9
1832585,161,-8373,525,-1,0,-1,9
1832590,162,-8373,528,-1,-1,-1,9
1832595,155,-8372,528,-1,-1,-2,9
1832600,141,-8373,528,-1,-1,-2,9
1832605,128,-8373,533,-1,-1,-2,9
1832610,113,-8372,536,-1,0,-2,9
1832615,101,-8368,546,-1,0,-2,9
1832620,97,-8369,559,-1,0,-1,9
1832625,103,-8371,575,-1,1,-1,9
1832630,115,-8374,592,-1,1,-1,9
1832635,126,-8377,613,-1,1,-1,9
1832640,139,-8378,631,-1,1,-2,9
1832645,148,-8377,653,-1,0,-2,9
1832650,150,-8376,677,-1,0,-2,9
1832655,144,-8375,703,-2,-1,-2,9
1832660,133,-8376,733,-2,-1,-2,9
1832665,116,-8375,765,-2,-2,-2,9
1832670,94,-8375,791,-2,-3,-2,9
1832675,69,-8376,811,-2,-3,-2,9
1832680,43,-8376,815,-2,-4,-2,9
1832685,21,-8375,784,-2,-4,-2,9
1832690,3,-8373,713,-1,-4,-2,9
1832695,-1,-8366,588,-1,-4,-2,9
1832700,23,-8359,419,-1,-4,-2,9
1832705,78,-8348,202,0,-3,-2,9
1832710,149,-8343,-19,0,-2,-2,9
1832715,235,-8335,-224,0,-1,-1,9
1832720,331,-8326,-417,1,-2,-1,9
1832725,402,-8316,-583,2,-3,-1,9
1832730,460,-8306,-724,3,-3,-1,9
1832735,518,-8285,-852,4,-1,0,9
1832740,1067,-8154,-1755,7,-2,1,9
1832745,1506,-8130,-2582,17,7,8,9
1832750,1789,-8159,-3315,21,18,11,9
1832755,2454,-8138,-4276,23,25,10,9
1832760,3335,-8162,-5606,22,57,8,9
1832765,3912,-8135,-6732,19,93,8,9
1832770,4367,-8060,-7627,17,93,7,9
1832775,4556,-7997,-8055,20,59,7,9
1832780,4385,-7936,-8074,24,20,9,9
1832785,3972,-7876,-7965,27,4,11,9
1832790,3452,-7824,-7668,30,17,14,9
1832795,2948,-7772,-7321,32,44,15,9
1832800,2488,-7724,-6907,34,73,17,9
1832805,2082,-7675,-6426,36,99,18,9
1832810,1767,-7636,-5965,37,114,20,9
1832815,1517,-7601,-5520,39,120,21,9
1832820,1306,-7568,-5134,40,121,22,9
1832825,1127,-7538,-4803,41,123,23,9
1832830,961,-7512,-4470,42,128,23,9
1832835,784,-7490,-4101,42,135,24,9
1832840,632,-7461,-3699,42,138,24,9
1832845,555,-7421,-3364,42,139,25,9
1832850,499,-7368,-3103,44,142,27,9
1832855,425,-7329,-2876,45,149,29,9
1832860,-9,-7403,-2193,45,159,29,9
1832865,-622,-7488,-1036,37,153,21,9
1832870,-1147,-7537,-163,31,138,15,9
1832875,-1932,-7578,1091,28,126,14,9
1832879,-2395,-7546,1643,25,112,12,9
1832885,-3861,-7631,3721,26,93,15,9
1832890,-5100,-7744,5454,27,35,17,9
1832894,-6233,-7837,6895,26,2,18,9
1832900,-7224,-8007,8250,23,5,18,9
1832905,-7431,-8118,9411,18,25,15,9
1832909,-7391,-8276,10407,13,62,12,9
1832914,-7101,-8414,11260,7,87,10,9
1832919,-6741,-8538,11992,1,77,6,9
1832925,-6392,-8657,12619,-3,34,1,9
1832930,-6209,-8727,13156,-7,-11,-3,9
1832935,-6328,-8799,13617,-11,-32,-7,9
1832939,-6531,-8823,14012,-16,-48,-11,9
1832944,-6878,-8821,14351,-20,-67,-13,9
1832949,-7330,-8815,14641,-24,-90,-15,9
1832954,-7699,-8767,14707,-29,-112,-17,9
1832959,-8008,-8683,14652,-33,-122,-18,9
1832964,-8105,-8604,14241,-37,-125,-19,9
1832969,-7990,-8482,13602,-40,-124,-21,9
1832974,-7748,-8363,12915,-43,-122,-22,9
1832979,-7375,-8230,12015,-46,-128,-24,9
1832984,-6969,-8093,11031,-48,-137,-25,9
1832989,-6546,-7956,9986,-49,-148,-27,9
1832994,-6101,-7827,8849,-50,-160,-27,9
1832999,-5664,-7702,7656,-51,-170,-28,9
1833004,-5221,-7592,6473,-51,-175,-28,9
1833009,-4750,-7482,5307,-51,-179,-28,9
1833014,-4255,-7389,4150,-50,-180,-27,9
1833019,-3746,-7313,3101,-49,-175,-27,9
1833024,-3285,-7249,2195,-46,-165,-26,9
1833029,-2839,-7219,1511,-44,-153,-25,9
1833034,-2557,-7183,855,-44,-141,-23,9
1833039,-2644,-7113,-803,-41,-136,-23,9
1833044,-2349,-7019,-3028,-36,-134,-22,9
1833049,-1551,-6972,-4838,-28,-115,-17,9
1833054,-908,-7075,-5584,-21,-86,-13,9
1833059,-384,-7119,-7126,-22,-76,-7,9
1833064,627,-7178,-8449,-23,-58,-7,9
1833069,1639,-7292,-9582,-23,-40,-7,9
1833074,2590,-7312,-10553,-22,-24,-5,9
1833079,3413,-7371,-11306,-17,-9,-4,9
1833084,4247,-7412,-12002,-11,0,-1,9
1833089,4845,-7444,-12146,-3,15,1,9
1833094,5328,-7478,-12213,4,20,3,9
1833099,5730,-7494,-12511,10,25,5,9
1833104,5893,-7515,-12774,16,31,7,9
1833109,5951,-7525,-13290,21,31,9,9
1833114,5797,-7523,-13732,24,37,11,9
1833119,5455,-7504,-14110,28,49,13,9
1833124,5039,-7472,-14435,31,69,15,9
1833129,4496,-7427,-14507,33,99,17,9
1833134,3951,-7370,-14213,36,133,20,9
1833139,3473,-7306,-13599,39,164,22,9
1833144,3036,-7240,-12700,42,179,24,9
1833149,2612,-7185,-11661,45,184,26,9
1833154,2172,-7133,-10580,48,185,27,9
1833159,1736,-7084,-9553,50,184,28,9
1833164,1334,-7041,-8584,51,183,29,9
1833169,980,-7008,-7659,52,181,30,9
1833174,608,-6975,-6788,52,179,31,9
1833179,220,-6946,-6002,52,177,31,9
1833184,-32,-6904,-5252,52,174,31,9
1833189,-393,-6880,-4591,53,175,31,9
1833194,-1200,-6923,-3455,52,167,29,9
1833199,-2246,-7025,-1889,45,146,24,9
1833204,-3277,-7114,-595,38,125,23,9
1833209,-4013,-7138,468,34,125,21,9
1833214,-5265,-7218,2020,31,131,23,9
1833219,-6348,-7320,3809,30,108,24,9
1833224,-7305,-7447,5604,30,89,24,9
1833229,-8083,-7608,7144,29,88,23,9
1833234,-8374,-7766,8463,25,100,22,9
1833239,-8293,-7915,9594,22,111,19,9
1833244,-7974,-8080,10563,18,104,15,9
1833249,-7533,-8230,11394,14,71,10,9
1833254,-7247,-8368,12107,9,26,4,9
1833259,-7208,-8476,12717,4,-14,-1,9
1833264,-7419,-8570,13241,-1,-32,-6,9
1833269,-7788,-8623,13690,-5,-42,-9,9
1833274,-8224,-8657,14074,-9,-60,-11,9
1833279,-8684,-8690,14404,-13,-81,-13,9
1833284,-9015,-8688,14383,-16,-95,-14,9
1833289,-9142,-8662,14193,-20,-97,-15,9
1833294,-8977,-8628,13832,-23,-92,-17,9
1833299,-8538,-8572,13272,-27,-87,-19,9
1833304,-7960,-8500,12669,-30,-91,-21,9
1833309,-7350,-8430,12076,-33,-103,-24,9
1833314,-6784,-8343,11397,-36,-119,-26,9
1833319,-6326,-8251,10718,-38,-136,-28,9
1833324,-5972,-8163,10088,-39,-150,-29,9
1833329,-5695,-8071,9319,-40,-160,-29,9
1833334,-5442,-7973,8472,-41,-163,-29,9
1833339,-5158,-7884,7587,-41,-160,-29,9
1833344,-4802,-7798,6535,-42,-153,-28,9
1833349,-4327,-7707,5426,-42,-147,-27,9
1833354,-3741,-7633,4355,-41,-142,-26,9
1833359,-3137,-7582,3400,-40,-134,-25,9
1833364,-2553,-7516,2548,-40,-125,-24,9
1833369,-2021,-7473,1816,-37,-119,-23,9
1833374,-1680,-7504,1402,-36,-115,-22,9
1833379,-1482,-7546,1211,-39,-109,-22,9
1833384,-891,-7409,-802,-37,-95,-21,9
1833389,-222,-7390,-2629,-28,-65,-16,9
1833394,207,-7342,-3315,-25,-41,-12,9
1833399,516,-7470,-3808,-21,-55,-10,9
1833404,1292,-7509,-5604,-24,-58,-11,9
1833409,1803,-7572,-6335,-26,-27,-10,9
1833414,2456,-7605,-7144,-27,-18,-10,9
1833419,2955,-7642,-7334,-26,-12,-10,9
1833424,3064,-7697,-6835,-23,-11,-8,9
1833429,3195,-7727,-6493,-19,-9,-7,9
1833434,3117,-7768,-5814,-14,1,-5,9
1833439,3048,-7818,-5394,-11,6,-3,9
1833444,3038,-7855,-5252,-8,7,-1,9
1833449,2951,-7904,-5146,-7,5,0,9
1833454,2922,-7943,-5303,-6,3,0,9
1833459,2858,-7982,-5341,-6,4,1,9
1833464,2760,-8016,-5310,-6,6,1,9
1833469,2668,-8042,-5157,-5,8,1,9
1833474,2497,-8070,-4757,-4,12,2,9
1833479,2330,-8091,-4324,-3,15,3,9
1833484,2145,-8113,-3794,-2,17,3,9
1833489,1939,-8138,-3278,0,19,4,9
1833494,1747,-8160,-2847,1,20,4,9
1833499,1544,-8184,-2449,2,19,4,9
1833504,1350,-8203,-2186,2,17,4,9
1833509,1153,-8227,-1947,2,15,4,9
1833514,942,-8249,-1701,2,13,4,9
1833519,729,-8261,-1455,1,12,4,9
1833524,516,-8277,-1156,1,12,4,9
1833529,324,-8291,-838,1,12,4,9
1833534,146,-8304,-509,2,12,4,9
1833539,-4,-8316,-200,2,11,3,9
1833544,-120,-8325,59,2,10,3,9
1833549,-216,-8330,248,2,8,3,9
1833554,-292,-8339,385,2,5,3,9
1833559,-342,-8347,464,2,4,2,9
1833564,-377,-8352,496,2,3,2,9
1833569,-403,-8358,538,1,2,2,9
1833574,-423,-8363,585,1,1,2,9
1833579,-446,-8365,644,1,0,1,9
1833584,-455,-8369,710,1,0,1,9
1833589,-461,-8372,795,1,0,1,9
1833594,-477,-8376,869,1,-1,1,9
1833599,-482,-8378,937,1,0,1,9
1833604,-468,-8378,971,1,1,1,9
1833609,-460,-8377,992,1,-1,0,9
1833614,-460,-8381,1005,1,-1,0,9
1833619,-434,-8383,981,1,0,0,9
1833624,-403,-8386,959,0,-1,0,9
1833629,-376,-8387,953,0,-1,0,9
1833634,-348,-8382,946,0,-1,0,9
1833639,-317,-8385,945,0,-1,0,9
1833644,-275,-8385,929,0,-1,0,9
1833649,-254,-8384,915,0,-1,0,9
1833654,-235,-8383,902,0,-1,0,9
1833659,-207,-8380,883,0,-1,-1,9
1833664,-191,-8379,860,0,-1,-1,9
1833669,-174,-8374,835,0,-1,0,9
1833674,-155,-8376,816,0,0,0,9
1833679,-129,-8375,779,0,0,0,9
1833684,-98,-8372,747,0,0,0,9
1833689,-64,-8370,733,0,0,0,9
1833694,-34,-8368,723,0,0,0,9
1833699,-4,-8369,711,0,0,0,9
1833704,24,-8369,704,1,0,0,9
1833709,22,-8373,697,1,0,0,9
1833714,15,-8374,692,1,0,0,9
1833719,8,-8370,691,1,1,0,9
1833724,-7,-8368,677,1,1,0,9
1833729,-21,-8368,681,1,1,0,9
1833734,-31,-8368,681,1,1,0,9
1833739,-29,-8367,674,1,2,0,9
1833744,-9,-8364,685,1,2,0,9
1833749,10,-8364,696,1,2,0,9
1833754,23,-8370,704,1,3,0,9
1833759,41,-8371,713,1,3,0,9
1833764,44,-8370,735,1,3,0,9
1833769,27,-8370,766,1,2,0,9
1833774,9,-8373,791,1,2,0,9
1833779,-9,-8372,816,1,2,0,9
1833784,-27,-8373,836,1,2,0,9
1833789,-40,-8378,867,1,2,0,9
1833794,-44,-8376,880,1,3,0,9
1833799,-35,-8377,884,0,3,0,9
1833804,-25,-8378,903,0,2,0,9
1833809,-21,-8377,923,0,2,0,9
1833814,-19,-8379,945,0,2,0,9
1833819,-14,-8380,964,0,2,0,9
1833824,-26,-8382,986,0,2,0,9
1833829,-41,-8380,1012,0,1,0,9
1833834,-52,-8379,1025,0,1,-1,9
1833839,-67,-8383,1023,0,1,0,9
1833844,-73,-8382,1021,0,1,0,9
1833849,-73,-8382,1026,0,1,0,9
1833854,-69,-8383,1014,0,1,-1,9
1833859,-55,-8384,1010,0,0,-1,9
1833864,-47,-8384,1018,0,0,-1,9
1833869,-40,-8382,1021,-1,0,-1,9
1833874,-35,-8380,1025,-1,0,-1,9
1833879,-34,-8380,1024,-1,0,-1,9
1833884,-50,-8384,1024,-1,-1,-1,9
1833889,-69,-8383,1024,-1,-1,-1,9
1833894,-84,-8384,1021,-1,-1,-1,9
1833899,-93,-8383,1003,-1,-1,-1,9
1833904,-91,-8381,993,-1,-1,-1,9
1833909,-79,-8381,967,-1,-1,-1,9
1833914,-54,-8381,925,-1,-1,-1,9
1833919,-25,-8378,899,-1,-1,-1,9
1833924,1,-8377,874,-1,-1,-1,9
1833929,16,-8373,858,-1,-1,-1,9
1833934,30,-8371,844,-1,-1,-1,9
1833939,33,-8370,835,-1,-1,-1,9
1833944,23,-8370,825,-1,-1,-1,9
1833949,19,-8373,805,-1,-1,-1,9
1833954,15,-8371,783,-1,-1,-1,9
1833959,18,-8370,757,-1,-1,-1,9
1833964,23,-8370,737,-1,-1,-1,9
1833969,27,-8370,707,-1,-1,-1,9
1833974,38,-8372,675,-1,-1,-1,9
1833979,46,-8375,671,-1,-1,-1,9
1833984,43,-8377,681,-1,-1,-1,9
1833989,35,-8378,699,-1,-1,-1,9
1833994,33,-8375,712,0,0,-1,9
1833999,17,-8374,724,0,-1,-1,9
1834004,1,-8373,739,0,-1,-1,9
1834009,-9,-8373,743,0,-1,-1,9
1834014,-12,-8372,739,0,-1,-1,9
1834019,-3,-8368,730,0,0,-1,9
1834024,10,-8368,717,0,0,-1,9
1834029,32,-8369,683,0,0,-1,9
1834034,56,-8371,654,0,-1,-1,9
1834039,74,-8371,641,0,0,-1,9
1834044,85,-8370,637,0,0,-1,0
1834049,91,-8371,643,0,0,-1,0
1834054,90,-8369,654,0,0,-1,0
1834059,72,-8368,671,0,0,-1,0
1834064,55,-8371,689,0,-1,-1,0
1834069,40,-8373,695,0,0,-1,0
1834074,26,-8374,691,0,0,-1,0
1834079,25,-8375,693,0,0,-1,0
1834084,26,-8375,683,0,0,0,0
1834089,32,-8373,667,0,0,-1,0
1834094,43,-8369,670,0,0,-1,0
1834099,47,-8371,683,0,0,-1,0
1834104,43,-8371,701,0,0,-1,0
1834109,45,-8373,721,0,1,-1,0
1834114,37,-8374,742,0,1,-1,0
1834119,24,-8373,773,0,0,-1,0
1834124,12,-8376,805,0,0,-1,0
1834129,0,-8375,833,0,0,-1,0
1834134,-11,-8375,849,0,0,-1,0
1834139,-15,-8376,874,0,0,-1,0
1834144,-15,-8377,886,0,0,-1,0
1834148,-5,-8378,889,0,0,-1,0
1834154,5,-8378,901,0,0,-1,0
1834158,13,-8381,909,0,-1,-1,0
1834163,17,-8382,918,0,-1,-1,0
1834169,29,-8381,912,0,-1,-1,0
1834174,26,-8378,901,0,-1,-1,0
1834178,23,-8378,899,0,-1,-1,0
1834184,17,-8379,888,0,-1,-1,0
1834189,9,-8382,872,0,-1,-1,0
1834194,8,-8380,862,0,-1,-1,0
1834199,5,-8380,866,0,0,-1,0
1834203,7,-8378,855,0,0,-1,0
1834208,12,-8375,855,0,0,-1,0
1834213,20,-8373,864,0,0,-1,0
1834219,23,-8372,875,0,0,-1,0
1834223,29,-8371,885,0,0,-1,0
1834228,36,-8372,889,0,0,-1,0
1834233,38,-8374,896,0,0,-1,0
1834238,38,-8376,902,0,0,-1,0
1834243,40,-8377,911,0,0,-1,0
1834248,47,-8377,909,0,0,-1,0
1834253,56,-8379,920,0,0,-1,0
1834258,59,-8378,928,0,0,0,0
1834263,68,-8377,926,0,0,-1,0
1834268,77,-8375,929,-1,0,-1,0
1834273,75,-8377,938,-1,0,0,0
1834278,70,-8376,949,-1,0,-1,0
1834283,65,-8375,954,-1,0,-1,0
1834288,54,-8376,955,-1,0,-1,0
1834293,38,-8377,960,-1,-1,-1,0
1834298,25,-8377,962,-1,-1,-1,0
1834303,13,-8375,962,-1,0,-1,0
1834308,5,-8374,951,-1,-1,-1,0
1834313,1,-8372,942,-1,0,-1,0
1834318,2,-8374,928,-1,0,0,0
1834323,6,-8371,907,-1,0,-1,0
1834328,16,-8370,893,-1,0,-1,0
1834333,19,-8368,881,-1,0,-1,0
1834338,16,-8370,880,-1,0,-1,0
1834343,17,-8369,877,-1,0,-1,0
1834348,12,-8372,871,-1,0,-1,0
1834353,1,-8372,882,-1,-1,-1,0
1834358,-3,-8372,886,-1,0,-1,0
1834363,-7,-8373,883,-1,0,-1,0
1834368,-6,-8373,883,-1,0,-1,0
1834373,-7,-8373,884,-1,0,-1,0
1834378,-4,-8374,878,-1,0,-1,0
1834383,7,-8375,876,-1,0,-1,0
1834388,10,-8378,885,-1,-1,-1,0
1834393,0,-8378,898,-1,-1,-1,0
1834398,-7,-8380,903,-1,-1,-1,0
1834403,-11,-8377,901,-1,-1,-1,0
1834408,-24,-8376,903,-1,-1,-1,0
1834413,-35,-8379,916,-1,-1,-1,0
1834418,-41,-8380,914,-1,-1,-1,0
1834423,-39,-8380,901,-1,-1,-1,0
1834428,-26,-8377,888,-1,-1,-1,0
1834433,-10,-8379,867,-1,-1,-1,0
1834438,11,-8378,846,-1,-1,-1,0
1834443,32,-8375,831,-1,-1,-1,0
1834448,49,-8374,818,-1,-1,-1,0
1834453,60,-8371,812,-1,-1,-1,0
1834458,66,-8369,802,-1,-1,-1,0
1834463,66,-8369,791,-1,-1,-1,0
1834468,60,-8368,790,-1,-1,-1,0
1834473,53,-8371,799,-1,-1,-1,0
1834478,44,-8374,804,-1,-1,-1,0
1834483,43,-8374,807,-1,-1,-1,0
1834488,49,-8373,822,-1,0,-1,0
1834493,54,-8375,824,-1,-1,-1,0
1834498,65,-8378,823,-1,-1,-1,0
1834503,74,-8380,826,-1,-1,-1,0
1834508,77,-8381,822,-1,-1,-1,0
1834513,71,-8381,822,-1,-1,-1,0
1834518,70,-8381,817,-1,-1,-1,0
1834523,60,-8378,808,-1,-1,-1,0
1834528,47,-8378,806,-1,-1,-1,0
1834533,41,-8378,803,-1,-1,-1,0
1834538,42,-8377,790,-1,-1,-1,0
1834543,46,-8376,784,-1,-1,-1,0
1834548,50,-8376,787,-1,0,-1,0
1834553,60,-8372,789,-1,0,-1,0
1834558,73,-8365,787,-1,-1,-1,0
1834563,80,-8364,791,-1,-1,-1,0
1834568,78,-8365,799,-1,-1,-1,0
1834573,72,-8368,807,-1,-1,-1,0
1834578,63,-8368,811,-1,-1,-1,0
1834583,50,-8368,815,-1,-1,-1,0
1834588,34,-8370,820,-1,-1,-1,0
1834593,22,-8372,820,-1,-1,-1,0
1834598,17,-8373,814,-1,-1,-1,0
1834603,24,-8375,813,-1,-1,-1,0
1834608,32,-8375,811,-1,-1,-1,0
1834613,41,-8375,803,-1,-1,-1,0
1834618,52,-8374,796,-1,-1,-1,0
1834623,54,-8373,781,-1,-1,-1,0
1834628,49,-8373,783,-1,-1,-1,0
1834633,42,-8370,785,-1,-1,-1,0
1834638,31,-8372,779,-1,-1,-1,0
1834643,16,-8374,780,-1,-1,-1,0
1834648,0,-8375,787,-1,-1,-1,0
1834653,-8,-8373,791,-1,-1,-1,0
1834658,-5,-8373,788,-1,-1,-1,0
1834663,7,-8374,789,-1,-1,-1,0
1834668,19,-8373,786,-1,-1,-1,0
1834673,32,-8374,775,-1,-1,-1,0
1834678,43,-8374,763,-1,-1,-1,0
1834683,40,-8373,762,-1,-1,-1,0
1834688,31,-8371,769,-1,-1,-1,0
1834693,21,-8369,775,-1,-1,-1,0
1834698,10,-8367,776,-1,-1,-1,0
1834703,-1,-8365,779,-1,-1,-1,0
1834708,-7,-8366,780,-1,-1,-1,0
1834713,-2,-8366,772,-1,-1,-1,0
1834718,14,-8367,760,-1,-1,-1,0
1834723,30,-8367,755,-1,0,-1,0
1834728,44,-8370,741,-1,-1,-1,0
1834733,61,-8371,736,-1,-1,-1,0
1834738,69,-8373,732,-1,-1,-1,0
1834743,69,-8372,730,-1,-1,-1,0
1834748,64,-8377,736,-1,0,-1,0
1834753,59,-8376,738,-1,0,-1,0
1834758,50,-8375,734,-1,-1,-1,0
1834763,38,-8374,738,-1,-1,-1,0
1834768,28,-8373,734,-1,0,-1,0
1834773,30,-8371,716,-1,0,-1,0
1834778,42,-8372,713,-1,0,-1,0
1834783,50,-8371,714,-1,0,-1,0
1834788,62,-8369,714,-1,0,-1,0
1834793,76,-8369,721,-1,0,-1,0
1834798,81,-8367,724,-1,0,-1,0
1834803,83,-8366,735,-1,0,-1,0
1834808,82,-8366,739,-1,0,-1,0
1834813,75,-8366,737,-1,0,-1,0
1834818,64,-8368,736,-1,0,-1,0
1834823,53,-8368,738,-1,0,-1,0
1834828,48,-8365,738,-1,0,-1,0
1834833,51,-8364,735,-1,0,-1,0
1834838,57,-8364,738,-1,0,-1,0
1834843,64,-8365,740,-1,0,-1,0
1834848,79,-8366,746,-1,0,-1,0
1834853,92,-8367,755,-1,0,-1,0
1834858,96,-8369,762,-1,0,-1,0
1834863,93,-8372,776,-1,0,-1,0
1834868,89,-8371,779,-1,0,-1,0
1834873,79,-8374,773,-1,0,-1,0
1834878,65,-8377,772,-1,0,-1,0
1834883,53,-8378,775,-1,0,-1,0
1834888,39,-8375,775,-1,0,-1,0
1834893,40,-8377,779,-1,0,-1,0
1834898,42,-8378,789,-1,0,-1,0
1834903,47,-8379,792,-1,0,-1,0
1834908,56,-8381,793,-1,0,-1,0
1834913,64,-8379,795,-1,0,-1,0
1834918,70,-8382,801,-1,0,-1,0
1834923,69,-8384,806,-1,0,-1,0
1834928,61,-8382,803,-1,0,-1,0
1834933,48,-8381,798,-1,-1,-1,0
1834938,32,-8381,806,-1,-1,-1,0
1834943,16,-8382,813,-1,-1,-1,0
1834948,10,-8385,818,-1,-1,-1,0
1834953,14,-8387,827,-1,0,-1,0
1834958,20,-8384,830,-1,0,-1,0
1834963,30,-8383,828,-1,-1,-1,0
1834968,40,-8381,819,-1,-1,-1,0
1834973,50,-8381,812,-1,-1,-1,0
1834978,53,-8378,813,-1,-1,-1,0
1834983,54,-8377,810,-1,-1,-1,0
1834988,50,-8379,802,-1,-1,-1,0
1834993,42,-8378,800,-1,-1,-1,0
1834998,35,-8376,797,-1,-1,-1,0
1835003,35,-8373,792,-1,-1,-1,0
1835008,41,-8373,780,-1,-1,-1,0
1835013,54,-8371,774,-1,-1,-1,0
1835018,64,-8369,763,-1,-1,-1,0
1835023,76,-8372,759,-1,-1,-1,0
1835028,84,-8371,759,-1,-1,-1,0
1835033,86,-8369,761,-1,-1,-1,0
1835038,83,-8369,770,-1,-1,-1,0
1835043,81,-8368,776,-1,-1,-1,0
1835048,73,-8368,773,-1,-1,-1,0
1835053,64,-8369,772,-1,-1,-1,0
1835058,63,-8369,774,-1,-1,-1,0
1835063,64,-8369,772,-1,-1,-1,0
1835068,71,-8368,766,-1,-1,-1,0
1835073,76,-8369,760,-1,-1,-1,0
1835078,84,-8370,752,-1,-1,-1,0
1835083,95,-8371,741,-1,-1,-1,0
1835088,101,-8373,734,-1,-1,-1,0
1835093,102,-8372,735,-1,-1,-1,0
1835098,93,-8369,736,-1,-1,-1,0
1835103,83,-8369,732,-1,-1,-1,0
1835108,75,-8369,725,-1,-1,-1,0
1835113,66,-8370,719,-1,-1,0,0
1835118,58,-8371,711,-1,-1,0,0
1835123,58,-8374,696,-1,-1,-1,0
1835128,63,-8373,684,-1,-1,-1,0
1835133,68,-8374,679,-1,-1,-1,0
1835138,74,-8375,681,-1,-1,-1,0
1835143,78,-8376,682,-1,-1,-1,0
1835148,81,-8375,686,-1,-1,-1,0
1835153,79,-8375,695,-1,-1,0,0
1835158,74,-8373,702,-1,-1,0,0
1835163,71,-8374,705,-1,-1,-1,0
1835168,68,-8371,710,-1,-1,-1,0
1835173,61,-8371,714,-1,-1,-1,0
1835178,56,-8370,717,-1,-1,-1,0
1835183,56,-8373,727,-1,-1,-1,0
1835188,55,-8375,739,-1,-1,-1,0
1835193,57,-8376,744,-1,-1,0,0
1835198,60,-8376,744,-1,-1,0,0
1835203,62,-8378,736,-1,-1,-1,0
1835208,61,-8380,728,-1,-1,-1,0
1835213,56,-8382,724,-1,-1,-1,0
1835218,48,-8379,717,-1,-1,-1,0
1835223,40,-8380,711,-1,-1,-1,0
1835228,30,-8381,709,-1,-1,-1,0
1835233,22,-8379,705,-1,-1,-1,0
1835238,20,-8381,699,-1,-1,-1,0
1835243,29,-8376,688,-1,-1,-1,0
1835248,39,-8372,675,-1,-1,-1,0
1835253,48,-8370,662,-1,-1,-1,0
1835258,57,-8370,655,-1,-1,-1,0
1835263,62,-8369,642,-1,-1,-1,0
1835268,59,-8370,639,-1,-1,-1,0
1835273,51,-8370,641,-1,-1,-1,0
1835278,40,-8371,639,-1,0,-1,0
1835283,33,-8370,634,-1,0,-1,0
1835288,29,-8368,630,-1,0,-1,0
1835293,27,-8365,628,-1,0,-1,0
1835298,37,-8364,628,-1,0,-1,0
1835303,52,-8366,626,0,0,-1,0
1835308,64,-8367,627,0,0,-1,0
1835313,74,-8368,631,0,0,-1,0
1835318,82,-8371,637,0,0,-1,0
1835323,81,-8374,649,0,0,-1,0
1835328,74,-8374,667,0,-1,-1,0
1835333,66,-8373,689,0,0,-1,0
1835338,63,-8373,700,0,0,-1,0
1835343,58,-8371,706,0,-1,-1,0
1835348,58,-8373,705,0,0,-1,0
1835353,63,-8369,700,0,0,-1,0
1835358,73,-8371,682,0,0,-1,0
1835363,87,-8370,666,0,0,-1,0
1835368,98,-8370,655,0,0,-1,0
1835373,108,-8368,647,0,0,-1,0
1835378,113,-8368,645,0,0,-1,0
1835383,113,-8364,649,0,0,-1,0
1835388,112,-8365,654,0,0,-1,0
1835393,109,-8365,656,0,0,-1,0
1835398,104,-8366,650,0,0,0,0
1835403,96,-8364,651,0,0,0,0
1835408,88,-8366,655,0,0,0,0
1835413,81,-8366,660,0,0,0,0
1835418,80,-8367,667,0,0,0,0
1835423,80,-8370,674,0,0,0,0
1835428,81,-8372,680,0,0,0,0
1835432,82,-8375,686,0,0,0,0
1835437,85,-8377,690,0,0,0,0
1835443,83,-8375,698,0,0,-1,0
1835447,77,-8376,704,0,0,-1,0
1835453,65,-8376,710,0,0,-1,0
1835458,51,-8376,704,0,0,-1,0
1835462,37,-8377,707,0,0,-1,0
1835468,23,-8377,710,0,0,-1,0
1835472,19,-8373,715,0,0,-1,0
1835478,21,-8372,717,0,0,-1,0
1835482,26,-8372,722,0,0,-1,0
1835488,35,-8373,727,0,0,-1,0
1835492,46,-8374,730,0,0,-1,0
1835497,52,-8375,733,0,0,-1,0
1835503,52,-8376,741,0,0,-1,0
1835507,48,-8373,756,0,0,-1,0
1835512,41,-8373,757,0,0,-1,0
1835517,34,-8374,755,0,0,-1,0
1835522,27,-8373,758,0,0,-1,0
1835527,27,-8372,753,0,0,-1,0
1835532,36,-8374,745,0,0,-1,0
1835537,44,-8377,748,0,0,-1,0
1835542,55,-8378,750,0,0,-1,0
1835547,68,-8375,754,0,0,-1,0
1835552,78,-8374,759,0,0,-1,0
1835557,82,-8374,761,0,0,-1,0
1835562,79,-8371,766,0,0,-1,0
1835567,75,-8372,767,0,0,-1,0
1835572,70,-8371,764,0,0,-1,0
1835577,64,-8372,766,0,0,-1,0
1835582,58,-8374,773,0,0,-1,0
1835587,57,-8376,777,0,-1,-1,0
1835592,62,-8376,777,0,0,-1,0
1835597,69,-8373,775,0,0,-1,0
1835602,74,-8374,774,0,0,-1,0
1835607,79,-8372,772,0,0,-1,0
1835612,83,-8372,766,0,0,-1,0
1835617,85,-8376,764,0,0,-1,0
1835622,83,-8375,769,0,0,-1,0
1835627,77,-8377,774,0,0,-1,0
1835632,73,-8376,775,0,0,-1,0
1835637,68,-8374,772,0,0,-1,0
1835642,66,-8373,769,0,0,-1,0
1835647,69,-8374,766,0,0,-1,0
1835652,80,-8374,759,0,0,-1,0
1835657,89,-8374,756,0,0,-1,0
1835662,95,-8375,757,0,0,-1,0
1835667,96,-8372,754,0,0,-1,0
1835672,96,-8371,753,0,-1,-1,0
1835677,93,-8370,758,0,-1,-1,0
1835682,87,-8372,766,0,0,-1,0
1835687,82,-8373,764,0,0,-1,0
1835692,76,-8374,764,0,0,-1,0
1835697,68,-8373,766,0,0,-1,0
1835702,62,-8373,770,0,0,-1,0
1835707,62,-8374,772,0,0,-1,0
1835712,66,-8372,774,-1,0,-1,0
1835717,71,-8373,777,-1,0,-1,0
1835722,76,-8375,788,-1,0,-1,0
1835727,80,-8374,795,-1,-1,-1,0
1835732,78,-8376,800,-1,-1,-1,0
1835737,71,-8376,811,-1,-1,-1,0
1835742,66,-8379,813,-1,-1,-1,0
1835747,61,-8379,810,-1,-1,-1,0
1835752,57,-8377,804,-1,-1,-1,0
1835757,51,-8376,795,-1,-1,-1,0
1835762,51,-8375,784,-1,-1,-1,0
1835767,54,-8378,775,-1,0,-1,0
1835772,60,-8380,765,-1,-1,-1,0
1835777,67,-8378,763,-1,-1,-1,0
1835782,77,-8374,761,-1,0,-1,0
1835787,85,-8373,756,-1,-1,-1,0
1835792,83,-8373,755,-1,-1,-1,0
1835797,77,-8371,755,-1,0,-1,0
1835802,70,-8369,751,-1,0,-1,0
1835807,65,-8370,745,-1,-1,-1,0
1835812,59,-8371,738,-1,0,-1,0
1835817,58,-8370,735,-1,0,-1,0
1835822,60,-8371,728,-1,0,-1,0
1835827,66,-8372,729,-1,0,-1,0
1835832,74,-8370,722,-1,0,-1,0
1835837,80,-8372,720,-1,0,-1,0
1835842,86,-8372,716,-1,0,-1,0
1835847,86,-8373,707,-1,-1,-1,0
1835852,85,-8374,705,-1,-1,-1,0
1835857,78,-8374,710,-1,0,-1,0
1835862,70,-8374,712,-1,0,-1,0
1835867,66,-8374,717,-1,0,-1,0
1835872,61,-8374,723,0,0,-1,0
1835877,59,-8377,727,-1,0,-1,0
1835882,65,-8377,734,-1,0,-1,0
1835887,76,-8380,741,-1,0,-1,0
1835892,84,-8379,746,-1,0,-1,0
1835897,93,-8380,750,-1,0,-1,0
1835902,95,-8376,760,-1,0,-1,0
1835907,93,-8374,766,-1,-1,-1,0
1835912,88,-8375,776,-1,0,-1,0
1835917,84,-8376,780,-1,0,-1,0
1835922,85,-8373,781,-1,0,-1,0
1835927,88,-8373,774,-1,0,-1,0
1835932,93,-8373,766,-1,0,-1,0
1835937,104,-8372,762,-1,0,-1,0
1835942,114,-8373,758,-1,0,-1,0
1835947,123,-8373,752,-1,0,-1,0
1835952,127,-8375,748,-1,0,-1,0
1835957,126,-8376,750,-1,0,-1,0
1835962,124,-8374,754,-1,-1,-1,0
1835967,120,-8376,759,-1,-1,-1,0
1835972,108,-8374,766,-1,-1,-1,0
1835977,97,-8372,770,-1,-1,-1,0
1835982,93,-8373,771,-1,-1,0,0
1835987,91,-8372,767,-1,-1,0,0
1835992,92,-8372,768,-1,-1,0,0
1835997,96,-8372,766,-1,-1,-1,0
1836002,103,-8371,762,-1,-1,-1,0
1836007,108,-8371,758,-1,-1,0,0
1836012,112,-8369,753,-1,-1,-1,0
1836017,112,-8368,746,-1,-1,-1,0
1836022,107,-8369,740,-1,-1,-1,0
1836027,99,-8368,745,-1,-1,-1,0
1836032,89,-8367,752,-1,-1,-1,0
1836037,82,-8370,755,-1,-1,-1,0
1836042,76,-8370,748,-1,-1,-1,0
1836047,67,-8370,747,-1,-1,0,0
1836052,64,-8372,745,-1,-1,0,0
1836057,66,-8373,744,-1,-1,0,0
1836062,73,-8376,739,-1,-1,0,0
1836067,80,-8376,731,-1,-1,-1,0
1836072,85,-8374,729,-1,-1,0,0
1836077,86,-8372,724,-1,-1,-1,0
1836082,86,-8371,720,-1,-1,-1,0
1836087,82,-8371,724,-1,-1,-1,0
1836092,79,-8369,732,-1,-1,0,0
1836097,79,-8369,734,-1,-1,-1,0
1836102,76,-8369,735,-1,0,-1,0
1836107,78,-8369,731,-1,-1,-1,0
1836112,79,-8370,725,-1,0,-1,0
1836117,84,-8373,715,-1,0,-1,0
1836122,89,-8372,706,-1,-1,-1,0
1836127,92,-8373,701,-1,-1,0,0
1836132,95,-8376,694,-1,-1,0,0
1836137,95,-8374,694,-1,-1,0,0
1836142,90,-8375,706,-1,-1,-1,0
1836147,84,-8373,722,-1,-1,-1,0
1836152,81,-8372,732,-1,-1,-1,0
1836157,82,-8374,743,-1,-1,-1,0
1836162,84,-8372,750,-1,-1,0,0
1836167,84,-8372,746,-1,-1,0,0
1836172,86,-8370,740,-1,-1,0,0
1836177,91,-8369,736,-1,-1,0,0
1836182,94,-8370,727,-1,-1,0,0
1836187,96,-8373,721,-1,-1,0,0
1836192,99,-8375,720,-1,-1,0,0
1836197,104,-8376,720,-1,-1,0,0
1836202,109,-8377,718,-1,-1,0,0
1836207,114,-8377,715,-1,-1,0,0
1836212,120,-8375,717,-1,-1,0,0
1836217,121,-8372,713,-1,-1,0,0
1836222,122,-8368,707,-1,-1,0,0
1836227,121,-8366,703,-1,-1,0,0
1836232,119,-8366,703,-1,-1,0,0
1836237,118,-8369,699,-1,-1,0,0
1836242,115,-8368,700,-1,-1,0,0
1836247,113,-8366,709,-1,-1,0,0
1836252,113,-8365,718,-1,-1,0,0
1836257,112,-8366,724,-1,-1,0,0
1836262,112,-8367,732,-1,-1,0,0
1836267,112,-8367,735,-1,-1,0,0
1836272,113,-8368,729,-1,-1,0,0
1836277,110,-8369,720,-1,-1,0,0
1836282,102,-8370,713,-1,-1,0,0
1836287,96,-8367,706,-1,-1,0,0
1836292,91,-8368,708,-1,-1,0,0
1836297,91,-8369,708,-1,-1,0,0
1836302,92,-8370,712,-1,-1,0,0
1836307,92,-8372,718,-1,-1,0,0
1836312,94,-8373,717,-1,-1,0,0
1836317,98,-8376,720,-1,-1,0,0
1836322,98,-8377,726,-1,-1,0,0
1836327,95,-8376,727,-1,-1,0,0
1836332,93,-8376,728,-1,-1,0,0
1836337,90,-8373,721,-1,-1,0,0
1836342,83,-8373,714,-1,-1,0,0
1836347,74,-8375,714,-1,-1,0,0
1836352,72,-8375,712,-1,-1,0,0
1836357,74,-8376,712,-1,-1,0,0
1836362,77,-8374,714,-1,-1,0,0
1836367,80,-8374,718,-1,-1,0,0
1836372,85,-8373,718,-1,-1,0,0
1836377,88,-8373,720,-1,-1,0,0
1836382,85,-8373,722,-1,-1,0,0
1836387,80,-8371,719,-1,-1,0,0
1836392,78,-8371,713,-1,-1,0,0
1836397,74,-8371,714,-1,-1,0,0
1836402,71,-8371,713,-1,-1,0,0
1836407,69,-8373,713,-1,-1,0,0
1836412,70,-8372,711,-1,0,0,0
1836417,72,-8372,708,-1,-1,0,0
1836422,76,-8373,712,-1,0,0,0
1836427,75,-8372,713,-1,-1,0,0
1836432,75,-8371,715,-1,-1,0,0
1836437,73,-8374,715,-1,-1,0,0
1836442,66,-8374,716,-1,-1,0,0
1836447,59,-8375,717,-1,0,0,0
1836452,56,-8376,711,0,0,0,0
1836457,53,-8378,703,0,-1,0,0
1836462,57,-8378,693,-1,-1,0,0
1836467,67,-8378,682,0,0,0,0
1836472,82,-8376,673,0,0,0,0
1836477,94,-8376,667,0,0,0,0
1836482,104,-8376,664,0,0,0,0
1836487,107,-8376,658,0,-1,0,0
1836492,106,-8375,656,0,0,0,0
1836497,102,-8373,655,0,0,0,0
1836502,92,-8371,653,0,0,0,0
1836507,84,-8371,652,0,0,0,0
1836512,79,-8370,647,0,0,0,0
1836517,71,-8368,641,0,0,0,0
1836522,69,-8371,635,0,0,0,0
1836527,72,-8371,634,0,0,0,0
1836532,82,-8371,635,0,0,0,0
1836537,87,-8369,641,0,0,0,0
1836542,91,-8368,650,0,0,0,0
1836547,95,-8367,663,0,0,0,0
1836552,93,-8372,678,0,0,0,0
1836557,84,-8375,694,0,0,0,0
1836562,76,-8376,710,0,0,0,0
1836567,69,-8378,718,0,0,0,0
1836572,65,-8379,719,0,0,0,0
1836577,59,-8380,723,0,0,0,0
1836582,56,-8377,724,0,0,0,0
1836587,61,-8375,719,0,0,0,0
1836592,72,-8373,723,0,0,0,0
1836597,85,-8375,721,0,0,0,0
1836602,94,-8377,718,0,0,0,0
1836607,101,-8378,711,0,0,0,0
1836612,104,-8377,703,0,0,0,0
1836616,102,-8380,707,0,0,0,0
1836622,95,-8381,703,0,0,0,0
1836627,85,-8380,697,0,0,0,0
1836632,74,-8379,690,0,0,0,0
1836637,62,-8378,685,0,0,0,0
1836641,57,-8377,680,0,0,0,0
1836647,59,-8374,673,0,0,0,0
1836652,63,-8376,678,0,0,0,0
1836656,68,-8377,682,0,0,0,0
1836662,71,-8377,702,0,0,0,0
1836667,69,-8377,723,0,0,0,0
1836672,62,-8376,740,0,0,0,0
1836676,51,-8375,756,0,0,0,0
1836682,39,-8373,768,0,0,0,0
1836686,28,-8372,768,0,0,0,0
1836692,20,-8370,761,0,0,0,0
1836696,16,-8372,756,0,0,0,0
1836701,22,-8374,747,0,0,0,0
1836706,35,-8374,735,0,0,0,0
1836711,46,-8371,729,0,0,0,0
1836717,55,-8373,727,0,0,0,0
1836721,57,-8372,736,0,0,0,0
1836726,56,-8370,738,0,0,0,0
1836732,51,-8369,747,0,-1,0,0
1836737,41,-8368,750,0,0,0,0
1836741,34,-8367,746,0,0,0,0
1836747,25,-8365,741,0,0,0,0
1836752,20,-8366,738,0,0,0,0
1836756,18,-8368,734,0,0,0,0
1836762,21,-8368,724,0,0,0,0
1836766,29,-8369,722,0,0,0,0
1836772,40,-8371,724,0,0,0,0
1836776,47,-8369,726,0,0,0,0
1836782,53,-8371,735,0,0,-1,0
1836786,54,-8370,740,0,0,0,0
1836791,50,-8370,736,0,0,0,0
1836796,48,-8373,736,0,0,0,0
1836801,42,-8372,735,0,0,0,0
1836806,38,-8372,730,0,0,0,0
1836811,41,-8370,733,0,0,0,0
1836816,42,-8370,736,0,0,0,0
1836821,47,-8370,733,0,0,0,0
1836826,54,-8368,736,0,0,0,0
1836831,55,-8370,743,0,0,0,0
1836836,58,-8370,756,0,0,0,0
1836841,58,-8372,766,0,0,0,0
1836846,60,-8370,774,0,0,0,0
1836851,57,-8370,781,0,0,-1,0
1836856,54,-8369,779,0,0,0,0
1836861,52,-8372,772,0,0,0,0
1836866,51,-8375,764,0,0,0,0
1836871,53,-8376,756,0,0,0,0
1836876,55,-8377,753,0,0,0,0
1836881,60,-8375,747,0,0,-1,0
1836886,58,-8375,748,0,0,-1,0
1836891,56,-8377,752,0,0,0,0
1836896,54,-8377,759,0,0,0,0
1836901,50,-8377,762,0,0,0,0
1836906,47,-8377,764,0,0,0,0
1836911,45,-8376,768,0,0,-1,0
1836916,43,-8377,771,0,0,0,0
1836921,45,-8375,767,0,0,0,0
1836926,46,-8372,761,0,0,0,0
1836931,49,-8373,760,0,0,0,0
1836936,54,-8370,757,0,0,-1,0
1836941,57,-8373,753,0,0,-1,0
1836946,56,-8371,754,0,0,-1,0
1836951,54,-8371,758,0,0,-1,0
1836956,49,-8371,763,0,0,-1,0
1836961,44,-8370,766,0,0,-1,0
1836966,33,-8369,769,0,0,-1,0
1836971,27,-8370,770,0,0,-1,0
1836976,24,-8369,768,0,0,-1,0
1836981,26,-8370,763,0,0,0,0
1836986,27,-8372,759,0,0,-1,0
1836991,30,-8373,760,0,0,-1,0
1836996,36,-8375,756,0,0,-1,0
1837001,39,-8372,761,0,0,-1,0
1837006,40,-8372,767,0,0,-1,0
1837011,42,-8372,770,-1,0,-1,0
1837016,46,-8370,774,0,0,-1,0
1837021,46,-8372,774,0,0,-1,0
1837026,47,-8373,768,0,0,-1,0
1837031,46,-8373,764,0,0,-1,0
1837036,51,-8371,755,0,0,-1,0
1837041,51,-8369,748,-1,0,-1,0
1837046,47,-8366,746,0,0,-1,0
1837051,48,-8367,741,0,0,-1,0
1837056,56,-8370,738,0,0,-1,0
1837061,65,-8371,736,0,0,-1,0
1837066,69,-8371,735,0,0,-1,0
1837071,74,-8372,737,0,0,-1,0
1837076,77,-8372,735,0,0,-1,0
1837081,79,-8373,731,0,0,-1,0
1837086,74,-8376,738,0,0,-1,0
1837091,67,-8376,744,0,0,-1,0
1837096,61,-8377,738,0,0,-1,0
1837101,55,-8377,731,0,0,-1,0
1837106,55,-8377,722,0,0,-1,0
1837111,62,-8378,721,0,0,-1,0
1837116,68,-8376,720,0,0,-1,0
1837121,70,-8380,716,0,0,-1,0
1837126,71,-8381,715,0,0,-1,0
1837131,73,-8379,719,0,0,-1,0
1837136,71,-8378,723,0,0,-1,0
1837141,69,-8379,725,0,0,-1,0
1837146,64,-8380,727,0,0,-1,0
1837151,64,-8380,730,0,0,-1,0
1837156,65,-8378,732,0,0,-1,0
1837161,67,-8377,739,0,0,-1,0
1837166,72,-8373,746,0,0,-1,0
1837171,76,-8370,749,0,0,-1,0
1837176,77,-8370,758,0,0,-1,0
1837181,76,-8370,764,0,0,-1,0
1837186,75,-8369,770,0,0,-1,0
1837191,72,-8369,768,0,0,-1,0
1837196,67,-8368,765,0,0,-1,0
1837201,65,-8370,760,0,0,-1,0
1837206,64,-8371,753,0,0,-1,0
1837211,67,-8373,745,0,0,-1,0
1837216,67,-8376,744,0,0,-1,0
1837221,67,-8374,740,0,0,-1,0
1837226,66,-8372,743,0,0,-1,0
1837231,66,-8370,745,0,0,-1,0
1837236,66,-8371,745,0,0,-1,0
1837241,62,-8371,750,0,0,-1,0
1837246,55,-8372,756,0,0,-1,0
1837251,50,-8370,762,0,0,-1,0
1837256,47,-8368,767,0,0,-1,0
1837261,45,-8370,771,0,0,-1,0
1837266,49,-8372,775,0,0,-1,0
1837271,54,-8374,775,-1,0,-1,0
1837276,63,-8376,772,0,0,-1,0
1837281,70,-8374,768,0,0,-1,0
1837286,77,-8375,763,-1,0,-1,0
1837291,81,-8373,754,0,0,-1,0
1837296,79,-8373,749,0,0,-1,0
1837301,79,-8375,748,0,0,-1,0
1837306,79,-8377,745,0,0,-1,0
1837311,79,-8375,748,-1,0,-1,0
1837316,82,-8375,745,0,0,-1,0
1837321,85,-8376,747,0,0,-1,0
1837326,91,-8377,744,0,0,-1,0
1837331,94,-8378,737,0,0,-1,0
1837336,99,-8380,732,0,0,-1,0
1837341,100,-8381,729,0,0,-1,0
1837346,92,-8381,718,0,0,-1,0
1837351,87,-8381,712,0,0,-1,0
1837356,79,-8382,711,0,0,-1,0
1837361,69,-8384,715,0,0,-1,0
1837366,62,-8382,721,0,0,-1,0
1837371,59,-8383,732,0,0,-1,0
1837376,54,-8381,739,0,0,-1,0
1837381,55,-8379,747,0,0,-1,0
1837386,63,-8378,753,0,0,-1,0
1837391,67,-8378,755,0,0,-1,0
1837396,66,-8377,762,0,0,-1,0
1837401,66,-8377,768,0,0,-1,0
1837406,67,-8377,769,0,0,-1,0
1837411,65,-8379,770,0,-1,-1,0
1837416,63,-8379,772,-1,-1,-1,0
1837421,63,-8379,769,-1,-1,-1,0
1837426,65,-8374,766,0,-1,-1,0
1837431,71,-8373,763,0,-1,-1,0
1837436,75,-8371,758,0,-1,-1,0
1837441,83,-8371,752,0,0,-1,0
1837446,92,-8371,740,0,0,-1,0
1837451,97,-8368,735,0,-1,-1,0
1837456,99,-8368,726,0,-1,-1,0
1837461,101,-8368,718,0,-1,-1,0
1837466,104,-8368,715,0,-1,-1,0
1837471,100,-8368,712,0,0,-1,0
1837476,92,-8369,715,0,0,-1,0
1837481,87,-8370,723,0,0,-1,0
1837486,83,-8371,732,0,0,-1,0
1837491,76,-8370,740,0,0,-1,0
1837496,72,-8371,746,0,0,-1,0
1837501,74,-8374,744,0,0,-1,0
1837506,74,-8374,737,0,0,-1,0
1837511,75,-8373,734,0,0,-1,0
1837516,78,-8374,736,0,0,-1,0
1837521,84,-8375,735,0,0,-1,0
1837526,86,-8377,736,0,0,-1,0
1837531,87,-8378,739,0,0,-1,0
1837536,84,-8379,741,0,0,-1,0
1837541,87,-8379,745,0,0,-1,0
1837546,88,-8379,748,0,0,-1,0
1837551,88,-8377,752,0,0,-1,0
1837556,88,-8377,752,0,0,-1,0
1837561,91,-8379,753,0,0,-1,0
1837566,95,-8380,749,0,0,-1,0
1837571,101,-8382,749,0,0,-1,0
1837576,102,-8379,747,0,0,-1,0
1837581,103,-8377,750,0,0,-1,0
1837586,100,-8375,750,0,0,-1,0
1837591,96,-8375,748,0,-1,-1,0
1837596,91,-8377,753,0,-1,-1,0
1837601,86,-8377,751,0,0,-1,0
1837606,87,-8378,749,0,0,-1,0
1837611,89,-8378,746,0,0,-1,0
1837616,93,-8378,740,0,0,-1,0
1837621,100,-8377,731,0,0,0,0
1837626,105,-8377,727,0,0,0,0
1837631,106,-8378,732,0,0,0,0
1837636,111,-8381,735,0,0,-1,0
1837641,113,-8379,737,0,0,0,0
1837646,110,-8378,744,0,0,0,0
1837651,102,-8376,757,0,0,-1,0
1837656,100,-8377,771,0,0,0,0
1837661,99,-8378,781,0,0,0,0
1837666,94,-8375,786,0,0,0,0
1837671,90,-8374,791,0,0,0,0
1837676,90,-8374,791,0,0,0,0
1837681,94,-8374,790,0,0,0,0
1837686,96,-8376,785,0,-1,0,0
1837691,93,-8376,780,0,-1,0,0
1837696,95,-8376,776,-1,-1,0,0
1837701,94,-8376,769,0,-1,0,0
1837706,92,-8380,766,-1,-1,0,0
1837711,90,-8381,763,-1,-1,0,0
1837716,87,-8379,761,-1,0,0,0
1837721,86,-8377,755,-1,0,0,0
1837726,87,-8375,751,0,-1,0,0
1837731,82,-8378,747,0,0,0,0
1837736,81,-8378,740,0,0,0,0
1837741,77,-8375,735,0,0,0,0
1837746,71,-8376,732,0,0,0,0
1837751,66,-8377,727,0,0,0,0
1837756,66,-8377,728,0,0,0,0
1837761,66,-8375,725,0,0,0,0
1837766,61,-8375,732,0,0,0,0
1837771,61,-8373,742,0,0,0,0
1837776,63,-8371,744,0,0,0,0
1837781,63,-8371,748,0,0,0,0
1837786,64,-8372,747,0,0,0,0
1837791,66,-8371,748,0,0,0,0
1837796,68,-8373,746,0,0,0,0
1837801,63,-8372,744,0,0,0,0
1837806,59,-8373,744,0,0,0,0
1837811,56,-8370,744,0,0,0,0
1837816,54,-8370,750,0,0,0,0
1837821,56,-8370,758,0,0,-1,0
1837826,54,-8369,761,0,0,0,0
1837831,52,-8369,767,0,0,0,0
1837836,61,-8371,763,0,0,0,0
1837841,63,-8370,759,0,0,0,0
1837846,68,-8366,747,0,-1,-1,0
1837851,68,-8365,749,0,-1,-1,0
1837856,68,-8365,749,0,0,-1,0
1837861,67,-8367,747,0,0,0,0
1837866,60,-8371,752,0,-1,-1,0
1837871,54,-8372,757,0,-1,-1,0
1837876,55,-8372,760,0,0,-1,0
1837881,53,-8372,763,0,0,-1,0
1837886,57,-8371,761,0,-1,-1,0
1837891,59,-8372,759,0,-1,-1,0
1837896,68,-8372,751,0,0,-1,0
1837900,74,-8371,743,0,-1,-1,0
1837906,78,-8374,740,0,0,-1,0
1837911,83,-8377,739,0,0,-1,0
1837916,84,-8377,738,0,0,-1,0
1837921,88,-8379,738,0,0,-1,0
1837925,90,-8381,738,0,0,0,0
1837931,89,-8380,736,0,0,0,0
1837936,90,-8382,733,0,0,0,0
1837940,88,-8384,733,0,0,0,0
1837946,85,-8382,732,0,0,0,0
1837951,87,-8380,731,0,0,0,0
1837956,91,-8380,731,0,0,0,0
1837961,94,-8377,733,0,0,0,0
1837966,96,-8378,734,0,0,0,0
1837970,97,-8375,738,0,0,0,0
1837976,95,-8377,739,0,0,0,0
1837981,90,-8377,736,0,0,0,0
1837986,85,-8377,732,0,0,0,0
1837990,84,-8377,736,0,0,0,0
1837996,82,-8376,738,0,0,0,0
1838001,79,-8379,745,0,0,0,0
1838005,79,-8379,750,0,0,0,0
1838010,79,-8375,754,0,0,0,0
1838015,79,-8374,757,0,0,0,0
1838020,76,-8375,758,0,0,0,0
1838025,76,-8374,761,0,0,0,0
1838030,75,-8375,761,0,0,0,0
1838035,74,-8376,756,0,0,0,0
1838041,70,-8374,761,0,0,0,0
1838045,67,-8373,770,0,0,0,0
1838050,65,-8373,780,0,0,0,0
1838055,68,-8374,790,0,0,0,0
1838060,69,-8372,798,0,0,0,0
1838065,72,-8372,798,0,0,0,0
1838070,80,-8372,798,0,0,0,0
1838075,81,-8372,791,0,0,0,0
1838080,80,-8372,788,0,0,0,0
1838085,78,-8372,787,0,0,0,0
1838090,74,-8372,783,0,0,-1,0
1838095,68,-8371,781,0,0,-1,0
1838100,63,-8372,783,0,0,0,0
1838105,63,-8370,783,0,0,0,0
1838110,66,-8366,787,0,0,0,0
1838115,72,-8368,786,0,0,0,0
1838120,75,-8369,788,0,0,-1,0
1838125,76,-8369,781,0,0,0,0
1838130,75,-8370,778,0,-1,-1,0
1838135,75,-8368,777,0,0,-1,0
1838140,72,-8369,777,0,0,-1,0
1838145,69,-8371,779,0,0,-1,0
1838150,67,-8373,775,0,0,-1,0
1838155,64,-8375,774,-1,0,-1,0
1838160,66,-8373,779,-1,-1,-1,0
1838165,72,-8371,781,-1,0,-1,0
1838170,76,-8371,786,-1,0,0,0
1838175,77,-8373,791,-1,-1,0,0
1838180,78,-8373,798,-1,-1,-1,0
1838185,74,-8373,797,-1,-1,0,0
1838190,73,-8374,794,-1,-1,-1,0
1838195,72,-8375,783,0,-1,-1,0
1838200,72,-8375,772,0,0,0,0
1838205,75,-8374,757,-1,0,0,0
1838210,75,-8374,749,-1,0,0,0
1838215,79,-8376,746,-1,0,-1,0
1838220,81,-8375,750,-1,0,0,0
1838225,87,-8372,753,-1,0,0,0
1838230,90,-8370,760,0,0,0,0
1838235,93,-8369,760,0,0,0,0
1838240,93,-8371,752,0,0,0,0
1838245,94,-8370,737,0,0,-1,0
1838250,96,-8367,722,0,0,0,0
1838255,91,-8366,708,0,0,0,0
1838260,87,-8367,696,0,0,0,0
1838265,84,-8368,694,0,0,0,0
1838270,81,-8366,702,0,0,0,0
1838275,78,-8368,711,0,0,0,0
1838280,71,-8371,722,0,0,0,0
1838285,67,-8370,729,0,0,0,0
1838290,60,-8368,736,0,0,0,0
1838295,55,-8371,744,0,0,0,0
1838300,53,-8371,745,0,0,-1,0
1838305,57,-8371,750,0,0,0,0
1838310,57,-8371,751,0,0,0,0
1838315,64,-8372,753,0,0,0,0
1838320,68,-8372,754,0,0,0,0
1838325,75,-8371,759,0,0,0,0
1838330,82,-8372,754,0,0,0,0
1838335,87,-8370,749,0,0,0,0
1838340,91,-8372,750,0,0,0,0
1838345,94,-8371,745,0,0,-1,0
1838350,90,-8372,745,0,0,-1,0
1838355,87,-8374,747,0,0,0,0
1838360,84,-8374,742,0,0,-1,0
1838365,86,-8374,741,0,0,0,0
1838370,88,-8374,734,0,0,-1,0
1838375,89,-8371,733,0,0,0,0
1838380,89,-8371,732,0,0,-1,0
1838385,89,-8369,734,0,0,0,0
1838390,86,-8369,733,0,1,0,0
1838395,80,-8371,737,0,1,-1,0
1838400,73,-8373,741,0,1,0,0
1838405,66,-8375,749,0,1,0,0
1838410,61,-8376,753,0,1,0,0
1838415,59,-8375,757,0,2,0,0
1838420,55,-8376,757,0,2,0,0
1838425,57,-8376,756,0,3,0,0
1838430,62,-8375,759,0,3,0,0
1838435,67,-8375,763,0,2,-1,0
1838440,73,-8375,765,0,1,-1,0
1838445,78,-8377,767,0,1,-1,0
1838450,77,-8378,773,0,0,-1,0
1838455,74,-8378,778,0,0,-1,0
1838460,74,-8375,778,0,0,-1,0
1838465,69,-8372,777,0,0,-1,0
1838470,62,-8370,776,0,0,-1,0
1838475,62,-8369,776,0,0,-1,0
1838480,60,-8368,774,0,0,-1,0
1838485,62,-8370,771,0,0,-1,0
1838490,64,-8370,766,0,0,-1,0
1838495,69,-8372,756,0,0,-1,0
1838500,76,-8373,752,0,0,-1,0
1838505,82,-8373,748,0,0,-1,0
1838510,87,-8370,748,0,0,-1,0
1838515,90,-8371,752,0,0,-1,0
1838520,88,-8374,753,0,0,-1,0
1838525,84,-8374,762,0,0,-1,0
1838530,76,-8374,773,0,0,-1,0
1838535,72,-8373,775,0,0,-1,0
1838540,73,-8371,778,0,0,-1,0
1838545,79,-8371,778,0,0,-1,0
1838550,88,-8372,779,0,0,-1,0
1838555,98,-8372,777,0,0,-1,0
1838560,106,-8372,775,0,0,-1,0
1838565,107,-8372,776,0,0,-1,0
1838570,108,-8375,777,0,-1,-1,0
1838575,105,-8371,782,0,-1,-1,0
1838580,100,-8371,782,0,-1,-1,0
1838585,94,-8370,783,0,-1,-1,0
1838590,86,-8370,782,0,-1,-1,0
1838595,81,-8367,776,0,-1,-1,0
1838600,78,-8366,772,0,-1,-1,0
1838605,80,-8366,770,0,-1,-1,0
1838610,84,-8369,770,0,-1,-1,0
1838615,93,-8372,767,0,0,-1,0
1838620,100,-8373,763,0,-1,-1,0
1838625,103,-8373,763,0,-1,-1,0
1838630,104,-8370,766,0,-1,-1,0
1838635,103,-8369,769,0,-1,-1,0
1838640,97,-8368,775,0,-1,-1,0
1838645,88,-8368,772,0,-1,0,0
1838650,80,-8372,771,0,-1,-1,0
1838655,70,-8372,769,0,0,-1,0
1838660,68,-8376,763,0,0,0,0
1838665,64,-8379,764,0,0,-1,0
1838670,64,-8381,763,0,0,-1,0
1838675,63,-8379,767,0,0,-1,0
1838680,62,-8380,770,0,0,-1,0
1838685,60,-8380,774,0,-1,-1,0
1838690,62,-8382,778,0,0,-1,0
1838695,61,-8382,785,0,0,-1,0
1838700,58,-8382,787,0,-1,-1,0
1838705,61,-8380,791,0,-1,-1,0
1838710,66,-8378,784,0,-1,-1,0
1838715,70,-8376,784,0,0,-1,0
1838720,75,-8378,783,0,-1,-1,0
1838725,80,-8375,780,0,-1,-1,0
1838730,84,-8374,776,0,0,-1,0
1838735,83,-8373,771,0,-1,-1,0
1838740,79,-8375,770,0,-1,-1,0
1838745,76,-8376,775,0,-1,-1,0
1838750,70,-8375,784,0,-1,-1,0
1838755,67,-8377,794,0,-1,-1,0
1838760,62,-8376,803,0,-1,-1,0
1838765,63,-8376,807,0,0,-1,0
1838770,69,-8377,808,0,0,-1,0
1838775,71,-8377,804,0,0,-1,0
1838780,77,-8376,800,0,-1,-1,0
1838785,82,-8373,799,0,-1,-1,0
1838790,84,-8374,797,0,-1,-1,0
1838795,84,-8373,795,0,-1,-1,0
1838800,84,-8372,795,0,-1,-1,0
1838805,80,-8372,800,0,-1,-1,0
1838810,80,-8370,803,0,-1,-1,0
1838815,81,-8374,809,0,-1,-1,0
1838820,79,-8375,813,0,-1,-1,0
1838825,81,-8374,811,0,-1,-1,0
1838830,84,-8375,809,0,-1,-1,0
1838835,89,-8374,807,0,0,-1,0
1838840,95,-8374,805,0,0,-1,0
1838845,102,-8371,809,0,-1,-1,0
1838850,108,-8371,808,0,-1,-1,0
1838855,113,-8371,800,0,-1,-1,0
1838860,114,-8373,799,0,-1,-1,0
1838865,115,-8374,795,0,-1,-1,0
1838870,116,-8375,795,0,-1,0,0
1838875,116,-8374,797,0,-1,0,0
1838880,116,-8376,799,0,-1,-1,0
1838885,113,-8376,804,0,-1,-1,0
1838890,109,-8377,808,0,-1,-1,0
1838895,107,-8377,811,0,-1,0,0
1838900,106,-8375,815,0,-1,0,0
1838905,104,-8375,819,0,-1,0,0
1838910,104,-8373,821,0,-1,0,0
1838915,104,-8372,820,0,-1,0,0
1838920,99,-8373,812,0,-1,0,0
1838925,96,-8375,809,0,-1,0,0
1838930,95,-8375,811,0,-1,0,0
1838935,91,-8375,813,0,-1,0,0
1838940,89,-8377,820,0,0,0,0
1838945,89,-8379,822,0,0,0,0
1838950,88,-8378,823,0,0,0,0
1838955,91,-8379,823,0,0,0,0
1838960,95,-8377,822,0,-1,0,0
1838965,96,-8378,822,0,-1,0,0
1838970,98,-8378,821,0,-1,0,0
1838975,97,-8379,818,-1,-1,0,0
1838980,97,-8380,820,-1,0,0,0
1838985,97,-8382,823,-1,0,0,0
1838990,95,-8381,825,-1,0,0,0
1838995,95,-8380,825,-1,-1,0,0
1839000,95,-8379,826,-1,-1,0,0
1839005,97,-8376,821,-1,-1,0,0
1839010,96,-8373,815,-1,-1,0,0
1839015,101,-8373,814,-1,-1,0,0
1839020,98,-8373,807,-1,-1,0,0
1839025,96,-8371,799,-1,-1,0,0
1839030,95,-8371,798,-1,-1,0,0
1839035,89,-8371,797,-1,0,0,0
1839040,86,-8372,800,-1,0,0,0
1839045,84,-8372,801,-1,0,0,0
1839050,86,-8370,805,-1,0,0,0
1839055,86,-8371,802,-1,0,0,0
1839060,88,-8369,801,-1,-1,0,0
1839065,88,-8369,800,-1,-1,0,0
1839070,87,-8370,800,-1,-1,0,0
1839075,88,-8371,798,-1,-1,0,0
1839080,84,-8375,796,-1,-1,0,0
1839085,80,-8379,796,-1,-1,0,0
1839090,77,-8377,799,-1,-1,0,0
1839095,73,-8378,802,-1,-1,0,0
1839100,74,-8379,803,-1,-1,0,0
1839105,74,-8378,806,-1,-1,0,0
1839110,78,-8379,802,-1,-1,0,0
1839115,84,-8380,795,-1,-1,0,0
1839120,91,-8380,786,-1,-1,0,0
1839125,98,-8380,776,-1,-1,0,0
1839130,100,-8377,766,-1,-1,0,0
1839134,100,-8375,752,-1,-1,0,0
1839140,102,-8375,744,-1,-1,0,0
1839145,99,-8375,741,-1,0,0,0
1839150,96,-8375,744,-1,0,0,0
1839155,92,-8374,747,-1,0,0,0
1839159,86,-8375,762,-1,0,0,0
1839165,84,-8374,776,-1,0,0,0
1839170,86,-8373,788,-1,0,0,0
1839175,89,-8372,789,-1,-1,0,0
1839180,92,-8373,789,-1,-1,0,0
1839185,95,-8375,786,-1,-1,0,0
1839189,98,-8373,779,-1,-1,0,0
1839194,100,-8374,775,-1,-1,0,0
1839200,103,-8374,777,-1,-1,0,0
1839205,103,-8374,777,-1,-1,0,0
1839209,101,-8372,776,-1,-1,0,0
1839215,99,-8370,774,-1,-1,0,0
1839220,98,-8368,774,-1,-1,0,0
1839225,100,-8365,767,-1,-1,0,0
1839229,101,-8367,762,-1,-1,0,0
1839235,102,-8369,759,0,0,0,0
1839239,106,-8366,753,0,0,0,0
1839244,109,-8364,746,0,-1,0,0
1839249,112,-8366,743,0,-1,0,0
1839254,110,-8368,739,0,0,0,0
1839259,109,-8366,737,0,0,0,0
1839264,106,-8369,736,0,0,0,0
1839270,98,-8372,743,0,-1,0,0
1839275,92,-8372,751,0,0,0,0
1839279,86,-8370,755,0,0,0,0
1839284,78,-8368,759,0,0,0,0
1839289,71,-8368,770,0,0,0,0
1839294,68,-8369,773,0,0,0,0
1839299,65,-8371,777,0,0,0,0
1839304,60,-8372,778,0,-1,0,0
1839309,57,-8373,780,0,0,0,0
1839314,54,-8375,788,0,0,0,0
1839319,51,-8375,789,0,0,0,0
1839324,43,-8374,790,0,0,0,0
1839329,37,-8372,786,0,0,0,0
1839334,33,-8372,787,0,0,0,0
1839339,31,-8375,796,-1,0,0,0
1839344,31,-8376,805,-1,0,0,0
1839349,34,-8376,805,0,-1,0,0
1839354,37,-8378,808,0,-1,0,0
1839359,49,-8380,807,0,0,0,0
1839364,53,-8379,802,0,0,0,0
1839369,56,-8381,800,0,-1,0,0
1839374,60,-8382,797,0,0,0,0
1839379,63,-8381,792,0,0,0,0
1839384,64,-8381,786,0,-1,0,0
1839389,65,-8381,789,0,0,0,0
1839394,67,-8379,785,0,0,0,0
1839399,66,-8379,777,0,0,0,0
1839404,67,-8377,775,0,0,0,0
1839409,67,-8374,773,0,0,0,0
1839414,65,-8374,776,0,0,0,0
1839419,70,-8373,781,0,0,0,0
1839424,72,-8372,786,0,0,0,0
1839429,74,-8371,788,0,0,0,0
1839434,81,-8373,786,0,0,0,0
1839439,85,-8373,786,0,0,0,9
1839444,86,-8372,786,0,0,0,9
1839449,84,-8371,781,0,0,0,9
1839454,83,-8371,783,-1,0,0,9
1839459,82,-8370,786,-1,-1,0,9
1839464,82,-8372,790,-1,0,0,9
1839469,80,-8373,796,-1,0,0,9
1839474,77,-8373,800,-1,0,0,9
1839479,77,-8371,805,-1,0,0,9
1839484,77,-8371,801,0,-1,0,9
1839489,78,-8372,797,-1,-1,0,9
1839494,80,-8373,790,-1,-1,0,9
1839499,80,-8370,780,-1,-1,0,9
1839504,76,-8372,773,-1,-1,0,9
1839509,72,-8375,771,-1,-1,0,9
1839514,71,-8376,774,-1,-1,0,9
1839519,71,-8377,780,-1,-1,0,9
1839524,71,-8376,787,-1,-1,0,9
1839529,70,-8375,787,-1,-1,0,9
1839534,70,-8372,784,-1,-1,0,9
1839539,70,-8374,780,-1,-1,0,9
1839544,70,-8376,776,-1,-1,0,9
1839549,65,-8377,778,-1,-1,0,9
1839554,65,-8375,781,-1,-1,0,9
1839559,62,-8377,782,-1,-1,0,9
1839564,56,-8377,778,0,0,0,9
1839569,50,-8377,772,0,0,0,9
1839574,42,-8376,773,-1,0,0,9
1839579,38,-8375,769,-1,0,0,9
1839584,35,-8376,772,-1,-1,0,9
1839589,31,-8374,777,0,-1,0,9
1839594,30,-8374,785,0,0,0,9
1839599,33,-8373,792,0,-1,0,9
1839604,35,-8373,795,0,0,0,9
1839609,34,-8372,794,0,0,0,9
1839614,39,-8373,788,0,0,0,9
1839619,44,-8374,784,0,-1,0,9
1839624,49,-8374,776,0,-1,0,9
1839629,53,-8372,770,0,-1,0,9
1839634,53,-8371,767,0,0,0,9
1839639,52,-8373,768,0,0,0,9
1839644,52,-8373,772,0,0,0,9
1839649,52,-8373,778,0,0,0,9
1839654,50,-8376,784,0,0,0,9
1839659,50,-8378,785,0,0,0,9
1839664,51,-8377,788,0,-1,0,9
1839669,50,-8377,790,0,-1,0,9
1839674,51,-8374,792,0,-1,0,9
1839679,50,-8372,794,0,-1,0,9
1839684,53,-8368,798,-1,-1,0,9
1839689,53,-8367,804,-1,-1,0,9
1839694,52,-8366,812,-1,-1,0,9
1839699,49,-8364,819,-1,-1,0,9
1839704,47,-8365,828,-1,0,0,9
1839709,43,-8365,831,-1,-1,0,9
1839714,37,-8368,832,-1,-1,0,9
1839719,29,-8370,828,-1,-1,0,9
1839724,20,-8369,826,-1,-1,0,9
1839729,11,-8370,826,-1,-1,-1,9
1839734,9,-8370,827,-1,-1,-1,9
1839739,11,-8369,825,-1,-1,0,9
1839744,19,-8368,823,-1,-1,0,9
1839749,29,-8368,824,-1,-1,-1,9
1839754,39,-8367,828,-1,-1,-1,9
1839759,45,-8369,831,-1,-1,-1,9
1839764,53,-8372,837,-1,-1,-1,9
1839769,57,-8372,839,-1,-1,-1,9
1839774,54,-8373,842,-1,-1,-1,9
1839779,44,-8373,842,-1,-1,-1,9
1839784,37,-8374,841,-1,-1,-1,9
1839789,32,-8377,836,-1,-1,-1,9
1839794,29,-8381,840,-1,-1,-1,9
1839799,25,-8381,847,-1,-1,-1,9
1839804,24,-8382,857,-1,-1,-1,9
1839809,28,-8380,869,-1,-1,-1,9
1839814,32,-8382,878,-1,-1,-1,9
1839819,36,-8383,885,-1,-1,-1,9
1839824,39,-8383,885,-1,-1,-1,9
1839829,42,-8385,883,-1,-1,-1,9
1839834,43,-8384,880,-1,-1,-1,9
1839839,42,-8383,878,-1,-1,-1,9
1839844,41,-8384,878,-1,-1,-1,9
1839849,38,-8385,874,-1,-1,-1,9
1839854,36,-8384,876,-1,-1,-1,9
1839859,31,-8383,880,-1,-1,-1,9
1839864,32,-8382,888,-1,-1,-1,9
1839869,43,-8385,892,-1,-1,-1,9
1839874,51,-8386,894,-1,-1,-1,9
1839879,62,-8388,888,-1,-1,-1,9
1839884,69,-8384,877,-1,-1,-1,9
1839889,74,-8379,862,-1,-1,-1,9
1839894,81,-8381,853,-1,-1,-1,9
1839899,78,-8383,840,-1,-1,-1,9
1839904,74,-8382,826,-2,-1,-1,9
1839909,70,-8380,821,-2,-1,-1,9
1839914,70,-8377,824,-2,-1,-1,9
1839919,69,-8377,825,-2,-1,-1,9
1839924,77,-8375,824,-2,-1,-1,9
1839929,80,-8373,815,-2,-1,-1,9
1839934,87,-8371,807,-2,-1,-1,9
1839939,91,-8371,797,-2,-1,-1,9
1839944,95,-8371,787,-2,-1,-1,9
1839949,93,-8371,778,-2,-1,-1,9
1839954,91,-8373,770,-2,-1,-1,9
1839959,87,-8375,765,-2,-1,-1,9
1839964,82,-8374,758,-2,-1,-1,9
1839969,79,-8373,746,-2,-1,-1,9
1839974,81,-8375,730,-1,-1,-1,9
1839979,80,-8375,718,-1,-1,-1,9
1839984,79,-8375,702,-1,-1,-1,9
1839989,78,-8376,693,-1,-1,-1,9
1839994,74,-8376,685,-1,-1,-1,9
1839999,71,-8373,678,-1,-1,-1,9
1840004,62,-8371,676,-1,-1,-1,9
1840009,45,-8371,679,-1,-1,-1,9
1840014,22,-8370,690,-1,-1,-1,9
1840019,-7,-8373,711,-1,-1,-1,9
1840024,-38,-8376,735,-1,-1,-1,9
1840029,-76,-8375,766,-2,-2,-1,9
1840034,-121,-8375,802,-2,-2,-1,9
1840039,-172,-8378,838,-2,-3,-1,9
1840044,-227,-8381,873,-2,-3,-1,9
1840049,-283,-8381,902,-2,-4,-2,9
1840054,-338,-8382,927,-2,-6,-2,9
1840059,-392,-8383,936,-2,-7,-2,9
1840064,-430,-8381,918,-2,-9,-2,9
1840069,-447,-8380,867,-2,-10,-2,9
1840074,-442,-8376,780,-1,-12,-2,9
1840079,-403,-8367,642,-1,-14,-3,9
1840084,-318,-8358,440,-1,-15,-2,9
1840089,-203,-8346,188,0,-17,-2,9
1840094,-55,-8345,-133,1,-19,-2,9
1840099,108,-8320,-512,1,-20,-2,9
1840104,303,-8299,-896,2,-19,-2,9
1840109,562,-8277,-1292,3,-18,-1,9
1840114,856,-8255,-1734,4,-19,0,9
1840119,1148,-8233,-2247,7,-19,0,9
1840124,1429,-8208,-2847,9,-13,1,9
1840129,1735,-8183,-3518,12,-1,2,9
1840134,2076,-8158,-4241,14,8,3,9
1840139,2370,-8129,-4935,15,8,4,9
1840144,2587,-8101,-5510,16,8,5,9
1840149,2736,-8070,-5909,18,11,6,9
1840154,2803,-8037,-6091,19,16,7,9
1840159,2795,-7998,-6096,21,22,8,9
1840164,2687,-7966,-5931,24,30,9,9
1840169,2498,-7935,-5660,26,45,10,9
1840174,2295,-7904,-5379,28,63,12,9
1840179,2063,-7876,-5070,30,81,13,9
1840184,1819,-7854,-4813,32,97,14,9
1840189,1587,-7828,-4579,33,110,16,9
1840194,1363,-7812,-4328,33,119,17,9
1840199,1152,-7795,-4042,33,125,18,9
1840204,945,-7783,-3650,33,129,18,9
1840209,761,-7767,-3189,33,131,19,9
1840214,656,-7730,-2800,34,134,20,9
1840219,605,-7695,-2485,36,140,22,9
1840224,569,-7675,-2163,37,145,23,9
1840229,263,-7780,-1357,37,146,23,9
1840234,-191,-7888,-43,27,130,16,9
1840239,-764,-7928,902,18,112,11,9
1840244,-1531,-7982,2188,16,91,10,9
1840249,-2161,-7988,3082,13,85,8,9
1840254,-3697,-8048,4981,13,79,12,9
1840259,-4828,-8138,6610,14,44,13,9
1840264,-5764,-8234,8005,15,37,14,9
1840269,-6405,-8379,9202,14,53,14,9
1840274,-6329,-8455,10126,11,73,11,9
1840279,-6020,-8547,11019,7,83,8,9
1840284,-5487,-8624,11514,2,61,4,9
1840289,-5028,-8660,11892,-4,15,-1,9
1840294,-4890,-8709,12233,-8,-27,-6,9
1840299,-4934,-8708,12378,-12,-60,-10,9
1840304,-5278,-8724,12627,-15,-79,-13,9
1840309,-5728,-8717,12656,-18,-93,-14,9
1840314,-6179,-8681,12550,-19,-105,-15,9
1840319,-6565,-8647,12266,-21,-113,-16,9
1840324,-6734,-8589,11665,-23,-115,-16,9
1840329,-6685,-8530,10954,-26,-114,-17,9
1840334,-6391,-8469,10133,-28,-111,-18,9
1840339,-5935,-8394,9296,-31,-109,-19,9
1840344,-5393,-8326,8515,-33,-111,-21,9
1840349,-4848,-8257,7797,-35,-121,-23,9
1840354,-4383,-8186,7169,-36,-133,-24,9
1840359,-4009,-8118,6542,-36,-144,-24,9
1840364,-3740,-8053,5870,-36,-148,-24,9
1840369,-3527,-7993,5144,-36,-145,-24,9
1840374,-3285,-7928,4322,-35,-138,-23,9
1840379,-2994,-7866,3470,-35,-131,-22,9
1840384,-2628,-7821,2610,-34,-125,-22,9
1840389,-2219,-7779,1855,-33,-119,-21,9
1840394,-1809,-7740,1194,-31,-114,-20,9
1840399,-1447,-7707,618,-29,-109,-19,9
1840404,-1250,-7751,387,-27,-104,-18,9
1840408,-1100,-7702,-152,-31,-98,-19,9
1840414,-473,-7609,-2316,-25,-83,-16,9
1840419,152,-7601,-3825,-19,-52,-11,9
1840424,472,-7609,-3960,-15,-41,-9,9
1840429,1008,-7689,-5336,-12,-66,-8,9
1840433,1827,-7715,-6914,-15,-57,-7,9
1840439,2324,-7773,-7614,-16,-23,-7,9
1840443,3092,-7771,-8745,-17,-16,-7,9
1840449,3533,-7788,-8691,-13,-9,-6,9
1840453,3759,-7803,-8636,-9,-14,-4,9
1840459,3924,-7817,-8611,-3,-11,-2,9
1840464,3931,-7843,-8234,2,5,1,9
1840468,4084,-7848,-8477,6,11,2,9
1840473,4179,-7861,-8538,9,15,4,9
1840479,4237,-7871,-8879,12,11,6,9
1840484,4297,-7869,-9289,14,11,7,9
1840488,4247,-7867,-9469,16,18,8,9
1840493,4205,-7852,-9756,18,25,9,9
1840498,4055,-7836,-9696,20,37,10,9
1840503,3845,-7810,-9573,23,49,12,9
1840508,3600,-7777,-9347,25,63,13,9
1840514,3281,-7746,-8963,28,81,15,9
1840519,2982,-7710,-8609,31,99,17,9
1840523,2710,-7676,-8172,33,117,18,9
1840528,2488,-7649,-7793,35,126,20,9
1840533,2276,-7615,-7435,37,127,21,9
1840538,2041,-7577,-7078,39,128,22,9
1840543,1819,-7535,-6715,40,129,22,9
1840548,1582,-7499,-6302,40,131,23,9
1840553,1326,-7468,-5836,41,132,24,9
1840558,1059,-7430,-5320,42,133,24,9
1840563,785,-7401,-4717,42,135,25,9
1840568,563,-7368,-4132,43,138,26,9
1840573,400,-7335,-3606,44,141,28,9
1840578,276,-7300,-3146,45,143,29,9
1840583,183,-7281,-2727,46,144,30,9
1840588,-107,-7273,-2324,45,142,29,9
1840593,-549,-7313,-1670,44,130,25,9
1840598,-1063,-7394,-660,38,120,21,9
1840603,-1852,-7418,228,32,115,20,9
1840608,-2689,-7463,1254,31,100,21,9
1840613,-3085,-7471,1934,28,99,19,9
1840618,-4170,-7534,3254,27,103,21,9
1840623,-5039,-7633,4689,26,80,22,9
1840628,-5753,-7704,6070,24,65,22,9
1840633,-6398,-7850,7542,23,64,21,9
1840638,-6610,-7976,8775,19,73,19,9
1840643,-6614,-8090,9862,16,85,16,9
1840648,-6428,-8234,10793,13,79,13,9
1840653,-6155,-8332,11591,10,57,9,9
1840658,-6040,-8439,12276,6,24,5,9
1840663,-6046,-8508,12862,2,-7,1,9
1840668,-6250,-8570,13227,-1,-25,-2,9
1840673,-6583,-8609,13415,-5,-38,-5,9
1840678,-6954,-8638,13451,-9,-52,-7,9
1840683,-7322,-8649,13412,-13,-64,-9,9
1840688,-7606,-8648,13198,-16,-76,-10,9
1840693,-7765,-8634,12982,-19,-84,-12,9
1840698,-7761,-8607,12647,-22,-86,-13,9
1840703,-7568,-8559,12281,-25,-85,-15,9
1840708,-7252,-8509,11945,-28,-84,-17,9
1840713,-6854,-8451,11452,-30,-88,-19,9
1840718,-6457,-8380,10912,-32,-96,-21,9
1840723,-6105,-8314,10360,-33,-105,-22,9
1840728,-5796,-8236,9717,-35,-114,-24,9
1840733,-5555,-8159,9026,-37,-122,-25,9
1840738,-5349,-8088,8350,-38,-129,-25,9
1840743,-5156,-8016,7648,-40,-133,-25,9
1840748,-4951,-7941,6993,-41,-133,-25,9
1840753,-4698,-7872,6358,-41,-129,-25,9
1840758,-4383,-7808,5668,-42,-124,-25,9
1840763,-4026,-7747,5025,-42,-120,-25,9
1840768,-3641,-7698,4396,-42,-115,-24,9
1840773,-3237,-7645,3684,-42,-111,-24,9
1840778,-2830,-7600,2986,-42,-107,-24,9
1840783,-2437,-7562,2304,-41,-104,-23,9
1840788,-2070,-7529,1676,-41,-100,-23,9
1840793,-1722,-7500,1111,-40,-97,-22,9
1840798,-1399,-7479,620,-38,-94,-21,9
1840803,-1138,-7468,208,-36,-88,-20,9
1840808,-982,-7508,39,-33,-81,-19,9
1840813,-931,-7538,51,-35,-73,-19,9
1840818,-444,-7427,-1692,-32,-63,-18,9
1840823,152,-7450,-3228,-26,-37,-14,9
1840828,487,-7430,-3751,-24,-15,-11,9
1840833,643,-7501,-4123,-20,-31,-9,9
1840838,1334,-7544,-5821,-22,-45,-10,9
1840843,1745,-7605,-6309,-24,-19,-10,9
1840848,2261,-7645,-7031,-26,-12,-10,9
1840853,2690,-7672,-7156,-25,-13,-11,9
1840858,2782,-7719,-6582,-21,-16,-9,9
1840863,2891,-7758,-6375,-17,-26,-8,9
1840868,2739,-7815,-5694,-13,-23,-6,9
1840873,2593,-7863,-5334,-11,-14,-5,9
1840878,2503,-7889,-5119,-9,-2,-4,9
1840883,2354,-7942,-4751,-8,3,-3,9
1840888,2272,-7978,-4654,-8,1,-2,9
1840893,2130,-8012,-4379,-8,1,-2,9
1840898,2002,-8049,-4162,-7,1,-2,9
1840903,1920,-8074,-3920,-6,6,-1,9
1840908,1831,-8108,-3607,-5,8,-1,9
1840913,1782,-8130,-3353,-4,5,0,9
1840918,1705,-8152,-3021,-4,4,0,9
1840923,1651,-8177,-2739,-3,3,0,9
1840928,1603,-8195,-2440,-2,4,1,9
1840933,1534,-8215,-2152,-2,4,1,9
1840938,1481,-8229,-1925,-1,3,1,9
1840943,1393,-8241,-1700,-1,3,1,9
1840948,1289,-8251,-1531,0,2,1,9
1840953,1174,-8258,-1369,0,2,1,9
1840958,1034,-8269,-1225,0,2,2,9
1840963,905,-8279,-1072,0,2,2,9
1840968,772,-8290,-892,0,2,2,9
1840973,661,-8299,-709,0,3,2,9
1840978,568,-8308,-533,0,3,2,9
1840983,506,-8317,-355,1,4,2,9
1840988,456,-8321,-182,1,4,2,9
1840993,411,-8327,-43,1,3,2,9
1840998,371,-8334,69,1,1,2,9
1841003,318,-8338,169,1,1,2,9
1841008,268,-8343,251,1,0,2,9
1841013,209,-8345,317,1,0,2,9
1841018,151,-8350,359,1,-1,2,9
1841023,99,-8356,410,0,-1,2,9
1841028,52,-8362,468,0,-1,2,9
1841033,17,-8363,511,0,-1,2,9
1841038,-4,-8365,553,0,0,2,9
1841043,-5,-8368,589,0,0,2,9
1841048,-8,-8369,618,0,-1,2,9
1841053,-1,-8368,629,0,-1,1,9
1841058,12,-8367,628,0,-1,1,9
1841063,15,-8368,611,0,-1,1,9
1841068,20,-8370,592,0,-1,1,9
1841073,8,-8370,558,0,-1,1,9
1841078,4,-8370,528,0,-1,1,9
1841083,-11,-8372,518,0,-1,1,9
1841088,-22,-8373,529,0,0,1,9
1841093,-27,-8372,530,0,0,1,9
1841098,-18,-8371,538,0,1,1,9
1841103,0,-8368,555,1,1,1,9
1841108,16,-8368,563,1,1,1,9
1841113,44,-8368,559,1,1,1,9
1841118,67,-8368,551,1,1,1,9
1841123,80,-8367,542,1,1,1,9
1841128,93,-8366,540,1,2,1,9
1841133,90,-8367,523,1,2,1,9
1841138,83,-8367,517,1,2,1,9
1841143,66,-8368,527,1,2,1,9
1841148,44,-8367,542,1,2,1,9
1841153,23,-8367,560,1,2,1,9
1841158,13,-8368,570,1,2,1,9
1841163,9,-8367,585,1,3,1,9
1841168,6,-8366,596,1,3,1,9
1841173,12,-8364,603,1,2,1,9
1841178,12,-8362,607,1,2,1,9
1841183,15,-8361,615,1,2,1,9
1841188,11,-8362,632,1,2,1,9
1841193,1,-8362,630,1,2,1,9
1841198,-21,-8364,642,1,2,1,9
1841203,-55,-8365,657,1,2,1,9
1841208,-87,-8366,666,1,2,1,9
1841213,-115,-8368,670,1,2,1,9
1841218,-136,-8368,675,1,2,1,9
1841223,-155,-8369,683,1,3,1,9
1841228,-157,-8372,687,1,3,1,9
1841233,-154,-8372,686,1,3,1,9
1841238,-151,-8371,682,1,2,1,9
1841243,-138,-8371,685,1,2,0,9
1841248,-133,-8373,678,1,2,0,9
1841253,-129,-8374,666,1,2,0,9
1841258,-126,-8374,662,1,2,0,9
1841263,-135,-8374,674,1,1,0,9
1841268,-149,-8378,683,1,1,0,9
1841273,-162,-8380,699,0,1,0,9
1841278,-172,-8379,724,0,1,0,9
1841283,-186,-8378,754,0,1,0,9
1841288,-181,-8377,771,0,0,0,9
1841293,-169,-8376,780,0,1,0,9
1841298,-153,-8376,782,1,0,0,9
1841303,-131,-8375,786,0,1,0,9
1841308,-117,-8376,765,0,1,0,9
1841313,-102,-8376,752,0,0,0,9
1841318,-105,-8379,748,0,0,0,9
1841323,-115,-8377,755,0,0,0,9
1841328,-128,-8376,763,0,0,-1,9
1841333,-134,-8377,768,0,0,-1,9
1841338,-140,-8376,782,0,0,0,9
1841343,-137,-8376,787,0,-1,-1,9
1841348,-122,-8376,787,0,-1,-1,9
1841353,-107,-8379,781,0,-1,-1,9
1841358,-80,-8378,777,0,-1,-1,9
1841363,-59,-8377,771,0,-1,-1,9
1841368,-44,-8374,745,0,-1,-1,9
1841373,-35,-8372,729,0,-1,-1,9
1841378,-36,-8370,728,0,-1,-1,9
1841383,-44,-8369,717,0,-1,-1,9
1841388,-55,-8368,715,0,-1,-1,9
1841393,-55,-8368,706,0,-1,-1,9
1841398,-58,-8371,709,0,-1,-1,9
1841403,-52,-8374,707,0,-1,-1,9
1841408,-32,-8374,703,0,-1,-1,9
1841413,-10,-8373,697,0,-1,-1,9
1841418,14,-8370,698,0,-1,-1,9
1841423,29,-8370,689,0,-1,-1,9
1841428,43,-8368,677,0,-1,-1,9
1841433,45,-8370,676,0,-1,-1,9
1841438,35,-8368,685,0,-1,-1,0
1841443,19,-8368,686,0,-1,-1,0
1841448,6,-8368,685,0,-1,-1,0
1841453,-3,-8370,681,0,-1,-1,0
1841458,-13,-8373,679,0,-1,-1,0
1841463,-9,-8371,671,0,-1,-1,0
1841468,2,-8373,664,0,-1,-1,0
1841473,17,-8374,660,0,-1,-1,0
1841478,39,-8371,665,0,0,-1,0
1841483,50,-8372,660,0,0,-1,0
1841488,60,-8371,661,0,-1,-1,0
1841493,61,-8372,665,0,-1,-1,0
1841498,51,-8373,669,0,-1,-1,0
1841503,40,-8374,666,0,-1,-1,0
1841508,32,-8372,656,0,0,-1,0
1841513,28,-8372,657,0,0,-1,0
1841518,32,-8370,657,0,0,-1,0
1841523,48,-8369,644,0,0,0,0
1841528,71,-8369,631,0,0,0,0
1841533,107,-8367,618,0,0,0,0
1841538,134,-8366,620,0,0,0,0
1841543,147,-8366,606,0,0,-1,0
1841548,153,-8366,605,0,0,-1,0
1841553,141,-8366,616,0,0,-1,0
1841558,122,-8367,623,0,-1,0,0
1841563,95,-8368,623,0,-1,0,0
1841568,75,-8370,615,1,0,0,0
1841573,62,-8370,620,1,0,0,0
1841578,57,-8370,619,1,0,0,0
1841583,63,-8370,613,1,0,0,0
1841588,77,-8369,611,1,0,0,0
1841593,100,-8369,612,1,0,0,0
1841598,111,-8367,617,1,0,0,0
1841603,112,-8366,612,1,0,0,0
1841608,101,-8372,605,1,1,0,0
1841613,74,-8371,604,1,1,0,0
1841618,45,-8371,603,1,1,0,0
1841623,26,-8371,600,1,2,0,0
1841628,17,-8370,605,1,3,0,0
1841633,20,-8370,617,1,3,0,0
1841638,40,-8368,622,1,3,0,0
1841643,67,-8367,635,1,4,0,0
1841647,95,-8368,645,1,4,0,0
1841653,119,-8368,657,1,5,0,0
1841658,124,-8367,657,1,6,0,0
1841662,121,-8365,664,1,6,0,0
1841667,97,-8368,675,1,5,0,0
1841673,56,-8371,684,1,5,0,0
1841677,15,-8373,693,1,6,0,0
1841683,-20,-8376,688,1,8,0,0
1841687,-44,-8376,686,1,10,0,0
1841693,-46,-8377,688,1,13,0,0
1841697,-29,-8381,694,1,15,1,0
1841702,-7,-8382,696,1,16,1,0
1841707,20,-8382,705,1,17,1,0
1841712,37,-8381,726,1,18,0,0
1841717,48,-8380,739,1,19,0,0
1841723,62,-8378,758,1,19,0,0
1841727,67,-8377,785,1,17,1,0
1841732,73,-8374,810,1,15,1,0
1841737,80,-8373,825,1,13,1,0
1841742,84,-8375,823,1,11,1,0
1841747,80,-8378,829,1,11,1,0
1841752,72,-8380,823,1,12,0,0
1841757,62,-8379,814,1,14,0,0
1841762,53,-8378,803,1,15,0,0
1841767,47,-8379,798,1,15,0,0
1841772,33,-8378,793,1,15,1,0
1841777,26,-8377,792,0,15,1,0
1841782,19,-8375,800,0,14,1,0
1841787,9,-8374,816,0,13,1,0
1841792,-3,-8372,834,0,13,1,0
1841797,-26,-8369,848,0,14,0,0
1841802,-67,-8370,848,0,16,0,0
1841807,-123,-8372,855,0,20,0,0
1841812,-185,-8375,855,0,25,0,0
1841817,-231,-8374,850,0,30,1,0
1841822,-262,-8374,837,0,33,1,0
1841827,-270,-8374,840,0,35,1,0
1841832,-252,-8375,833,0,36,1,0
1841837,-200,-8375,825,0,35,1,0
1841842,-133,-8376,829,0,34,1,0
1841847,-71,-8376,844,0,30,1,0
1841852,-6,-8376,861,0,27,0,0
1841857,48,-8375,869,0,22,0,0
1841862,76,-8375,864,0,17,0,0
1841867,80,-8374,852,0,14,0,0
1841872,51,-8372,835,0,12,0,0
1841877,8,-8372,810,0,12,0,0
1841882,-47,-8372,790,0,13,0,0
1841887,-112,-8373,782,0,16,0,0
1841892,-164,-8372,776,0,20,0,0
1841897,-191,-8373,787,0,24,0,0
1841902,-207,-8377,808,0,27,0,0
1841907,-213,-8379,842,0,29,0,0
1841912,-195,-8380,878,0,30,0,0
1841917,-158,-8380,892,0,31,0,0
1841922,-117,-8380,908,0,30,0,0
1841927,-74,-8381,913,0,28,0,0
1841932,-42,-8384,912,0,24,0,0
1841937,-21,-8383,903,0,21,0,0
1841942,-19,-8380,902,0,20,0,0
1841947,-39,-8380,899,-1,20,0,0
1841952,-67,-8378,893,-1,21,0,0
1841957,-100,-8380,893,-1,23,0,0
1841962,-140,-8377,899,-1,24,0,0
1841967,-171,-8372,908,-1,26,0,0
1841972,-190,-8372,903,-1,28,0,0
1841977,-198,-8375,891,-1,30,0,0
1841982,-198,-8376,887,-1,32,0,0
1841987,-186,-8378,878,-1,35,0,0
1841992,-167,-8376,869,-1,37,0,0
1841997,-143,-8372,855,-1,38,0,0
1842002,-125,-8372,852,-1,39,0,0
1842007,-115,-8376,842,-1,39,0,0
1842012,-89,-8377,829,-1,39,0,0
1842017,-72,-8376,827,-1,38,0,0
1842022,-49,-8375,827,-1,36,0,0
1842027,-23,-8376,831,-1,35,0,0
1842032,12,-8376,829,-1,33,0,0
1842037,54,-8377,832,-1,31,0,0
1842042,100,-8376,838,-1,27,0,0
1842047,161,-8375,841,-1,21,0,0
1842052,226,-8372,842,-1,14,0,0
1842057,277,-8373,841,-1,7,-1,0
1842062,298,-8375,837,-1,1,-1,0
1842067,290,-8376,823,-1,-1,-1,0
1842072,268,-8375,814,-1,-1,-1,0
1842077,219,-8374,812,-1,-1,-1,0
1842082,151,-8374,808,-1,-2,-1,0
1842087,81,-8374,793,-1,-2,-1,0
1842092,33,-8376,771,-1,0,-1,0
1842097,6,-8376,747,-1,1,0,0
1842102,5,-8375,724,-1,1,0,0
1842107,22,-8370,708,-1,1,0,0
1842112,51,-8368,691,-1,2,0,0
1842117,88,-8370,687,-1,2,0,0
1842122,101,-8371,687,-1,3,-1,0
1842127,96,-8369,690,-1,5,-1,0
1842132,73,-8372,692,-1,7,-1,0
1842137,42,-8371,694,-1,8,-1,0
1842142,13,-8372,701,-1,7,0,0
1842147,-10,-8371,700,-1,6,0,0
1842152,-18,-8372,695,-1,4,0,0
1842157,-16,-8372,700,-1,3,0,0
1842162,0,-8370,705,-1,3,0,0
1842167,24,-8370,713,-1,3,0,0
1842172,47,-8371,717,-1,3,-1,0
1842177,58,-8373,719,-1,2,-1,0
1842182,48,-8372,712,-1,1,-1,0
1842187,23,-8372,703,-1,1,-1,0
1842192,-22,-8369,680,-1,1,-1,0
1842197,-76,-8366,668,-1,2,-1,0
1842202,-140,-8369,664,-1,4,-1,0
1842207,-223,-8372,650,-1,9,-1,0
1842212,-304,-8369,635,-1,20,0,0
1842217,-362,-8368,634,-1,32,0,0
1842222,-391,-8368,626,-1,44,0,0
1842227,-393,-8369,610,-1,51,0,0
1842232,-368,-8371,600,-1,55,1,0
1842237,-323,-8374,596,-1,56,1,0
1842242,-255,-8374,599,-1,55,1,0
1842247,-176,-8372,620,-1,52,1,0
1842252,-97,-8371,652,-1,48,0,0
1842257,-35,-8370,688,-1,42,0,0
1842262,1,-8371,717,-1,38,0,0
1842267,11,-8371,724,-1,35,0,0
1842272,-4,-8372,715,-1,34,0,0
1842277,-31,-8374,695,-1,35,0,0
1842282,-50,-8375,663,-1,36,0,0
1842287,-45,-8371,624,-1,35,0,0
1842292,-19,-8372,604,-1,32,0,0
1842297,29,-8369,594,-1,27,0,0
1842302,107,-8369,591,-1,22,0,0
1842307,205,-8369,602,-1,15,0,0
1842312,303,-8372,623,-1,6,-1,0
1842317,354,-8374,649,-1,-2,-1,0
1842322,355,-8374,669,-1,-5,-1,0
1842327,330,-8372,670,-1,-5,-1,0
1842332,274,-8373,667,0,-5,-1,0
1842337,192,-8374,642,0,-6,-1,0
1842342,102,-8374,605,0,-8,-1,0
1842347,18,-8374,563,0,-7,-1,0
1842352,-41,-8372,537,-1,-3,-1,0
1842357,-54,-8372,522,-1,0,-1,0
1842362,-31,-8372,528,0,1,-1,0
1842367,5,-8370,532,0,1,-1,0
1842372,36,-8370,557,0,1,-1,0
1842377,60,-8371,588,0,1,-1,0
1842382,60,-8370,607,0,1,-1,0
1842387,36,-8373,630,0,1,-1,0
1842392,-11,-8375,649,0,0,-1,0
1842397,-61,-8375,655,0,0,-1,0
1842402,-107,-8376,653,0,-1,-1,0
1842407,-120,-8379,654,0,0,-1,0
1842412,-105,-8379,652,0,0,-1,0
1842417,-71,-8381,651,-1,0,-1,0
1842422,-20,-8384,652,-1,0,-1,0
1842427,29,-8383,655,0,0,-1,0
1842432,63,-8380,653,0,0,-1,0
1842437,80,-8380,642,0,1,-1,0
1842442,79,-8378,619,0,2,-1,0
1842447,72,-8375,599,0,2,-1,0
1842452,51,-8375,582,0,2,-1,0
1842457,26,-8374,579,0,1,-1,0
1842462,5,-8373,578,0,1,-1,0
1842467,-2,-8373,593,0,1,-1,0
1842472,3,-8374,626,0,2,-1,0
1842477,19,-8373,657,0,2,-1,0
1842482,35,-8374,683,0,2,-1,0
1842487,41,-8376,708,0,2,-1,0
1842492,35,-8377,723,0,3,-1,0
1842497,5,-8377,730,0,5,-1,0
1842502,-39,-8377,724,0,8,-1,0
1842507,-83,-8377,727,0,13,-1,0
1842512,-112,-8382,733,-1,18,0,0
1842517,-120,-8383,737,-1,21,0,0
1842522,-113,-8384,743,-1,22,0,0
1842527,-91,-8385,761,-1,23,0,0
1842532,-61,-8389,778,-1,24,0,0
1842537,-23,-8388,797,-1,25,0,0
1842542,16,-8385,820,-1,24,0,0
1842547,44,-8380,838,-1,22,0,0
1842552,68,-8379,850,-1,20,0,0
1842557,89,-8378,848,-1,17,0,0
1842562,109,-8374,831,-1,14,0,0
1842567,133,-8373,811,-1,12,0,0
1842572,153,-8371,788,-1,10,0,0
1842577,177,-8368,756,-1,8,-1,0
1842582,191,-8368,723,-1,5,-1,0
1842587,186,-8370,699,-1,1,-1,0
1842592,152,-8373,668,-1,0,-1,0
1842597,122,-8371,652,-1,1,-1,0
1842602,84,-8371,638,-1,2,-1,0
1842607,42,-8372,638,-1,2,-1,0
1842612,5,-8371,642,-1,3,-1,0
1842617,-29,-8371,652,-1,6,0,0
1842622,-40,-8370,671,-1,10,0,0
1842627,-34,-8368,698,-1,15,0,0
1842632,-15,-8367,722,-1,18,0,0
1842637,17,-8367,732,-1,20,0,0
1842642,49,-8367,730,-1,21,0,0
1842647,83,-8366,720,-1,20,0,0
1842652,112,-8364,692,-1,17,0,0
1842657,136,-8364,660,-1,13,0,0
1842662,159,-8367,625,-1,9,0,0
1842667,181,-8364,591,-1,6,0,0
1842672,195,-8367,563,-1,3,0,0
1842677,204,-8368,529,-1,1,0,0
1842682,203,-8369,512,-1,1,0,0
1842687,196,-8372,516,-1,1,0,0
1842692,189,-8373,530,-1,0,0,0
1842697,186,-8374,563,-1,-1,0,0
1842702,189,-8375,608,-1,-1,0,0
1842707,191,-8375,656,-1,-1,0,0
1842712,184,-8372,698,-1,-1,0,0
1842717,167,-8373,707,-1,-1,0,0
1842722,126,-8372,697,-1,-1,0,0
1842727,81,-8373,677,-1,0,0,0
1842732,42,-8374,645,-1,0,0,0
1842737,-6,-8374,612,-1,-1,0,0
1842742,-40,-8370,585,-1,0,0,0
1842747,-57,-8368,573,-1,0,0,0
1842752,-60,-8367,564,-1,0,0,0
1842757,-45,-8366,553,-1,-1,0,0
1842762,-31,-8365,559,-1,-1,0,0
1842767,-12,-8365,574,-1,-1,0,0
1842772,9,-8367,591,-1,-2,0,0
1842777,26,-8364,600,-1,-3,0,0
1842782,22,-8365,591,-1,-5,0,0
1842787,-6,-8370,593,-1,-4,0,0
1842792,-17,-8370,564,-1,-3,-1,0
1842797,-36,-8370,557,-1,-4,-1,0
1842802,-73,-8371,560,-1,-4,-1,0
1842807,-105,-8369,566,-1,-4,-1,0
1842812,-134,-8369,580,-1,-3,-1,0
1842817,-146,-8370,582,-1,-2,-1,0
1842822,-144,-8372,585,-1,-2,-1,0
1842827,-132,-8373,582,-1,-3,-1,0
1842832,-109,-8369,565,-1,-4,-1,0
1842837,-83,-8369,550,-1,-4,-1,0
1842842,-62,-8373,543,-1,-5,-1,0
1842847,-45,-8374,553,-1,-5,-1,0
1842852,-41,-8374,577,-1,-3,-1,0
1842857,-43,-8376,638,-1,1,-1,0
1842862,-43,-8373,707,-1,3,-1,0
1842867,-52,-8375,777,-1,3,-1,0
1842872,-77,-8379,856,-1,3,-1,0
1842877,-107,-8385,929,-1,5,-1,0
1842882,-102,-8384,978,-1,6,-1,0
1842887,-81,-8384,1026,-2,6,-1,0
1842892,-64,-8385,1060,-2,4,-1,0
1842897,-49,-8385,1069,-2,5,-1,0
1842902,-38,-8383,1054,-2,6,-1,0
1842907,-43,-8384,1016,-2,8,-1,0
1842911,-51,-8384,948,-2,8,-1,0
1842917,-64,-8385,868,-2,7,-1,0
1842921,-87,-8383,787,-2,7,-1,0
1842927,-114,-8381,699,-2,8,-1,0
1842931,-141,-8378,622,-2,12,-1,0
1842937,-160,-8376,572,-2,19,0,0
1842942,-173,-8374,546,-2,26,0,0
1842947,-168,-8369,529,-2,33,0,0
1842952,-142,-8362,508,-2,40,0,0
1842957,-92,-8361,485,-1,47,1,0
1842962,-16,-8364,445,-1,52,1,0
1842967,74,-8367,397,-1,54,1,0
1842972,165,-8367,362,-2,51,1,0
1842977,239,-8365,346,-2,44,0,0
1842982,299,-8360,361,-2,37,0,0
1842987,357,-8358,392,-1,29,0,0
1842991,409,-8361,439,-1,20,0,0
1842997,447,-8361,479,-1,14,0,0
1843002,468,-8360,508,-1,9,0,0
1843006,473,-8361,516,-1,7,0,0
1843012,459,-8361,502,-1,5,0,0
1843017,431,-8361,477,-1,3,0,0
1843021,380,-8360,436,-1,1,0,0
1843026,324,-8362,385,-1,-1,0,0
1843031,277,-8359,345,-1,-1,0,0
1843037,244,-8357,319,-1,-1,0,0
1843042,221,-8356,320,-1,-1,0,0
1843046,209,-8356,340,-1,-1,0,0
1843051,208,-8356,374,-1,-1,0,0
1843056,206,-8357,424,0,-2,0,0
1843062,197,-8359,469,0,-3,0,0
1843066,180,-8361,498,0,-4,0,0
1843071,154,-8364,518,0,-4,0,0
1843076,118,-8364,521,0,-4,0,0
1843081,92,-8363,502,0,-4,0,0
1843086,80,-8361,476,0,-4,0,0
1843091,83,-8359,442,0,-4,0,0
1843096,89,-8358,416,0,-5,0,0
1843101,97,-8357,407,0,-5,0,0
1843106,108,-8355,413,0,-5,0,0
1843111,117,-8354,432,0,-6,0,0
1843116,103,-8361,487,0,-7,0,0
1843121,80,-8364,536,0,-10,0,0
1843126,47,-8360,555,0,-12,0,0
1843131,-7,-8360,577,0,-12,0,0
1843136,-45,-8363,577,0,-11,0,0
1843141,-78,-8368,556,0,-9,0,0
1843146,-107,-8371,535,0,-9,0,0
1843151,-132,-8373,518,0,-8,0,0
1843156,-160,-8373,521,0,-8,0,0
1843161,-181,-8370,536,0,-8,0,0
1843166,-193,-8368,563,0,-7,0,0
1843171,-203,-8367,606,0,-7,0,0
1843176,-211,-8367,642,0,-6,0,0
1843181,-217,-8367,663,0,-5,0,0
1843186,-220,-8365,667,0,-3,0,0
1843191,-221,-8363,659,0,-1,0,0
1843196,-221,-8361,634,0,-1,0,0
1843201,-208,-8362,597,0,-2,-1,0
1843206,-189,-8360,566,0,-3,0,0
1843211,-237,-8359,505,0,-1,0,0
1843216,-200,-8349,399,0,8,0,0
1843221,-82,-8364,370,1,7,0,0
1843226,-61,-8368,320,0,-2,0,0
1843231,-80,-8369,307,-1,-3,-1,0
1843236,-64,-8371,401,-1,4,-1,0
1843241,-23,-8367,520,-1,3,-1,0
1843246,-19,-8364,629,0,-2,-1,0
1843251,-54,-8367,748,0,-4,0,0
1843256,-57,-8368,816,0,-2,-1,0
1843261,-30,-8370,817,0,0,-1,0
1843266,-38,-8370,814,0,-2,-1,0
1843271,-53,-8370,756,0,-3,-1,0
1843276,-66,-8363,683,0,-2,-1,0
1843281,-77,-8364,618,0,0,-1,0
1843286,-144,-8367,596,-1,0,-1,0
1843291,-210,-8369,612,-1,4,-1,0
1843296,-235,-8362,621,-1,10,-1,0
1843301,-288,-8367,666,0,15,0,0
1843306,-345,-8375,712,0,20,0,0
1843311,-358,-8373,679,-1,27,0,0
1843316,-400,-8371,658,-1,37,0,0
1843321,-437,-8370,632,-1,48,0,0
1843326,-432,-8367,565,0,59,0,0
1843331,-409,-8369,527,0,67,1,0
1843336,-337,-8370,476,-1,70,1,0
1843341,-226,-8368,449,-1,69,1,0
1843346,-91,-8366,460,-1,65,1,0
1843351,37,-8366,506,-1,58,1,0
1843356,157,-8370,575,-1,51,0,0
1843361,279,-8365,632,-1,43,0,0
1843366,375,-8364,683,0,33,0,0
1843371,449,-8363,700,0,20,0,0
1843376,476,-8363,680,0,6,-1,0
1843381,440,-8365,636,0,-2,-1,0
1843386,387,-8369,579,0,-2,-1,0
1843391,341,-8371,534,0,-1,-1,0
1843396,281,-8371,503,0,-2,-1,0
1843401,211,-8368,486,0,-2,-1,0
1843406,152,-8368,490,0,-1,0,0
1843411,125,-8365,502,0,0,0,0
1843416,131,-8364,506,0,0,0,0
1843421,147,-8363,515,0,-1,0,0
1843426,162,-8370,528,0,-2,0,0
1843431,216,-8363,526,0,-2,0,0
1843436,213,-8371,542,0,-6,-1,0
1843441,197,-8374,561,0,-8,-1,0
1843446,159,-8374,573,0,-7,-1,0
1843451,133,-8371,610,0,-7,-1,0
1843456,105,-8369,642,0,-8,0,0
1843461,86,-8368,667,0,-10,0,0
1843466,79,-8367,662,0,-11,0,0
1843471,61,-8367,642,0,-9,-1,0
1843476,41,-8366,616,0,-7,-1,0
1843481,27,-8366,594,0,-5,-1,0
1843486,12,-8364,582,0,-5,-1,0
1843491,-6,-8365,582,-1,-5,0,0
1843496,-5,-8365,594,-1,-7,-1,0
1843501,8,-8368,609,-1,-9,-1,0
1843506,18,-8364,630,0,-10,-1,0
1843511,13,-8362,634,0,-10,-1,0
1843516,5,-8364,641,0,-9,-1,0
1843521,-6,-8370,633,0,-6,-1,0
1843526,-42,-8367,606,0,-4,-1,0
1843531,-77,-8369,587,0,0,-1,0
1843536,-90,-8369,559,-1,2,-1,0
1843541,-94,-8368,538,-1,2,-1,0
1843546,-101,-8370,553,-1,1,0,0
1843551,-104,-8371,579,-1,2,0,0
1843556,-85,-8375,617,-1,3,0,0
1843561,-58,-8378,661,-1,3,-1,0
1843566,-30,-8381,705,-1,2,-1,0
1843571,-8,-8381,736,-1,0,-1,0
1843576,13,-8379,746,-1,-1,-1,0
1843581,17,-8377,738,-1,-1,-1,0
1843586,9,-8373,711,-1,-2,-1,0
1843591,-8,-8370,668,-1,-2,-1,0
1843596,-31,-8369,625,-1,-2,-1,0
1843601,-48,-8369,588,-1,-1,-1,0
1843606,-56,-8370,565,-1,-1,-1,0
1843611,-49,-8368,555,-1,-1,-1,0
1843616,-26,-8369,558,-1,-1,-1,0
1843621,7,-8369,578,-1,0,-1,0
1843626,43,-8369,599,-1,0,-1,0
1843631,79,-8370,619,-1,-1,-1,0
1843636,106,-8370,630,-1,-1,-1,0
1843641,121,-8370,629,-1,-1,-1,0
1843646,122,-8367,615,-1,-2,-1,0
1843651,110,-8367,588,-1,-1,-1,0
1843656,93,-8367,556,-1,-1,-1,0
1843661,76,-8365,533,-1,-1,-1,0
1843666,63,-8365,518,-1,0,-1,0
1843671,58,-8369,507,-1,0,0,0
1843676,63,-8369,509,-1,0,0,0
1843681,79,-8367,518,-1,0,0,0
1843686,99,-8365,527,-1,0,0,0
1843691,105,-8362,545,-1,0,-1,0
1843696,96,-8362,565,-1,-1,-1,0
1843701,70,-8362,579,-1,-1,-1,0
1843706,36,-8366,591,-1,-1,-1,0
1843711,-2,-8369,592,-1,-1,-1,0
1843716,-32,-8371,585,-1,-1,0,0
1843721,-52,-8372,582,-1,0,0,0
1843726,-60,-8373,565,-1,0,-1,0
1843731,-52,-8372,544,-1,0,0,0
1843736,-37,-8368,526,-1,0,0,0
1843741,-13,-8369,522,-1,0,-1,0
1843746,14,-8367,522,-1,1,-1,0
1843751,40,-8366,528,-1,1,-1,0
1843756,63,-8369,544,-1,1,-1,0
1843761,83,-8369,565,-1,1,-1,0
1843766,142,-8362,551,-1,0,-1,0
1843771,155,-8356,431,0,-7,0,0
1843776,113,-8364,371,0,-3,0,0
1843781,148,-8366,260,0,3,0,0
1843786,179,-8364,214,-1,3,0,0
1843791,138,-8362,216,-1,-2,-1,0
1843796,83,-8357,234,-1,-3,-1,0
1843801,77,-8365,271,0,-1,0,0
1843806,39,-8363,324,0,-3,0,0
1843811,-32,-8364,363,0,-1,0,0
1843816,-47,-8365,387,0,1,-1,0
1843821,-52,-8364,382,0,1,-1,0
1843826,-84,-8368,382,1,-1,0,0
1843831,-105,-8372,397,0,-1,0,0
1843836,-85,-8369,399,0,1,0,0
1843841,-40,-8365,388,0,0,0,0
1843846,-6,-8364,390,1,-1,0,0
1843851,26,-8367,400,1,0,0,0
1843856,34,-8376,475,0,0,-1,0
1843861,16,-8377,592,0,-1,-1,0
1843866,7,-8370,645,-1,-1,-1,0
1843871,-40,-8370,765,0,0,-1,0
1843876,-53,-8369,795,1,-1,0,0
1843881,-62,-8371,801,1,0,0,0
1843886,-51,-8374,778,1,0,0,0
1843891,-43,-8371,698,0,0,-1,0
1843896,-63,-8369,659,0,0,-1,0
1843901,-71,-8367,590,0,0,-1,0
1843906,-69,-8368,573,0,0,-1,0
1843911,-50,-8369,546,0,-1,0,0
1843916,-15,-8369,525,0,0,0,0
1843921,24,-8362,538,0,0,-1,0
1843926,76,-8362,520,0,-1,-1,0
1843931,94,-8361,526,0,-4,-1,0
1843936,120,-8367,552,0,-2,0,0
1843941,191,-8374,600,0,2,0,0
1843946,256,-8373,673,0,-1,0,0
1843951,280,-8377,763,0,-3,0,0
1843956,288,-8379,838,0,-1,-1,0
1843961,270,-8381,876,0,-1,-1,0
1843966,219,-8381,889,0,-2,-1,0
1843971,145,-8379,862,0,-2,0,0
1843976,77,-8380,826,0,-1,0,0
1843981,14,-8378,771,0,-1,0,0
1843986,-29,-8378,717,0,0,0,0
1843991,-51,-8378,674,-1,0,0,0
1843996,-49,-8374,630,-1,1,0,0
1844001,-30,-8374,616,-1,1,0,0
1844006,4,-8375,620,-1,1,0,0
1844011,45,-8375,637,-1,1,0,0
1844016,76,-8375,667,-1,0,0,0
1844021,103,-8371,691,-1,0,0,0
1844026,124,-8371,711,0,0,0,0
1844031,137,-8373,710,0,0,0,0
1844036,138,-8374,693,0,-1,0,0
1844041,115,-8374,653,-1,-1,0,0
1844046,90,-8372,613,-1,-1,0,0
1844051,62,-8371,592,-1,-1,0,0
1844056,43,-8369,574,-1,-1,0,0
1844061,28,-8371,575,-1,-1,0,0
1844066,29,-8371,584,-1,0,0,0
1844071,40,-8371,594,-1,0,0,0
1844076,42,-8372,594,0,-1,0,0
1844081,42,-8370,578,0,-1,0,0
1844086,37,-8371,563,0,0,0,0
1844091,33,-8373,544,0,0,0,0
1844096,24,-8372,538,-1,-1,0,0
1844101,10,-8372,536,-1,-1,0,0
1844106,6,-8368,538,-1,-1,0,0
1844111,11,-8370,546,0,0,0,0
1844116,23,-8371,538,0,-1,0,0
1844121,30,-8371,533,0,-1,0,0
1844126,40,-8371,520,0,0,0,0
1844131,50,-8368,508,0,0,0,0
1844136,49,-8368,513,0,-1,0,0
1844141,36,-8369,513,0,-1,0,0
1844146,23,-8369,540,0,-1,0,0
1844151,7,-8369,562,0,-1,0,0
1844156,-12,-8368,576,0,-1,0,0
1844161,-36,-8366,588,0,-1,0,0
1844166,-55,-8369,574,0,0,0,0
1844171,-69,-8372,568,0,0,0,0
1844176,-80,-8369,551,0,0,0,0
1844181,-82,-8364,542,0,0,0,0
1844186,-76,-8361,534,0,0,0,0
1844191,-65,-8361,540,0,0,0,0
1844196,-59,-8359,558,0,0,0,0
1844201,-59,-8364,571,0,0,0,0
1844206,-46,-8364,621,0,1,0,0
1844211,-14,-8364,626,-1,2,0,0
1844216,14,-8365,661,-1,0,0,0
1844221,33,-8368,681,0,-1,0,0
1844226,54,-8368,683,0,0,0,0
1844231,64,-8369,688,0,-1,0,0
1844236,52,-8372,656,0,-2,-1,0
1844241,34,-8371,635,0,-2,0,0
1844246,16,-8369,604,-1,-1,0,0
1844251,-1,-8368,579,-1,-1,0,0
1844256,-23,-8366,563,-1,-1,0,0
1844261,-41,-8363,547,-1,-1,0,0
1844266,-60,-8362,540,0,-1,0,0
1844271,-75,-8363,520,0,-1,0,0
1844276,-94,-8368,503,0,-1,-1,0
1844281,-106,-8366,490,0,-1,-1,0
1844286,-112,-8367,474,0,-1,-1,0
1844291,-116,-8368,476,0,-1,-1,0
1844296,-110,-8368,488,0,-1,-1,0
1844301,-96,-8368,511,0,0,-1,0
1844306,-77,-8367,546,0,0,-1,0
1844311,-48,-8367,581,0,0,-1,0
1844316,-16,-8367,608,0,0,-1,0
1844320,15,-8371,624,0,0,-1,0
1844325,40,-8375,627,0,0,-1,0
1844331,57,-8373,621,0,0,-1,0
1844336,59,-8371,617,0,0,-1,0
1844340,55,-8370,611,0,0,-1,0
1844345,45,-8370,601,0,0,-1,0
1844351,31,-8366,589,0,0,-1,0
1844356,21,-8366,585,0,0,-1,0
1844361,17,-8367,573,0,0,0,0
1844365,19,-8371,575,0,0,0,0
1844371,25,-8373,574,0,-1,0,0
1844376,24,-8375,585,0,-1,0,0
1844381,29,-8374,601,0,0,-1,0
1844386,34,-8376,616,0,0,-1,0
1844391,27,-8376,627,0,0,-1,0
1844396,25,-8377,631,0,0,0,0
1844400,25,-8378,620,0,0,0,0
1844406,31,-8379,604,0,0,0,0
1844410,31,-8378,584,0,-1,0,0
1844415,33,-8375,575,0,0,0,0
1844421,47,-8371,574,0,0,0,0
1844425,49,-8372,580,0,-1,0,0
1844430,57,-8372,586,0,-1,0,0
1844435,68,-8371,591,0,-1,0,0
1844441,80,-8370,590,0,-1,0,0
1844445,88,-8370,584,0,-1,0,0
1844450,91,-8376,576,0,0,0,0
1844455,93,-8375,561,0,0,0,0
1844461,86,-8376,559,0,-1,0,0
1844465,77,-8377,556,0,-1,0,0
1844471,69,-8375,561,0,0,0,0
1844475,57,-8374,568,0,0,0,0
1844481,49,-8373,581,0,0,0,0
1844485,38,-8372,591,0,0,0,0
1844491,35,-8371,599,0,0,0,0
1844495,39,-8370,603,0,0,0,0
1844501,44,-8371,603,0,0,0,0
1844505,45,-8370,609,0,0,0,0
1844510,43,-8370,614,0,0,0,0
1844515,34,-8371,622,0,0,0,0
1844520,23,-8370,624,0,-1,0,0
1844525,8,-8371,620,0,-1,0,0
1844530,-8,-8371,617,0,0,0,0
1844535,-19,-8370,610,0,0,0,0
1844540,-19,-8369,604,0,0,0,0
1844545,-16,-8369,599,0,0,0,0
1844550,-14,-8370,596,0,0,0,0
1844555,-7,-8369,593,0,0,0,0
1844560,0,-8370,591,0,0,0,0
1844565,4,-8370,600,0,0,0,0
1844570,6,-8372,608,0,0,0,0
1844575,9,-8375,619,0,0,0,0
1844580,4,-8375,629,0,0,0,0
1844585,-7,-8372,631,-1,0,-1,0
1844590,-23,-8370,631,-1,0,-1,0
1844595,-39,-8368,629,-1,-1,-1,0
1844600,-54,-8365,627,-1,-1,0,0
1844605,-60,-8365,620,-1,-1,0,0
1844610,-60,-8365,613,-1,-1,0,0
1844615,-50,-8361,609,-1,0,0,0
1844620,-36,-8360,603,-1,0,-1,0
1844625,-18,-8358,595,-1,-1,-1,0
1844630,-1,-8358,591,-1,-1,-1,0
1844635,6,-8358,588,-1,-1,-1,9
1844640,2,-8360,582,-1,0,-1,9
1844645,-14,-8365,585,-1,0,-1,9
1844650,-34,-8365,585,-1,0,-1,9
1844655,-57,-8365,594,-1,0,-1,9
1844660,-76,-8366,600,-1,0,-1,9
1844665,-86,-8365,606,-1,0,-1,9
1844670,-88,-8367,621,-1,0,-1,9
1844675,-83,-8369,630,-1,0,-1,9
1844680,-72,-8367,645,-1,0,-1,9
1844685,-60,-8368,655,-1,0,-1,9
1844690,-46,-8369,655,-1,0,-1,9
1844695,-43,-8374,659,-1,0,-1,9
1844700,-43,-8376,657,-1,-1,-1,9
1844705,-47,-8378,655,-1,0,-1,9
1844710,-49,-8380,653,-1,-1,-1,9
1844715,-22,-8375,657,-1,-1,-1,9
1844720,-26,-8370,576,0,-5,-1,9
1844725,-57,-8369,545,0,-3,-1,9
1844730,-4,-8370,486,0,2,-1,9
1844735,63,-8369,472,-1,1,-1,9
1844740,80,-8366,493,-1,-3,-1,9
1844745,90,-8365,535,-1,-2,-1,9
1844750,95,-8363,601,-1,1,-1,9
1844755,93,-8366,629,0,-1,-1,9
1844760,53,-8368,649,0,-1,-1,9
1844765,38,-8366,640,0,0,-1,9
1844770,41,-8366,614,0,0,-1,9
1844775,30,-8368,594,0,-1,-1,9
1844780,28,-8369,564,-1,-1,-1,9
1844785,33,-8369,556,-1,0,-1,9
1844790,46,-8368,550,-1,-1,-1,9
1844795,48,-8367,547,-1,-1,-1,9
1844800,59,-8368,546,0,0,-1,9
1844805,78,-8367,542,0,0,-1,9
1844810,83,-8366,543,0,0,-1,9
1844815,84,-8369,555,-1,0,-1,9
1844820,97,-8369,568,-1,-1,-1,9
1844825,103,-8369,571,0,-2,0,9
1844830,101,-8370,578,0,-2,0,9
1844835,125,-8370,584,0,0,0,9
1844840,159,-8373,584,-1,-1,0,9
1844845,173,-8376,587,-1,-1,0,9
1844850,168,-8376,596,-1,-1,-1,9
1844855,151,-8374,606,-1,-1,-1,9
1844860,119,-8374,614,-1,-1,0,9
1844865,80,-8373,625,-1,-1,0,9
1844870,43,-8372,636,-1,-1,0,9
1844875,19,-8372,640,-1,-1,0,9
1844880,2,-8373,643,-1,0,0,9
1844885,-1,-8377,635,-1,0,0,9
1844890,-2,-8377,620,-1,0,0,9
1844895,3,-8376,607,-1,0,0,9
1844900,11,-8374,598,-1,0,0,9
1844905,16,-8374,591,-1,0,0,9
1844910,18,-8377,584,-1,0,0,9
1844915,17,-8376,584,-1,0,0,9
1844920,10,-8375,586,-1,0,0,9
1844925,2,-8374,592,-1,0,0,9
1844930,0,-8374,606,-1,0,0,9
1844935,2,-8374,626,-1,0,0,9
1844940,8,-8374,645,-1,0,0,9
1844945,11,-8374,651,-1,0,0,9
1844950,10,-8375,658,-1,0,0,9
1844955,7,-8372,657,-1,0,0,9
1844960,-2,-8372,657,-1,0,0,9
1844965,-13,-8376,648,-1,0,0,9
1844970,-24,-8376,636,-1,0,0,9
1844975,-37,-8375,622,-1,0,0,9
1844980,-49,-8376,611,-1,0,0,9
1844985,-56,-8376,603,-1,0,0,9
1844990,-58,-8377,606,-1,0,0,9
1844995,-56,-8378,613,-1,0,-1,9
1845000,-50,-8376,620,-1,0,0,9
1845005,-45,-8374,628,-1,0,0,9
1845010,-36,-8376,633,-1,0,0,9
1845015,-30,-8376,640,-1,0,-1,9
1845020,-23,-8375,633,-1,0,-1,9
1845025,-15,-8373,624,-1,0,-1,9
1845030,-15,-8372,615,-1,0,-1,9
1845035,-12,-8371,604,-1,-1,-1,9
1845040,-14,-8370,594,-1,-1,-1,9
1845045,-9,-8373,588,-1,-1,-1,9
1845050,-1,-8376,577,-1,-1,-1,9
1845055,25,-8373,564,-1,-1,-1,9
1845060,57,-8370,549,-1,-2,-1,9
1845065,67,-8370,538,-1,-2,-1,9
1845070,71,-8373,542,-1,-1,-1,9
1845075,54,-8375,558,-1,-1,-1,9
1845080,-9,-8374,597,-1,-2,-1,9
1845085,-91,-8374,640,-1,-2,-1,9
1845090,-171,-8374,678,-1,-1,-1,9
1845095,-237,-8373,703,-1,0,-1,9
1845100,-278,-8373,702,-1,0,-1,9
1845105,-289,-8372,681,-1,0,-1,9
1845110,-277,-8371,651,-1,0,-1,9
1845115,-261,-8371,633,-1,-1,-1,9
1845120,-242,-8369,633,-1,-1,-2,9
1845125,-232,-8367,648,-1,-1,-2,9
1845130,-236,-8366,671,-1,-1,-2,9
1845135,-246,-8366,685,-1,-2,-2,9
1845140,-264,-8366,692,-1,-2,-2,9
1845145,-278,-8366,680,-1,-2,-2,9
1845150,-289,-8367,664,-1,-2,-2,9
1845155,-299,-8369,639,-1,-2,-2,9
1845160,-302,-8370,621,-1,-3,-2,9
1845165,-298,-8370,606,-1,-4,-2,9
1845170,-288,-8369,593,-1,-4,-3,9
1845175,-265,-8368,576,-1,-5,-3,9
1845180,-235,-8368,561,-1,-6,-3,9
1845185,-195,-8367,542,-1,-8,-3,9
1845190,-134,-8365,517,-1,-9,-3,9
1845195,-59,-8366,481,-1,-11,-3,9
1845200,33,-8364,428,-1,-13,-3,9
1845205,151,-8360,350,0,-14,-2,9
1845210,281,-8357,249,0,-13,-2,9
1845215,416,-8353,139,0,-10,-1,9
1845220,584,-8348,17,0,-5,-1,9
1845225,779,-8344,-100,0,-1,0,9
1845230,950,-8341,-189,1,0,0,9
1845235,1092,-8340,-278,1,-2,0,9
1845240,1220,-8334,-361,1,-1,1,9
1845245,1312,-8333,-416,2,-1,1,9
1845250,1910,-8258,-910,3,0,3,9
1845255,2651,-8236,-1401,7,16,11,9
1845260,3175,-8268,-1774,8,15,14,9
1845265,4105,-8246,-2683,7,4,13,9
1845270,4566,-8227,-3001,5,11,12,9
1845275,5040,-8204,-3358,6,-2,11,9
1845280,5186,-8168,-3367,7,-1,12,9
1845285,5107,-8149,-3123,9,0,14,9
1845290,5094,-8109,-2994,12,2,17,9
1845295,4914,-8089,-2748,14,13,19,9
1845300,4923,-8054,-2731,17,13,21,9
1845305,4908,-8025,-2796,18,13,23,9
1845310,4843,-8005,-2915,18,12,24,9
1845315,4880,-7970,-3130,19,13,25,9
1845320,4785,-7938,-3237,19,17,26,9
1845325,4697,-7899,-3367,20,19,28,9
1845330,4551,-7848,-3439,21,24,29,9
1845335,4280,-7807,-3436,23,33,31,9
1845340,4010,-7761,-3437,24,48,32,9
1845345,3654,-7721,-3346,25,68,34,9
1845350,3247,-7687,-3228,25,88,35,9
1845355,2830,-7653,-3062,26,104,36,9
1845360,2370,-7622,-2823,26,116,38,9
1845365,1978,-7589,-2605,26,123,39,9
1845370,1688,-7551,-2417,27,129,41,9
1845375,1447,-7508,-2259,27,137,43,9
1845380,1272,-7486,-2152,28,145,44,9
1845385,315,-7548,-1477,27,143,41,9
1845390,-110,-7593,-946,20,110,29,9
1845395,-942,-7624,-191,17,93,23,9
1845400,-2013,-7678,577,15,69,21,9
1845405,-3196,-7655,1160,13,38,18,9
1845410,-5079,-7756,2739,14,0,21,9
1845415,-6694,-7834,4014,14,-43,21,9
1845420,-8078,-7976,5340,13,-30,21,9
1845425,-9264,-8102,6640,10,1,19,9
1845430,-9821,-8190,7565,7,24,15,9
1845435,-10228,-8305,8597,4,32,12,9
1845440,-10237,-8394,9224,1,11,7,9
1845445,-10270,-8457,9647,-2,-8,2,9
1845450,-10391,-8513,9989,-5,-23,-4,9
1845455,-10441,-8544,10186,-8,-32,-10,9
1845460,-10646,-8562,10301,-10,-41,-14,9
1845465,-10885,-8565,10260,-12,-60,-17,9
1845470,-11138,-8551,10138,-14,-80,-20,9
1845475,-11347,-8524,9833,-17,-97,-22,9
1845480,-11445,-8475,9453,-19,-106,-25,9
1845485,-11409,-8426,9050,-21,-104,-27,9
1845490,-11184,-8354,8530,-24,-97,-30,9
1845495,-10834,-8276,8025,-25,-89,-32,9
1845500,-10393,-8196,7482,-26,-84,-34,9
1845505,-9890,-8107,6846,-27,-82,-36,9
1845510,-9360,-8016,6222,-28,-83,-38,9
1845515,-8793,-7927,5589,-29,-85,-40,9
1845520,-8181,-7836,4934,-29,-89,-41,9
1845525,-7529,-7757,4332,-29,-95,-43,9
1845530,-6857,-7686,3681,-29,-100,-43,9
1845535,-6193,-7609,2970,-29,-104,-43,9
1845540,-5503,-7544,2319,-29,-108,-43,9
1845545,-4769,-7491,1673,-29,-109,-43,9
1845550,-4033,-7437,1107,-28,-109,-42,9
1845555,-3374,-7436,764,-27,-110,-41,9
1845560,-2803,-7457,608,-29,-108,-41,9
1845565,-2277,-7435,343,-33,-107,-41,9
1845570,-1386,-7310,-1024,-30,-102,-40,9
1845575,-322,-7289,-2100,-21,-83,-34,9
1845580,694,-7283,-3142,-18,-63,-28,9
1845585,1235,-7332,-3431,-15,-63,-23,9
1845590,2495,-7402,-5050,-16,-76,-22,9
1845595,3759,-7439,-6132,-18,-45,-21,9
1845600,4893,-7516,-6970,-19,-18,-20,9
1845605,6079,-7544,-7721,-18,-7,-19,9
1845610,6735,-7591,-7727,-15,-4,-16,9
1845615,7377,-7654,-7748,-11,-9,-12,9
1845620,7846,-7703,-7463,-8,8,-7,9
1845625,8294,-7741,-7224,-5,15,-2,9
1845630,8869,-7777,-7055,-1,18,1,9
1845635,9392,-7826,-6786,2,24,4,9
1845640,9924,-7862,-6793,4,22,7,9
1845645,10299,-7882,-6879,7,19,9,9
1845650,10494,-7895,-7019,10,14,11,9
1845655,10505,-7894,-7272,12,16,13,9
1845660,10269,-7882,-7486,13,22,16,9
1845665,9922,-7865,-7654,15,28,19,9
1845670,9435,-7840,-7699,17,36,22,9
1845675,8869,-7807,-7631,18,48,25,9
1845679,8307,-7773,-7469,20,65,28,9
1845685,7739,-7734,-7178,22,84,31,9
1845690,7225,-7690,-6838,24,102,34,9
1845694,6758,-7643,-6462,26,117,36,9
1845700,6327,-7600,-6115,27,125,38,9
1845704,5907,-7552,-5816,29,128,40,9
1845710,5488,-7505,-5568,29,128,41,9
1845714,5062,-7460,-5345,30,126,42,9
1845720,4616,-7407,-5118,31,124,44,9
1845725,4137,-7361,-4861,31,123,45,9
1845729,3617,-7314,-4541,31,123,45,9
1845734,3074,-7271,-4168,31,125,46,9
1845739,2524,-7231,-3775,31,127,47,9
1845744,1994,-7191,-3377,32,128,48,9
1845749,1525,-7153,-3001,32,129,49,9
1845755,1136,-7120,-2659,33,131,50,9
1845759,839,-7094,-2358,32,136,51,9
1845764,193,-7069,-2136,32,139,50,9
1845769,-345,-7087,-1786,32,127,45,9
1845774,-470,-7058,-1514,32,118,40,9
1845779,-1117,-7097,-1266,32,127,39,9
1845784,-2521,-7133,-676,29,111,36,9
1845789,-3629,-7244,206,26,70,33,9
1845794,-4651,-7272,636,21,64,30,9
1845799,-6327,-7333,1264,17,58,32,9
1845804,-7671,-7409,2170,17,25,30,9
1845809,-8915,-7526,3255,16,22,30,9
1845814,-9982,-7658,4387,14,30,29,9
1845819,-10638,-7760,5454,12,47,25,9
1845824,-11109,-7889,6596,10,72,22,9
1845829,-11266,-8008,7595,8,76,17,9
1845834,-11327,-8121,8543,6,57,12,9
1845839,-11446,-8225,9224,4,24,6,9
1845844,-11639,-8290,9675,2,-7,1,9
1845849,-11984,-8356,9951,0,-23,-4,9
1845854,-12349,-8394,9918,-3,-32,-8,9
1845859,-12720,-8417,9777,-6,-40,-12,9
1845864,-13036,-8431,9588,-8,-50,-15,9
1845869,-13197,-8423,9354,-11,-58,-18,9
1845874,-13181,-8398,9114,-14,-61,-21,9
1845879,-12934,-8367,8885,-16,-63,-23,9
1845884,-12525,-8324,8683,-18,-65,-26,9
1845889,-11962,-8275,8460,-20,-69,-30,9
1845894,-11330,-8213,8190,-21,-75,-33,9
1845899,-10699,-8149,7839,-22,-85,-35,9
1845904,-10086,-8079,7344,-23,-97,-38,9
1845909,-9543,-8006,6784,-25,-107,-40,9
1845914,-9039,-7932,6215,-26,-116,-42,9
1845919,-8540,-7859,5594,-27,-121,-43,9
1845924,-8059,-7785,4975,-28,-121,-43,9
1845929,-7552,-7711,4383,-29,-119,-44,9
1845934,-7006,-7645,3796,-30,-116,-44,9
1845939,-6412,-7579,3250,-31,-110,-44,9
1845944,-5750,-7515,2716,-31,-102,-43,9
1845949,-5022,-7464,2157,-31,-93,-43,9
1845954,-4247,-7414,1627,-31,-82,-42,9
1845959,-3453,-7370,1202,-30,-72,-41,9
1845964,-2693,-7348,844,-29,-68,-40,9
1845969,-2024,-7334,545,-27,-70,-39,9
1845974,-1573,-7365,446,-26,-76,-37,9
1845979,-1162,-7358,284,-29,-81,-39,9
1845984,170,-7282,-1204,-25,-72,-34,9
1845989,1292,-7277,-2310,-20,-34,-28,9
1845994,1627,-7310,-2250,-17,-21,-24,9
1845999,2716,-7429,-3309,-16,-51,-23,9
1846004,3852,-7467,-4382,-20,-36,-23,9
1846009,4532,-7553,-4896,-21,-16,-23,9
1846014,5448,-7582,-5600,-22,-20,-24,9
1846019,5626,-7634,-5370,-20,-16,-21,9
1846024,5801,-7682,-5190,-18,-31,-18,9
1846029,5713,-7749,-4707,-16,-26,-15,9
1846034,5456,-7802,-4142,-13,-13,-11,9
1846039,5442,-7834,-3817,-11,-3,-9,9
1846044,5357,-7888,-3360,-9,6,-7,9
1846049,5457,-7941,-3072,-7,3,-7,9
1846054,5467,-7979,-2937,-7,2,-6,9
1846059,5317,-8019,-2872,-6,-3,-6,9
1846064,5106,-8049,-2902,-5,-5,-5,9
1846069,4720,-8080,-2902,-5,-3,-4,9
1846074,4286,-8104,-2915,-4,-4,-3,9
1846079,3809,-8127,-2835,-4,-2,-2,9
1846084,3346,-8151,-2668,-4,0,-1,9
1846089,2987,-8172,-2444,-4,2,0,9
1846094,2658,-8196,-2100,-3,3,1,9
1846099,2401,-8215,-1746,-2,3,1,9
1846104,2182,-8232,-1395,-2,4,1,9
1846109,1984,-8251,-1054,-1,4,1,9
1846114,1780,-8267,-804,-1,2,1,9
1846119,1525,-8280,-632,0,0,1,9
1846124,1266,-8291,-542,0,-1,0,9
1846129,1007,-8300,-502,0,-1,1,9
1846134,756,-8302,-482,0,-1,1,9
1846139,548,-8309,-437,-1,0,1,9
1846144,396,-8317,-354,-1,1,1,9
1846149,300,-8322,-246,-1,1,1,9
1846154,240,-8328,-101,-1,1,1,9
1846159,218,-8332,47,-1,1,1,9
1846164,226,-8334,189,0,1,1,9
1846169,237,-8337,309,0,0,1,9
1846174,219,-8339,373,0,-1,0,9
1846179,160,-8343,389,0,-2,0,9
1846184,69,-8347,367,0,-2,0,9
1846189,-35,-8349,336,0,-2,0,9
1846194,-137,-8350,327,0,-2,0,9
1846199,-213,-8358,357,0,-1,1,9
1846204,-255,-8361,401,-1,0,1,9
1846209,-263,-8363,467,-1,0,1,9
1846214,-250,-8366,556,-1,0,1,9
1846219,-221,-8367,639,-1,0,0,9
1846224,-184,-8367,717,0,0,0,9
1846229,-152,-8366,768,0,-1,0,9
1846234,-143,-8366,773,0,-1,0,9
1846239,-161,-8363,744,0,-1,0,9
1846244,-190,-8362,696,0,-1,0,9
1846249,-208,-8365,642,-1,-1,0,9
1846254,-214,-8363,610,-1,-1,0,9
1846259,-197,-8363,604,-1,-1,0,9
1846264,-162,-8362,606,-1,0,0,9
1846269,-123,-8365,624,-1,-1,0,9
1846274,-78,-8366,646,-1,-1,0,9
1846279,-35,-8363,671,-1,0,0,9
1846284,2,-8362,694,-1,-1,0,9
1846289,32,-8361,696,-1,-1,0,9
1846294,38,-8362,664,-1,-1,0,9
1846299,22,-8364,612,0,-1,0,9
1846304,-3,-8367,557,-1,-1,0,9
1846309,-20,-8364,517,-1,0,0,9
1846314,-27,-8364,509,-1,0,0,9
1846319,-25,-8362,520,-1,0,1,9
1846324,-21,-8360,530,-1,0,1,9
1846329,-15,-8360,554,-1,0,1,9
1846334,-11,-8361,582,-1,0,0,9
1846339,-6,-8360,604,-1,0,0,9
1846344,-11,-8360,623,-1,0,0,9
1846349,-37,-8359,622,0,0,0,9
1846354,-87,-8360,600,-1,0,0,9
1846359,-146,-8360,575,-1,0,0,9
1846364,-199,-8361,556,-1,0,0,9
1846369,-230,-8361,552,-1,1,0,9
1846374,-240,-8363,566,-1,1,0,9
1846379,-236,-8362,591,-1,1,0,9
1846384,-227,-8362,600,-1,1,0,9
1846389,-216,-8362,607,-1,0,0,9
1846394,-210,-8362,619,-1,0,0,9
1846399,-203,-8364,630,-1,0,0,9
1846404,-207,-8365,634,-1,0,0,9
1846409,-224,-8362,626,-1,0,0,9
1846414,-254,-8360,598,-1,-1,0,9
1846419,-284,-8361,565,-1,-1,0,9
1846424,-296,-8363,548,-1,0,0,9
1846429,-284,-8363,542,-1,0,0,9
1846434,-258,-8366,552,-1,0,0,9
1846439,-228,-8368,563,-1,0,0,9
1846444,-202,-8369,566,-1,0,0,9
1846449,-179,-8373,578,-1,-1,0,9
1846454,-161,-8371,587,-1,-1,0,9
1846459,-150,-8368,592,-1,-1,-1,9
1846464,-149,-8368,598,-1,-1,-1,9
1846469,-163,-8366,590,-1,-1,-1,9
1846474,-189,-8366,570,-1,-1,-1,9
1846479,-207,-8365,559,-1,-1,0,9
1846484,-215,-8365,563,-1,-1,0,9
1846489,-206,-8365,568,-1,0,0,9
1846494,-183,-8365,581,-1,-1,0,9
1846499,-161,-8366,588,-1,-1,0,9
1846504,-149,-8366,580,-1,-1,-1,9
1846509,-133,-8366,581,-1,-1,-1,9
1846514,-117,-8365,584,-1,-1,-1,9
1846519,-105,-8366,582,-1,-1,-1,9
1846524,-103,-8364,581,-1,-1,-1,9
1846529,-107,-8365,565,-1,-1,-1,9
1846534,-112,-8361,544,-1,-1,-1,9
1846539,-113,-8362,536,-1,-1,-1,9
1846544,-108,-8363,539,-1,-1,-1,9
1846549,-92,-8361,553,-1,0,0,9
1846554,-81,-8362,570,-1,-1,0,9
1846559,-78,-8359,578,-1,-1,-1,9
1846564,-81,-8359,578,-1,-1,-1,9
1846569,-85,-8360,577,0,-1,-1,9
1846574,-88,-8360,578,0,0,0,9
1846579,-92,-8360,567,0,0,0,9
1846584,-96,-8360,556,0,-1,0,9
1846589,-102,-8362,541,-1,-1,0,9
1846594,-108,-8363,533,-1,-1,0,9
1846599,-107,-8363,535,0,-1,0,9
1846604,-96,-8365,542,0,0,0,9
1846609,-81,-8366,546,0,-1,0,9
1846614,-63,-8368,555,0,-1,0,9
1846619,-53,-8369,557,0,-1,0,9
1846624,-51,-8369,551,0,-1,0,9
1846629,-58,-8369,543,0,-1,0,9
1846634,-66,-8372,532,0,-1,0,0
1846639,-75,-8370,519,0,-1,0,0
1846644,-82,-8370,505,0,-1,0,0
1846649,-87,-8370,489,0,-1,0,0
1846654,-87,-8371,481,0,0,0,0
1846659,-85,-8369,482,0,0,0,0
1846664,-75,-8369,488,0,0,0,0
1846669,-63,-8367,498,0,0,0,0
1846674,-58,-8366,508,0,-1,0,0
1846679,-56,-8366,520,0,-1,0,0
1846684,-54,-8364,520,0,0,0,0
1846689,-56,-8363,517,0,0,0,0
1846694,-63,-8360,511,0,0,0,0
1846699,-71,-8357,506,0,0,0,0
1846704,-80,-8356,505,0,-1,0,0
1846709,-90,-8356,509,0,-1,0,0
1846714,-100,-8356,519,0,0,0,0
1846719,-105,-8359,532,0,0,0,0
1846724,-109,-8357,542,0,0,0,0
1846729,-115,-8360,552,0,0,0,0
1846734,-120,-8365,568,0,-1,0,0
1846739,-124,-8365,576,0,0,0,0
1846744,-125,-8363,581,0,0,0,0
1846749,-129,-8364,578,0,0,0,0
1846754,-128,-8363,567,0,0,0,0
1846759,-129,-8362,556,0,0,0,0
1846764,-125,-8362,557,0,-1,0,0
1846769,-120,-8361,563,0,-1,0,0
1846774,-118,-8358,562,0,-1,0,0
1846779,-117,-8358,568,0,0,0,0
1846784,-120,-8360,576,0,0,0,0
1846789,-126,-8362,586,0,-1,0,0
1846794,-131,-8364,599,0,-1,0,0
1846799,-134,-8363,611,0,-1,0,0
1846804,-136,-8364,615,0,-1,0,0
1846809,-136,-8362,607,0,-1,0,0
1846814,-131,-8361,603,0,0,0,0
1846819,-123,-8361,603,0,-1,0,0
1846824,-115,-8364,605,0,-1,0,0
1846829,-107,-8365,604,0,0,0,0
1846834,-102,-8367,604,0,-1,0,0
1846839,-98,-8369,598,0,0,0,0
1846844,-97,-8371,594,0,-1,0,0
1846849,-96,-8373,599,0,-1,0,0
1846853,-96,-8372,613,0,-1,0,0
1846858,-101,-8372,617,0,-1,0,0
1846864,-118,-8370,621,0,-1,0,0
1846869,-136,-8369,622,0,-1,0,0
1846874,-150,-8370,620,0,-1,0,0
1846879,-154,-8369,626,0,-1,0,0
1846884,-151,-8368,636,0,-1,0,0
1846889,-147,-8367,639,0,-1,0,0
1846894,-146,-8369,635,0,-1,0,0
1846898,-140,-8372,630,0,-1,0,0
1846903,-133,-8371,630,0,-1,0,0
1846909,-129,-8369,635,0,-1,0,0
1846914,-129,-8370,637,0,-1,0,0
1846918,-134,-8373,632,0,-1,0,0
1846924,-146,-8375,625,0,-1,0,0
1846928,-158,-8375,619,0,-1,0,0
1846933,-164,-8374,614,0,-1,0,0
1846938,-166,-8372,619,0,0,0,0
1846943,-162,-8371,619,0,0,0,0
1846948,-156,-8369,614,0,0,0,0
1846953,-148,-8369,600,0,0,0,0
1846958,-143,-8370,593,0,0,0,0
1846963,-137,-8367,591,0,0,0,0
1846968,-133,-8365,601,0,0,0,0
1846973,-129,-8363,613,0,0,0,0
1846979,-128,-8363,609,0,0,0,0
1846983,-125,-8363,600,0,0,0,0
1846988,-126,-8365,600,0,0,0,0
1846993,-123,-8368,606,0,0,0,0
1846998,-121,-8370,622,0,0,0,0
1847003,-123,-8368,634,0,0,0,0
1847008,-127,-8367,639,0,0,0,0
1847013,-136,-8363,642,0,0,0,0
1847018,-138,-8361,643,0,0,0,0
1847023,-132,-8357,648,0,0,0,0
1847028,-120,-8357,650,0,0,0,0
1847033,-111,-8358,652,0,0,0,0
1847038,-108,-8359,641,0,0,0,0
1847043,-106,-8358,627,0,0,0,0
1847048,-101,-8358,621,0,0,0,0
1847053,-99,-8358,621,0,0,0,0
1847058,-96,-8360,624,0,0,0,0
1847063,-95,-8360,624,0,0,0,0
1847068,-95,-8361,616,0,0,0,0
1847073,-93,-8358,611,0,0,0,0
1847078,-91,-8360,602,0,0,0,0
1847083,-91,-8360,604,0,0,0,0
1847088,-91,-8360,610,0,0,0,0
1847093,-91,-8359,619,0,0,0,0
1847098,-93,-8360,626,0,-1,0,0
1847103,-91,-8360,632,0,-1,0,0
1847108,-84,-8361,638,0,-1,0,0
1847113,-79,-8361,644,0,-1,0,0
1847118,-75,-8360,648,0,-1,0,0
1847123,-73,-8360,644,0,-1,0,0
1847128,-73,-8362,632,0,-1,0,0
1847133,-76,-8359,617,0,-1,0,0
1847138,-77,-8359,608,0,-1,0,0
1847143,-79,-8359,598,0,-1,0,0
1847148,-83,-8357,593,0,-1,0,0
1847153,-87,-8358,588,0,-1,0,0
1847158,-93,-8360,581,0,-1,0,0
1847163,-97,-8357,578,0,-1,0,0
1847168,-104,-8357,581,0,0,0,0
1847173,-110,-8358,586,0,0,0,0
1847178,-117,-8357,587,0,-1,0,0
1847183,-121,-8357,583,0,-1,0,0
1847188,-129,-8358,574,0,-1,0,0
1847193,-133,-8360,569,0,0,0,0
1847198,-132,-8364,571,0,0,0,0
1847203,-130,-8364,574,0,0,0,0
1847208,-128,-8365,577,0,-1,0,0
1847213,-127,-8365,576,0,0,0,0
1847218,-127,-8361,577,0,-1,0,0
1847223,-130,-8360,578,0,-1,0,0
1847228,-138,-8362,582,0,-1,0,0
1847233,-147,-8362,586,0,-1,0,0
1847238,-158,-8360,588,0,-1,0,0
1847243,-166,-8359,586,0,0,0,0
1847248,-169,-8361,574,0,0,0,0
1847253,-170,-8361,568,0,0,0,0
1847258,-171,-8362,569,0,0,0,0
1847263,-171,-8359,573,0,-1,0,0
1847268,-172,-8359,582,0,-1,0,0
1847273,-170,-8359,592,0,-1,0,0
1847278,-169,-8360,602,0,-1,0,0
1847283,-173,-8360,609,0,0,0,0
1847288,-177,-8357,610,0,-1,0,0
1847293,-186,-8357,611,0,-1,0,0
1847298,-193,-8357,612,0,-1,0,0
1847303,-197,-8359,612,0,-1,0,0
1847308,-202,-8361,620,0,-1,-1,0
1847313,-208,-8359,630,0,-1,0,0
1847318,-210,-8357,635,0,-1,-1,0
1847323,-204,-8356,646,0,-1,0,0
1847328,-198,-8353,659,0,-1,-1,0
1847333,-194,-8354,674,0,-1,-1,0
1847338,-190,-8354,681,0,-1,-1,0
1847343,-186,-8357,682,0,-1,-1,0
1847348,-187,-8356,682,0,-1,-1,0
1847353,-190,-8356,680,0,-1,-1,0
1847358,-189,-8355,677,0,0,-1,0
1847363,-181,-8354,671,0,0,-1,0
1847368,-172,-8354,665,0,0,-1,0
1847373,-160,-8356,656,0,0,-1,0
1847378,-150,-8357,651,0,0,-1,0
1847383,-138,-8357,652,0,-1,-1,0
1847388,-129,-8357,657,0,-1,-1,0
1847393,-117,-8357,657,0,0,-1,0
1847398,-108,-8357,662,0,-1,-1,0
1847403,-98,-8356,663,0,-1,-1,0
1847408,-96,-8357,656,0,-1,-1,0
1847413,-93,-8356,651,0,-1,-1,0
1847418,-89,-8357,650,0,-1,-1,0
1847423,-90,-8358,653,0,-1,-1,0
1847428,-99,-8359,650,0,-1,-1,0
1847433,-112,-8359,649,-1,-1,-1,0
1847438,-122,-8360,644,-1,-1,-1,0
1847443,-126,-8360,643,0,-1,0,0
1847448,-124,-8360,642,-1,-1,0,0
1847453,-123,-8362,638,-1,0,0,0
1847458,-125,-8365,634,-1,0,0,0
1847463,-128,-8367,625,0,0,0,0
1847468,-132,-8368,618,-1,0,0,0
1847473,-136,-8366,617,-1,0,0,0
1847478,-142,-8366,621,-1,0,0,0
1847483,-148,-8369,626,-1,0,-1,0
1847488,-156,-8368,630,-1,0,-1,0
1847493,-161,-8367,631,-1,0,-1,0
1847498,-162,-8366,636,-1,0,0,0
1847503,-157,-8369,646,-1,0,0,0
1847508,-151,-8369,651,-1,0,0,0
1847513,-144,-8372,646,0,0,-1,0
1847518,-144,-8375,640,0,-1,-1,0
1847523,-143,-8374,629,-1,-1,-1,0
1847528,-147,-8372,628,-1,-1,-1,0
1847533,-154,-8370,631,-1,-1,-1,0
1847538,-160,-8369,636,-1,-1,-1,0
1847543,-170,-8367,635,-1,-1,-1,0
1847548,-183,-8367,635,-1,-1,-1,0
1847553,-193,-8365,631,0,0,-1,0
1847558,-200,-8367,628,-1,0,-1,0
1847563,-200,-8366,633,-1,0,-1,0
1847568,-194,-8367,641,-1,0,-1,0
1847573,-190,-8364,653,-1,0,-1,0
1847578,-189,-8364,662,-1,0,-1,0
1847583,-193,-8365,673,-1,0,-1,0
1847588,-194,-8367,682,-1,0,-1,0
1847593,-195,-8368,696,-1,0,-1,0
1847598,-189,-8365,702,-1,0,-1,0
1847603,-180,-8364,697,-1,-1,-1,0
1847608,-174,-8365,684,-1,-1,-1,0
1847613,-174,-8364,670,-1,-1,-1,0
1847618,-174,-8367,659,-1,-1,-1,0
1847623,-171,-8368,655,-1,-1,-1,0
1847628,-168,-8370,658,-1,-1,-1,0
1847633,-170,-8371,663,-1,-1,-1,0
1847638,-175,-8374,662,-1,-1,-1,0
1847643,-172,-8370,659,-1,-1,-1,0
1847648,-166,-8369,662,-1,-1,-1,0
1847653,-151,-8367,661,-1,-1,-1,0
1847658,-133,-8366,656,-1,-1,-1,0
1847663,-120,-8367,646,-1,-1,-1,0
1847668,-116,-8368,634,-1,-1,-1,0
1847673,-114,-8368,625,-1,-1,-1,0
1847678,-118,-8370,621,-1,0,-1,0
1847683,-123,-8369,627,-1,0,-1,0
1847688,-126,-8370,630,-1,0,-1,0
1847693,-131,-8368,628,-1,0,-1,0
1847698,-132,-8366,626,-1,0,-1,0
1847703,-128,-8365,622,-1,0,-1,0
1847708,-114,-8365,620,-1,0,-1,0
1847713,-94,-8365,616,-1,0,-1,0
1847718,-78,-8365,611,-1,0,-1,0
1847723,-70,-8361,603,-1,0,-1,0
1847728,-63,-8359,593,-1,0,-1,0
1847733,-61,-8359,584,-1,0,-1,0
1847738,-65,-8360,576,-1,0,-1,0
1847743,-73,-8360,570,-1,0,-1,0
1847748,-78,-8360,569,-1,0,-1,0
1847753,-84,-8359,563,-1,1,-1,0
1847758,-94,-8359,559,-1,1,-1,0
1847763,-99,-8361,564,-1,1,-1,0
1847768,-100,-8361,572,-1,2,-1,0
1847773,-99,-8360,578,-1,2,-1,0
1847778,-104,-8362,573,-1,3,-1,0
1847783,-112,-8362,570,0,4,-1,0
1847788,-124,-8364,564,0,5,-1,0
1847793,-133,-8363,563,-1,6,-1,0
1847798,-142,-8364,567,-1,7,-1,0
1847803,-146,-8365,581,-1,7,-1,0
1847808,-145,-8366,596,-1,7,0,0
1847813,-142,-8369,614,-1,6,-1,0
1847818,-137,-8371,635,-1,5,-1,0
1847823,-123,-8372,648,-1,5,-1,0
1847828,-111,-8373,662,-1,4,-1,0
1847833,-100,-8374,663,-1,3,-1,0
1847838,-97,-8375,656,-1,3,-1,0
1847843,-99,-8377,640,-1,3,-1,0
1847848,-104,-8374,618,-1,3,-1,0
1847853,-113,-8372,598,-1,3,-1,0
1847858,-123,-8368,580,-1,3,-1,0
1847863,-121,-8365,577,-1,4,-1,0
1847868,-113,-8364,578,-1,4,-1,0
1847873,-99,-8364,587,-1,4,-1,0
1847878,-79,-8361,600,-1,3,-1,0
1847883,-53,-8362,614,-1,2,-1,0
1847888,-33,-8363,627,-1,0,-1,0
1847893,-22,-8363,633,-1,-1,-1,0
1847898,-25,-8362,633,-1,-1,-1,0
1847903,-37,-8362,623,0,-1,-1,0
1847908,-62,-8364,610,0,-1,-1,0
1847913,-92,-8363,590,0,-1,-1,0
1847918,-120,-8363,572,-1,0,-1,0
1847923,-138,-8363,565,-1,0,-1,0
1847928,-143,-8362,566,-1,0,-1,0
1847933,-142,-8361,575,-1,1,-1,0
