millis,ax,ay,az,gx,gy,gz,label
151144,349,-8273,61,1,2,-1,0
151149,343,-8271,64,1,2,-2,0
151154,340,-8274,66,1,2,-2,0
151159,333,-8276,71,1,3,-2,0
151164,327,-8277,79,1,3,-2,0
151169,318,-8278,85,1,4,-2,0
151174,308,-8278,96,1,4,-2,0
151179,295,-8278,111,1,4,-2,0
151184,285,-8277,123,1,4,-2,0
151189,279,-8276,136,1,5,-2,0
151194,274,-8275,145,1,5,-2,0
151199,271,-8273,151,1,6,-2,0
151204,271,-8273,151,1,6,-2,0
151209,273,-8275,152,1,7,-2,0
151214,281,-8277,159,1,7,-2,0
151219,291,-8278,165,1,7,-2,0
151224,300,-8278,169,1,7,-2,0
151229,309,-8273,178,1,7,-2,0
151234,316,-8272,185,1,7,-2,0
151239,323,-8271,194,1,7,-2,0
151244,332,-8273,206,1,7,-2,0
151249,346,-8273,214,1,7,-2,0
151254,357,-8272,214,1,7,-2,0
151259,366,-8272,219,1,7,-2,0
151264,371,-8273,227,1,7,-2,0
151269,369,-8271,231,1,7,-2,0
151274,365,-8270,244,1,7,-2,0
151279,357,-8270,260,1,7,-2,0
151284,347,-8270,273,1,7,-2,0
151289,338,-8268,288,1,7,-2,0
151294,329,-8268,308,1,7,-2,0
151299,325,-8269,321,1,7,-2,0
151304,326,-8271,337,1,7,-2,0
151309,332,-8272,350,0,7,-2,0
151314,342,-8273,358,0,7,-2,0
151319,355,-8274,359,0,6,-2,0
151324,373,-8276,355,0,6,-3,0
151329,387,-8278,349,0,5,-3,0
151334,399,-8276,342,0,5,-3,0
151339,412,-8273,338,0,5,-3,0
151344,420,-8271,335,0,5,-3,0
151349,427,-8269,329,0,5,-3,0
151354,438,-8266,326,0,4,-2,0
151359,452,-8265,322,0,4,-3,0
151364,465,-8266,315,0,4,-2,0
151369,477,-8268,314,0,3,-2,0
151374,488,-8271,316,0,3,-2,0
151379,496,-8270,319,0,2,-2,0
151384,501,-8272,326,0,2,-2,0
151389,505,-8272,321,0,2,-2,0
151394,509,-8270,315,0,2,-2,0
151399,505,-8270,313,0,2,-2,0
151404,505,-8272,313,0,2,-2,0
151409,503,-8268,313,0,2,-2,0
151414,503,-8268,311,0,2,-2,0
151419,508,-8269,313,0,2,-2,0
151424,516,-8272,315,0,2,-2,0
151429,528,-8273,317,0,1,-2,0
151434,540,-8272,316,0,1,-2,0
151439,552,-8271,319,-1,0,-2,0
151444,562,-8275,324,-1,0,-2,0
151449,568,-8275,331,-1,0,-2,0
151454,569,-8274,340,-1,-1,-2,0
151459,570,-8272,352,-1,-1,-2,0
151464,568,-8277,363,-1,-1,-2,0
151469,562,-8277,374,-1,-1,-2,0
151474,561,-8279,382,-1,-1,-2,0
151479,559,-8279,389,-1,-1,-2,0
151484,560,-8278,393,-1,-1,-2,0
151489,566,-8279,388,-1,-1,-2,0
151494,575,-8278,388,-1,-1,-2,0
151499,578,-8276,380,-1,-1,-2,0
151504,581,-8276,371,-1,-1,-2,0
151509,586,-8276,360,-1,-1,-2,0
151514,591,-8277,351,-1,-1,-2,0
151519,594,-8278,339,-1,-1,-2,0
151524,593,-8280,329,-1,-1,-2,0
151529,595,-8280,319,-1,-1,-2,0
151534,594,-8277,312,-1,-1,-2,0
151539,595,-8276,305,-1,-1,-2,0
151544,591,-8274,300,-1,-2,-2,0
151549,583,-8273,292,-1,-2,-2,0
151554,574,-8274,286,-1,-2,-2,0
151559,568,-8275,279,-1,-2,-2,0
151564,568,-8277,275,-1,-3,-2,0
151569,574,-8277,271,-1,-4,-2,0
151574,579,-8278,271,-1,-5,-2,0
151579,584,-8280,262,-1,-5,-2,0
151584,585,-8279,251,-1,-6,-2,0
151589,579,-8280,240,-1,-6,-2,0
151594,570,-8282,232,-1,-5,-2,0
151599,566,-8283,223,-1,-5,-2,0
151604,581,-8283,239,-2,-6,-2,0
151609,595,-8283,289,-2,-9,-2,0
151614,589,-8280,335,-2,-12,-2,0
151619,577,-8279,374,-2,-12,-2,0
151624,569,-8277,408,-2,-8,-2,0
151629,556,-8278,423,-2,-6,-2,0
151634,550,-8282,420,-2,-6,-2,0
151639,548,-8281,395,-2,-8,-2,0
151644,539,-8281,356,-2,-9,-2,0
151649,532,-8281,323,-2,-8,-2,0
151654,528,-8282,294,-2,-4,-2,0
151659,543,-8280,264,-2,0,-2,0
151664,568,-8278,230,-2,1,-2,0
151669,571,-8277,178,-2,-1,-2,0
151674,559,-8277,112,-2,-1,-2,0
151679,545,-8278,39,-1,1,-2,0
151684,533,-8276,-39,-1,2,-2,0
151689,514,-8274,-108,-1,3,-2,0
151694,493,-8271,-161,-1,4,-2,0
151699,474,-8272,-190,-1,8,-2,0
151704,460,-8272,-194,-1,13,-1,0
151709,475,-8272,-164,-1,18,-1,0
151714,527,-8272,-106,-2,21,-1,0
151719,606,-8271,-39,-2,21,-1,0
151724,693,-8271,23,-2,21,-1,0
151729,788,-8268,73,-1,22,-1,0
151734,891,-8267,104,-1,22,-1,0
151739,998,-8269,130,-1,22,0,0
151744,1098,-8271,150,-2,20,0,0
151749,1188,-8270,183,-2,16,0,0
151754,1244,-8267,225,-2,11,0,0
151759,1268,-8267,265,-2,7,0,0
151764,1267,-8265,310,-2,3,0,0
151769,1221,-8264,339,-2,0,0,0
151774,1134,-8264,328,-1,-1,0,0
151779,1020,-8262,280,-1,-1,0,0
151784,886,-8259,186,-1,2,0,0
151789,734,-8261,67,-1,6,0,0
151794,585,-8264,-50,-1,12,0,0
151799,445,-8266,-144,-1,20,0,0
151804,324,-8272,-192,-1,28,0,0
151809,239,-8272,-192,-1,35,0,0
151814,188,-8273,-157,-1,40,0,0
151819,169,-8274,-102,-1,44,0,0
151824,178,-8276,-52,-1,46,0,0
151829,211,-8275,-17,-1,47,0,0
151834,253,-8276,-11,-1,47,0,0
151839,290,-8275,-26,-1,48,0,0
151844,315,-8272,-49,-1,48,0,0
151849,332,-8272,-79,-1,49,0,0
151854,324,-8270,-108,0,48,-1,0
151859,290,-8271,-129,0,49,-1,0
151864,238,-8272,-149,0,51,-1,0
151869,186,-8271,-156,0,54,-1,0
151874,145,-8271,-148,0,57,-1,0
151879,126,-8278,-125,0,57,-1,0
151884,115,-8281,-123,-1,56,-1,0
151889,113,-8283,-130,-1,51,0,0
151894,115,-8283,-126,-2,47,0,0
151899,130,-8282,-107,-2,43,0,0
151904,152,-8280,-57,-2,40,0,0
151909,201,-8277,28,-2,38,0,0
151914,297,-8274,132,-1,38,0,0
151919,410,-8268,229,0,41,-1,0
151924,527,-8265,269,0,42,-2,0
151929,612,-8264,249,1,42,-2,0
151934,631,-8267,166,1,40,-2,0
151939,599,-8270,72,1,39,-3,0
151944,545,-8270,-12,1,39,-2,0
151949,481,-8272,-67,1,40,-2,0
151954,427,-8271,-95,1,41,-2,0
151959,397,-8270,-104,1,43,-2,0
151964,400,-8268,-98,1,46,-1,0
151969,441,-8270,-79,1,47,-2,0
151974,497,-8272,-79,1,47,-2,0
151979,552,-8272,-79,1,45,-2,0
151984,583,-8270,-96,1,42,-2,0
151989,575,-8271,-107,1,40,-2,0
151994,537,-8273,-106,1,39,-2,0
151999,465,-8274,-66,1,39,-2,0
152004,405,-8280,-94,1,38,-2,0
152009,421,-8293,-203,1,39,-2,0
152014,500,-8299,-331,1,40,-2,0
152019,603,-8324,-465,0,39,-2,0
152024,682,-8351,-544,-1,38,-3,0
152029,715,-8373,-577,-1,37,-3,0
152034,689,-8386,-570,-2,37,-3,0
152039,658,-8389,-579,-2,37,-3,0
152044,661,-8380,-619,-2,39,-3,0
152049,703,-8367,-691,-3,41,-3,0
152054,750,-8355,-756,-3,42,-3,0
152059,781,-8344,-787,-4,42,-3,0
152064,787,-8329,-776,-4,42,-3,0
152069,771,-8310,-731,-5,41,-3,0
152074,758,-8295,-694,-5,41,-3,0
152079,758,-8295,-687,-5,42,-3,0
152084,765,-8308,-720,-5,42,-3,0
152089,764,-8332,-770,-6,42,-3,0
152094,744,-8357,-805,-6,41,-4,0
152099,712,-8388,-800,-6,41,-4,0
152104,678,-8416,-765,-6,41,-4,0
152109,653,-8449,-714,-6,41,-4,0
152114,646,-8477,-673,-7,40,-4,0
152119,661,-8503,-656,-7,40,-4,0
152124,678,-8530,-649,-7,39,-4,0
152129,679,-8551,-631,-7,38,-4,0
152134,667,-8563,-597,-7,37,-5,0
152139,638,-8566,-552,-7,36,-5,0
152144,615,-8558,-505,-7,36,-5,0
152149,610,-8539,-465,-7,36,-5,0
152154,616,-8518,-442,-7,37,-5,0
152159,644,-8507,-423,-8,38,-5,0
152164,668,-8502,-401,-8,36,-5,0
152169,684,-8495,-366,-8,35,-5,0
152174,692,-8490,-324,-8,34,-5,0
152179,696,-8491,-297,-8,33,-5,0
152184,709,-8492,-288,-7,33,-5,0
152189,731,-8500,-296,-7,33,-5,0
152194,754,-8511,-298,-7,32,-4,0
152199,774,-8524,-298,-7,30,-5,0
152204,784,-8532,-282,-7,29,-5,0
152209,791,-8528,-252,-7,27,-4,0
152214,796,-8513,-228,-7,25,-4,0
152219,813,-8491,-220,-7,24,-4,0
152224,841,-8465,-224,-7,24,-4,0
152229,870,-8431,-246,-7,23,-4,0
152234,891,-8392,-257,-7,23,-4,0
152239,895,-8342,-255,-7,23,-4,0
152244,891,-8290,-246,-6,23,-4,0
152249,889,-8236,-238,-6,23,-4,0
152254,898,-8184,-240,-6,23,-3,0
152259,925,-8133,-248,-6,22,-3,0
152264,957,-8085,-255,-6,22,-3,0
152269,978,-8039,-261,-5,22,-2,0
152274,980,-7997,-253,-5,21,-2,0
152279,965,-7963,-243,-5,20,-2,0
152284,943,-7936,-229,-5,19,-2,0
152289,920,-7913,-214,-5,18,-2,0
152294,901,-7888,-204,-4,17,-1,0
152299,885,-7858,-207,-4,16,-1,0
152304,864,-7829,-223,-4,15,-1,0
152309,844,-7809,-228,-4,14,-1,0
152314,821,-7791,-223,-4,13,-1,0
152319,802,-7783,-216,-4,13,-1,0
152324,788,-7773,-207,-4,13,-1,0
152329,778,-7767,-202,-4,13,-1,0
152334,763,-7778,-207,-4,13,-1,0
152339,740,-7799,-212,-4,14,-1,0
152344,713,-7826,-211,-3,15,-1,0
152349,687,-7863,-206,-3,15,-1,0
152354,672,-7902,-193,-3,15,-1,0
152359,673,-7940,-177,-3,14,-1,0
152364,682,-7976,-159,-3,14,-1,0
152369,692,-8014,-149,-3,12,-1,0
152374,688,-8045,-145,-3,11,-1,0
152379,674,-8071,-144,-3,11,-1,0
152384,657,-8093,-140,-3,10,-1,0
152389,645,-8108,-134,-3,10,-1,0
152394,646,-8119,-130,-3,10,-1,0
152399,658,-8129,-116,-3,11,-1,0
152404,670,-8140,-99,-3,11,-1,0
152409,671,-8149,-77,-3,11,-1,0
152414,648,-8155,-65,-3,13,-1,0
152419,651,-8178,-49,-3,14,-1,0
152424,652,-8204,-36,-3,13,-1,0
152429,666,-8225,-18,-4,12,-1,0
152434,688,-8245,6,-4,12,-1,0
152439,698,-8267,28,-4,12,0,0
152444,691,-8287,46,-4,11,0,0
152449,672,-8306,60,-4,10,0,0
152454,658,-8325,71,-4,9,0,0
152459,650,-8342,86,-4,8,0,0
152464,648,-8351,99,-4,6,0,0
152469,656,-8308,125,-4,3,0,0
152474,692,-8256,170,-4,-4,1,0
152479,713,-8210,211,-4,-6,1,0
152484,742,-8177,231,-4,-6,1,0
152489,717,-8165,189,-3,-4,1,0
152494,660,-8170,126,-3,-3,1,0
152499,590,-8183,80,-4,-2,1,0
152504,550,-8189,89,-4,0,2,0
152509,558,-8189,148,-4,1,2,0
152514,606,-8190,208,-3,2,2,0
152519,662,-8189,234,-3,1,2,0
152524,695,-8184,215,-3,-1,2,0
152529,697,-8175,185,-3,-3,3,0
152534,678,-8157,167,-4,-4,3,0
152539,656,-8133,169,-4,-5,3,0
152544,642,-8101,186,-4,-5,4,0
152549,657,-8064,199,-4,-4,4,0
152554,677,-8026,189,-3,-4,4,0
152559,687,-7990,165,-3,-4,4,0
152564,686,-7950,135,-3,-5,4,0
152569,674,-7903,114,-3,-5,5,0
152574,660,-7855,103,-3,-5,5,0
152579,645,-7813,100,-3,-4,5,0
152584,626,-7773,85,-3,-3,5,0
152589,614,-7743,70,-3,-2,6,0
152594,603,-7723,58,-2,-1,6,0
152599,590,-7887,48,-2,-1,6,0
152604,417,-8590,-571,-2,1,7,0
152609,481,-9496,267,-1,-21,6,0
152614,649,-9139,602,-1,-5,5,0
152619,862,-8862,1116,3,12,2,0
152624,1254,-8867,1469,6,13,1,0
152629,1245,-8814,924,7,0,1,0
152634,1114,-8745,815,9,-18,1,0
152639,1133,-8657,749,8,-19,1,0
152644,990,-8604,504,8,-15,1,0
152649,922,-8570,254,8,-15,0,0
152654,927,-8547,7,7,-14,0,0
152659,774,-8520,-330,6,-17,0,0
152664,638,-8490,-571,5,-15,0,0
152669,557,-8454,-663,4,-5,0,0
152674,509,-8425,-693,4,0,0,0
152679,501,-8396,-610,4,-1,0,0
152684,490,-8371,-471,4,-3,0,0
152689,478,-8352,-334,5,-5,0,0
152694,482,-8336,-243,5,-5,0,0
152699,487,-8321,-211,6,-4,0,0
152704,472,-8313,-255,6,-5,0,0
152709,432,-8310,-357,7,-5,0,0
152714,374,-8305,-443,6,-5,0,0
152719,345,-8300,-523,6,-3,0,0
152724,352,-8298,-562,5,-1,0,0
152729,392,-8290,-538,5,-1,0,0
152734,453,-8283,-479,5,-1,0,0
152739,499,-8275,-403,6,-1,0,0
152744,529,-8271,-363,6,0,0,0
152749,535,-8268,-350,7,0,0,0
152754,524,-8264,-376,7,0,0,0
152759,505,-8263,-441,7,2,0,0
152764,497,-8262,-512,7,4,0,0
152769,486,-8264,-567,7,5,0,0
152774,471,-8265,-607,7,5,0,0
152779,479,-8265,-592,6,5,0,0
152784,511,-8264,-522,6,5,0,0
152789,549,-8261,-421,6,3,-1,0
152794,578,-8262,-296,7,0,-1,0
152799,577,-8263,-179,7,-3,-1,0
152804,539,-8263,-107,7,-6,-1,0
152809,462,-8259,-61,7,-8,-1,0
152814,441,-8262,-25,7,-7,-1,0
152819,506,-8261,-3,7,-1,0,0
152824,619,-8252,34,7,-2,1,0
152829,784,-8249,71,7,-8,1,0
152834,899,-8251,80,7,-11,1,0
152839,989,-8250,71,7,-11,1,0
152844,1088,-8251,55,7,-4,1,0
152849,1214,-8251,46,7,4,1,0
152854,1355,-8252,64,6,4,1,0
152859,1457,-8254,116,6,-1,1,0
152864,1504,-8255,210,5,-5,1,0
152869,1541,-8257,395,5,-6,2,0
152874,1589,-8257,646,4,-10,2,0
152879,1677,-8246,893,4,-18,2,0
152884,1933,-8244,1126,4,-38,2,0
152889,2234,-8244,1162,5,-78,4,0
152894,2345,-8247,1200,6,-122,5,0
152899,2388,-8246,1247,6,-155,4,0
152904,2444,-8249,1144,5,-176,4,0
152909,2301,-8237,1026,5,-189,3,0
152914,1978,-8240,944,5,-188,3,0
152919,1537,-8257,865,4,-170,2,0
152924,1060,-8266,706,4,-132,0,0
152929,500,-8270,483,4,-74,-1,0
152934,94,-8271,275,4,-10,-2,0
152939,-93,-8269,53,4,27,-2,0
152944,-226,-8271,-120,4,35,0,0
152949,-311,-8273,-228,4,24,2,0
152954,-380,-8275,-291,4,8,3,0
152959,-456,-8276,-302,4,1,3,0
152964,-471,-8274,-278,4,5,3,0
152969,-421,-8270,-216,5,13,2,0
152974,-324,-8266,-127,5,21,1,0
152979,-199,-8264,-27,5,27,1,0
152984,-58,-8267,73,5,30,1,0
152989,89,-8270,180,4,29,1,0
152994,227,-8267,289,4,25,1,0
152999,360,-8265,387,4,18,1,0
153004,450,-8266,464,5,10,1,0
153009,490,-8265,509,5,2,0,0
153014,469,-8269,524,5,-2,0,0
153019,401,-8272,510,5,-3,0,0
153024,338,-8275,504,4,-1,1,0
153029,297,-8277,494,4,1,1,0
153034,266,-8276,480,4,1,0,0
153039,242,-8278,467,4,0,0,0
153044,222,-8278,455,4,-1,0,0
153049,209,-8277,443,4,0,0,0
153054,222,-8277,426,4,1,0,0
153059,257,-8274,404,4,0,0,0
153064,293,-8276,374,4,0,0,0
153069,313,-8278,342,4,-1,0,0
153074,325,-8279,313,4,-1,0,0
153079,333,-8282,304,4,-2,0,0
153084,325,-8284,351,3,-4,0,0
153089,281,-8285,455,3,-8,-1,0
153094,206,-8282,602,2,-12,-1,0
153099,120,-8280,746,2,-13,-2,0
153104,22,-8276,888,2,-12,-2,0
153109,-75,-8273,989,2,-8,-2,0
153114,-130,-8270,1041,3,-2,-1,0
153119,-110,-8270,1055,3,2,-1,0
153124,-54,-8271,1018,2,3,-2,0
153129,16,-8275,949,2,2,-2,0
153134,93,-8280,878,2,3,-2,0
153139,180,-8280,816,1,3,-2,0
153144,270,-8277,780,1,3,-2,0
153149,353,-8273,780,1,3,-2,0
153154,427,-8269,772,1,1,-2,0
153159,476,-8269,747,1,-2,-2,0
153164,494,-8267,698,1,-5,-2,0
153169,507,-8268,615,1,-7,-2,0
153174,569,-8269,533,1,-8,-2,0
153179,658,-8270,483,1,-10,-2,0
153184,765,-8272,467,1,-16,-1,0
153189,857,-8268,494,0,-23,-1,0
153194,929,-8263,576,0,-28,-1,0
153199,966,-8253,676,0,-29,-1,0
153204,982,-8250,780,0,-26,-1,0
153209,984,-8247,861,0,-19,-1,0
153214,973,-8247,906,0,-12,-1,0
153219,948,-8250,911,0,-6,-1,0
153224,921,-8257,869,0,-2,-1,0
153229,915,-8263,829,0,1,-1,0
153234,931,-8268,792,-1,1,0,0
153239,959,-8269,782,-1,1,0,0
153244,994,-8267,806,-2,1,0,0
153249,1028,-8264,843,-2,1,0,0
153254,1055,-8261,887,-2,1,0,0
153259,1070,-8259,911,-2,1,0,0
153264,1081,-8259,921,-2,1,0,0
153269,1079,-8260,891,-2,1,0,0
153274,1049,-8262,830,-2,0,1,0
153279,997,-8266,753,-2,0,1,0
153284,944,-8269,666,-2,0,1,0
153289,891,-8269,596,-2,1,1,0
153294,850,-8267,546,-2,2,1,0
153299,820,-8266,516,-2,2,1,0
153304,794,-8267,501,-2,3,1,0
153309,763,-8266,497,-2,2,1,0
153314,730,-8264,486,-2,2,1,0
153319,699,-8264,481,-2,2,1,0
153324,680,-8265,471,-2,2,1,0
153329,676,-8266,465,-2,3,1,0
153334,679,-8267,454,-2,4,1,0
153339,689,-8270,441,-2,4,1,0
153344,706,-8272,432,-3,3,1,0
153349,725,-8270,436,-3,2,1,0
153354,741,-8271,448,-3,1,1,0
153359,759,-8270,469,-3,1,1,0
153364,767,-8268,480,-3,1,1,0
153369,767,-8266,489,-3,0,1,0
153374,759,-8265,491,-3,0,1,0
153379,754,-8266,478,-3,0,2,0
153384,762,-8267,460,-3,0,2,0
153389,772,-8267,435,-3,0,2,0
153394,781,-8267,405,-3,0,2,0
153399,782,-8266,373,-3,0,2,0
153404,785,-8268,341,-3,0,2,0
153409,784,-8268,324,-3,0,2,0
153414,780,-8269,320,-3,0,2,0
153419,764,-8269,316,-3,0,2,0
153424,737,-8269,317,-3,0,2,0
153429,701,-8267,312,-3,1,2,0
153434,658,-8267,297,-3,2,2,0
153439,623,-8268,281,-3,5,2,0
153444,603,-8270,259,-3,8,2,0
153449,593,-8271,241,-3,12,2,0
153454,589,-8271,227,-3,14,2,0
153459,590,-8271,208,-3,15,2,0
153464,590,-8274,202,-3,14,2,0
153469,586,-8275,214,-3,12,2,0
153474,575,-8275,222,-3,9,2,0
153479,554,-8271,238,-3,7,2,0
153484,520,-8272,258,-3,5,2,0
153489,480,-8274,269,-3,3,2,0
153494,441,-8273,283,-3,2,2,0
153499,417,-8273,295,-3,2,2,0
153504,408,-8273,302,-3,1,2,0
153509,404,-8272,301,-3,1,2,0
153514,397,-8271,293,-3,0,2,0
153519,390,-8269,287,-3,0,2,0
153524,381,-8269,282,-3,0,1,0
153529,373,-8270,280,-3,-1,1,0
153534,365,-8270,289,-3,-1,1,0
153539,352,-8269,298,-3,-1,1,0
153544,340,-8268,300,-3,-1,1,0
153549,328,-8266,301,-3,-2,1,0
153554,324,-8267,301,-3,-2,1,0
153559,335,-8268,295,-3,-2,1,0
153564,359,-8267,282,-3,-2,1,0
153569,382,-8268,267,-3,-3,1,0
153574,402,-8269,245,-3,-3,1,0
153579,422,-8269,230,-3,-4,1,0
153584,447,-8270,212,-3,-5,1,0
153589,472,-8270,197,-3,-7,1,0
153594,491,-8271,189,-3,-9,1,0
153599,501,-8271,182,-3,-10,1,0
153604,500,-8269,168,-3,-11,1,0
153609,493,-8269,156,-3,-12,1,0
153614,482,-8270,145,-3,-13,1,0
153619,474,-8270,125,-3,-12,1,0
153624,467,-8270,107,-3,-11,1,0
153629,459,-8268,90,-3,-10,1,0
153634,447,-8265,62,-3,-10,1,0
153639,435,-8264,37,-3,-9,1,0
153644,426,-8265,18,-3,-9,1,0
153649,419,-8268,8,-3,-9,1,0
153654,415,-8271,1,-3,-8,1,0
153659,409,-8272,-6,-3,-8,1,0
153664,397,-8269,-12,-3,-8,1,0
153669,388,-8270,-13,-3,-8,1,0
153674,384,-8273,-14,-3,-7,1,0
153679,389,-8274,-15,-3,-7,1,0
153684,401,-8277,-21,-3,-7,1,0
153689,410,-8278,-24,-3,-7,1,0
153694,412,-8281,-33,-2,-7,1,0
153699,414,-8279,-40,-2,-7,1,0
153704,422,-8280,-50,-2,-7,1,0
153709,430,-8282,-54,-2,-6,1,0
153714,434,-8281,-53,-2,-6,1,0
153719,434,-8280,-58,-2,-6,1,0
153724,428,-8278,-69,-2,-6,1,0
153729,422,-8278,-75,-2,-5,1,0
153734,418,-8275,-84,-2,-5,1,0
153739,417,-8274,-90,-2,-5,1,0
153744,412,-8274,-98,-2,-5,1,0
153749,400,-8275,-107,-2,-5,1,0
153754,379,-8276,-117,-2,-5,1,0
153759,360,-8277,-127,-2,-4,1,0
153764,350,-8274,-136,-2,-4,1,0
153769,342,-8273,-145,-2,-4,1,0
153774,329,-8273,-147,-1,-4,1,0
153779,307,-8274,-154,-1,-4,1,0
153784,285,-8277,-161,-1,-3,1,0
153789,265,-8275,-167,-1,-3,1,0
153794,256,-8272,-168,-1,-2,1,0
153799,250,-8274,-156,-1,-2,0,0
153804,241,-8274,-151,-1,-2,0,0
153809,228,-8275,-150,-1,-2,0,0
153814,220,-8276,-148,-1,-1,0,0
153819,212,-8276,-148,-1,-1,0,0
153824,210,-8274,-145,-1,-1,0,0
153829,213,-8270,-133,-1,-1,0,0
153834,215,-8271,-127,-1,-1,0,0
153839,214,-8273,-124,-1,-1,0,0
153844,214,-8271,-126,-1,-1,0,0
153849,222,-8270,-130,-1,0,0,0
153854,239,-8271,-127,-1,0,0,0
153859,259,-8273,-119,0,0,0,0
153864,276,-8276,-115,0,0,0,0
153869,283,-8275,-111,0,0,0,0
153874,287,-8276,-111,0,0,0,0
153879,292,-8276,-107,0,0,0,0
153884,300,-8278,-103,0,0,0,0
153889,309,-8276,-95,0,0,0,0
153894,310,-8278,-92,0,0,0,0
153899,306,-8280,-87,0,0,0,0
153904,300,-8278,-84,0,0,0,0
153909,299,-8280,-82,0,1,-1,0
153914,302,-8281,-82,0,1,0,0
153919,308,-8282,-79,0,1,-1,0
153924,313,-8282,-76,0,1,-1,0
153929,320,-8284,-68,0,1,-1,0
153934,326,-8284,-61,0,1,0,0
153939,335,-8281,-54,0,1,-1,0
153944,349,-8279,-39,0,1,-1,0
153949,363,-8279,-25,0,1,-1,0
153954,370,-8280,-19,0,0,-1,0
153959,369,-8281,-20,0,-1,-1,0
153964,363,-8282,-15,0,-1,-1,0
153969,368,-8282,-8,0,-1,-1,0
153974,379,-8281,5,0,-1,-1,0
153979,392,-8280,10,0,-1,0,0
153984,400,-8278,14,0,-1,-1,0
153989,404,-8277,12,0,-1,-1,0
153994,405,-8277,9,0,-1,-1,0
153999,406,-8277,9,0,-1,-1,0
154004,403,-8276,19,0,0,-1,0
154009,398,-8276,19,0,0,-1,0
154014,390,-8276,17,0,0,-1,0
154019,378,-8275,18,0,0,-1,0
154024,372,-8274,17,0,0,-1,0
154029,370,-8273,19,0,1,-1,0
154034,370,-8276,27,0,1,-1,0
154039,373,-8276,31,0,1,-1,0
154044,372,-8276,41,0,1,-1,0
154049,368,-8275,51,0,1,-1,0
154054,363,-8273,59,0,1,-1,0
154059,365,-8275,69,0,1,-1,0
154064,367,-8276,83,0,1,-1,0
154069,367,-8274,96,0,1,-1,0
154074,363,-8274,109,0,0,-1,0
154079,356,-8272,121,0,0,-1,0
154084,355,-8271,125,0,-1,-1,0
154089,363,-8273,131,0,0,-1,0
154094,373,-8276,143,0,0,-1,0
154099,378,-8276,153,0,-1,-1,0
154104,380,-8275,153,0,-1,-1,0
154109,383,-8274,148,0,-1,-1,0
154114,383,-8275,139,0,0,-1,0
154119,384,-8273,138,0,0,-1,0
154124,384,-8272,142,0,0,-1,0
154129,380,-8273,148,0,0,-1,0
154134,375,-8272,152,0,0,-1,0
154139,372,-8272,154,0,0,-1,0
154144,375,-8274,171,0,0,-1,0
154149,388,-8273,185,0,0,-1,0
154154,403,-8273,197,0,0,-1,0
154159,420,-8272,204,0,-1,-1,0
154164,429,-8273,206,0,-1,-1,0
154169,437,-8274,212,0,-1,-1,0
154174,447,-8278,214,0,-1,-1,0
154179,456,-8280,224,0,-1,-1,0
154184,463,-8279,231,0,-1,-1,0
154189,465,-8280,230,0,-1,-1,0
154194,461,-8280,230,0,-1,-1,0
154199,457,-8280,225,0,-1,-1,0
154204,458,-8280,223,0,-1,-1,0
154209,464,-8277,219,0,-1,-1,0
154214,466,-8275,216,0,-1,-1,0
154219,465,-8276,211,0,-1,-1,0
154224,459,-8278,205,0,-1,-1,0
154229,451,-8278,198,-1,-1,-1,0
154234,446,-8278,198,0,-1,-1,0
154239,443,-8282,199,-1,-1,-1,0
154244,441,-8281,200,0,-1,-1,0
154249,435,-8281,200,-1,-1,-1,0
154254,427,-8280,200,-1,-1,-1,0
154259,422,-8281,201,-1,-1,-1,0
154264,423,-8280,209,-1,-1,-1,0
154269,426,-8284,215,-1,-1,-1,0
154274,430,-8282,217,-1,-1,-1,0
154279,431,-8280,216,-1,-1,-1,0
154284,428,-8278,213,-1,-1,0,0
154289,427,-8278,211,-1,-1,-1,0
154294,427,-8282,209,-1,-1,-1,0
154299,431,-8280,210,-1,-1,-1,0
154304,432,-8281,213,-1,-1,-1,0
154309,428,-8279,217,-1,-2,-1,0
154314,423,-8275,220,-1,-2,-1,0
154319,419,-8276,215,-1,-3,-1,0
154324,418,-8278,208,-1,-3,-1,0
154329,423,-8279,203,-1,-3,-1,0
154334,426,-8282,194,-1,-3,-1,0
154339,427,-8282,184,-1,-3,-1,0
154344,423,-8282,169,-1,-3,-1,0
154349,422,-8281,154,-1,-3,-1,0
154354,422,-8280,148,-1,-3,-1,0
154359,427,-8280,141,-1,-3,-1,0
154364,425,-8283,135,-1,-2,-1,0
154369,422,-8281,124,-1,-2,-1,0
154374,422,-8279,114,-1,-2,-1,0
154379,424,-8279,110,-1,-2,0,0
154384,433,-8278,109,-1,-2,0,0
154389,438,-8278,111,-1,-2,0,0
154394,444,-8282,109,-1,-2,0,0
154399,450,-8281,105,-1,-2,0,0
154404,454,-8279,103,-1,-2,0,0
154409,459,-8277,102,-1,-2,0,0
154414,461,-8274,98,-1,-2,0,0
154419,464,-8272,95,-1,-3,0,0
154424,462,-8271,97,-1,-3,0,0
154429,456,-8269,92,-1,-3,0,0
154434,443,-8271,90,-1,-3,0,0
154439,434,-8269,92,-1,-2,0,0
154444,433,-8267,89,-1,-2,0,0
154449,434,-8267,88,-1,-2,0,0
154454,430,-8267,87,-1,-3,0,0
154459,423,-8270,81,-1,-3,0,0
154464,414,-8274,74,-1,-3,0,0
154469,407,-8276,68,-1,-3,0,0
154474,404,-8278,66,-1,-2,0,0
154479,401,-8275,67,-1,-2,0,0
154484,399,-8274,66,-1,-1,0,0
154489,396,-8275,68,-1,-1,0,0
154494,393,-8275,72,-1,-1,0,0
154499,393,-8274,74,-1,-1,-1,0
154504,393,-8275,77,-1,-1,0,0
154509,391,-8277,84,-1,-1,0,0
154514,386,-8277,89,-1,-1,0,0
154519,379,-8278,85,-1,-1,0,0
154524,378,-8281,79,-1,0,-1,0
154529,381,-8279,75,-1,0,0,0
154534,387,-8279,72,-1,0,0,0
154539,390,-8280,68,-1,-1,0,0
154544,387,-8279,66,-1,-1,-1,0
154549,384,-8282,66,-1,-1,-1,0
154554,380,-8282,67,-1,-1,-1,0
154559,383,-8281,72,-1,0,-1,0
154564,387,-8280,80,-1,0,-1,0
154569,390,-8279,85,-1,0,-1,0
154574,387,-8277,78,-1,-1,-1,0
154579,381,-8276,77,-1,-1,-1,0
154584,371,-8276,73,-1,-1,-1,0
154589,365,-8274,71,-1,-1,-1,0
154594,363,-8272,73,-1,0,-1,0
154599,365,-8271,74,-1,0,-1,0
154604,364,-8271,77,-1,0,-1,0
154609,367,-8271,83,-1,0,-1,0
154614,373,-8274,92,-1,0,-1,0
154619,384,-8277,95,-1,0,-1,0
154624,392,-8275,94,-1,0,-1,0
154629,394,-8273,95,-1,0,-1,0
154634,392,-8271,95,-1,0,-1,0
154639,388,-8273,93,-1,0,-1,0
154644,392,-8273,89,-1,0,-1,0
154649,399,-8274,85,-1,0,-1,0
154654,406,-8271,87,-1,0,-1,0
154659,412,-8271,81,-1,-1,-1,0
154664,413,-8273,80,-1,-1,-1,0
154669,415,-8274,77,-1,-1,-1,0
154674,420,-8275,75,-1,-1,-1,0
154679,425,-8276,72,-1,-1,-1,0
154684,428,-8276,69,-1,-1,-1,0
154689,427,-8276,58,-1,-1,-1,0
154694,427,-8275,52,-1,-1,-1,0
154699,425,-8277,44,-1,-1,-1,0
154704,427,-8279,38,-1,-1,-1,0
154709,429,-8280,31,-1,-1,-1,0
154714,429,-8281,29,-1,-2,-1,0
154719,424,-8282,27,-1,-2,-1,0
154724,414,-8280,24,-1,-2,-1,0
154729,401,-8278,24,-1,-2,-1,0
154734,396,-8276,22,-1,-1,-1,0
154739,400,-8276,22,-1,-1,-1,0
154744,404,-8274,24,-1,-1,-1,0
154749,410,-8273,18,-1,-1,-1,0
154754,412,-8272,15,-1,-1,-1,0
154759,414,-8269,19,-1,-1,-1,0
154764,419,-8268,25,-1,-1,-1,0
154769,425,-8266,33,-1,-1,-1,0
154774,425,-8265,34,-1,-1,-1,0
154779,423,-8262,39,-1,-1,-1,0
154784,417,-8261,41,0,-1,-1,0
154789,416,-8262,47,0,0,-1,0
154794,418,-8263,40,-1,0,-1,0
154799,419,-8266,37,0,0,-1,0
154804,418,-8270,37,0,0,-1,0
154809,417,-8273,41,0,0,-1,0
154814,418,-8275,42,0,0,-1,0
154819,421,-8275,45,0,0,-1,0
154824,430,-8273,49,0,0,-1,0
154829,437,-8273,52,0,0,-1,0
154834,443,-8273,59,-1,0,-1,0
154839,443,-8272,64,-1,0,-1,0
154844,441,-8270,69,-1,0,-1,0
154849,441,-8272,75,0,0,-1,0
154854,444,-8272,84,0,0,-1,0
154859,447,-8274,93,0,0,-1,0
154864,449,-8274,102,0,0,0,0
154869,446,-8274,106,0,0,-1,0
154874,441,-8273,111,0,-1,-1,0
154879,434,-8272,107,0,-1,-1,0
154884,424,-8275,105,-1,-1,-1,0
154889,414,-8276,101,-1,0,-1,0
154894,406,-8276,99,-1,0,-1,0
154899,398,-8275,94,-1,0,-1,0
154904,388,-8275,91,-1,0,-1,0
154909,386,-8274,93,-1,-1,-1,0
154914,388,-8274,99,-1,-1,-1,0
154919,393,-8275,106,-1,0,-1,0
154924,397,-8278,108,-1,-1,-1,0
154929,402,-8279,104,-1,-1,-1,0
154934,406,-8280,103,-1,-1,-1,0
154939,412,-8279,102,-1,-1,-1,0
154944,419,-8277,102,-1,-1,-1,0
154949,422,-8277,99,-1,-1,-1,0
154954,421,-8278,95,-1,-1,-1,0
154959,417,-8279,86,-1,-1,-1,0
154964,416,-8277,82,-1,-1,-1,0
154969,420,-8276,84,-1,-1,-1,0
154974,430,-8275,85,-1,-1,-1,0
154979,439,-8275,85,-1,-1,-1,0
154984,440,-8275,82,-1,-1,-1,0
154989,445,-8274,74,-1,-1,-1,0
154994,451,-8274,72,-1,-1,-1,0
154999,460,-8276,70,-1,-1,-1,0
155004,468,-8276,67,-1,-1,-1,0
155009,471,-8275,67,-1,-1,-1,0
155014,472,-8275,69,-1,-1,0,0
155019,467,-8274,71,-1,-1,-1,0
155024,466,-8277,75,-1,-1,-1,0
155029,466,-8279,76,-1,-1,-1,0
155034,463,-8279,79,-1,-1,0,0
155039,459,-8280,81,-1,0,-1,0
155044,454,-8279,81,-1,0,-1,0
155049,448,-8279,83,-1,0,0,0
155054,444,-8281,85,-1,0,0,0
155059,443,-8282,91,-1,0,-1,0
155064,446,-8281,94,-1,-1,0,0
155069,444,-8279,96,-1,-1,0,0
155074,443,-8279,100,-1,-1,0,0
155079,443,-8277,104,-1,0,0,0
155084,441,-8276,106,-1,0,-1,0
155089,443,-8273,103,-1,-1,0,0
155094,441,-8274,102,-1,0,0,0
155099,438,-8274,96,-1,-1,0,0
155104,436,-8274,90,-1,-1,-1,0
155109,428,-8276,87,-1,0,-1,0
155114,424,-8276,86,-1,0,0,0
155119,421,-8277,93,-1,0,-1,0
155124,423,-8275,99,-1,-1,0,0
155129,424,-8275,102,-1,-1,0,0
155134,426,-8272,109,-1,-1,0,0
155139,429,-8270,114,-1,-1,0,0
155144,436,-8271,119,-1,-1,0,0
155149,445,-8271,125,-1,-1,0,0
155154,453,-8271,131,-1,-1,0,0
155159,459,-8271,130,-1,-1,0,0
155164,460,-8270,128,-1,-1,-1,0
155169,462,-8272,129,-1,-1,0,0
155174,459,-8272,125,-1,-1,0,0
155179,460,-8275,126,-1,-1,0,0
155184,456,-8275,122,-1,-1,0,0
155189,452,-8275,118,-1,-1,0,0
155194,447,-8275,109,-1,-1,0,0
155199,441,-8275,102,-1,-1,0,0
155204,439,-8277,100,-1,-1,0,0
155209,434,-8278,101,-1,0,0,0
155214,427,-8277,101,-1,0,0,0
155219,417,-8279,103,-1,-1,0,0
155224,407,-8281,102,-1,-1,0,0
155229,397,-8281,104,-1,-1,0,0
155234,392,-8278,110,-1,-1,0,0
155239,387,-8276,114,-1,-1,0,0
155244,387,-8275,112,-1,-1,0,0
155249,390,-8271,107,-1,-1,0,0
155254,396,-8272,105,-1,-1,0,0
155259,406,-8273,100,-1,-1,0,0
155264,419,-8275,93,-1,-1,0,0
155269,433,-8276,92,-1,-1,0,0
155274,444,-8276,85,-1,-1,0,0
155279,448,-8278,77,-1,-1,0,0
155284,450,-8279,77,-1,-1,0,0
155289,447,-8276,72,-1,-1,0,0
155294,438,-8274,63,-1,-1,0,0
155299,425,-8272,51,-1,-1,0,0
155304,410,-8272,35,-1,-1,-1,0
155309,393,-8271,18,-1,-1,-1,0
155314,377,-8272,2,-1,-1,0,0
155319,362,-8272,-19,-1,0,0,0
155324,354,-8271,-38,-1,0,-1,0
155329,353,-8268,-43,-1,0,-1,0
155334,354,-8269,-48,-1,1,0,0
155339,356,-8271,-51,-1,1,-1,0
155344,357,-8276,-59,-1,1,-1,0
155349,361,-8278,-64,0,1,-1,0
155354,364,-8277,-76,0,2,-1,0
155359,364,-8276,-82,0,2,-1,0
155364,356,-8276,-90,0,3,-1,0
155369,348,-8276,-103,0,4,-1,0
155374,341,-8277,-109,0,4,-1,0
155379,333,-8281,-117,0,5,-1,0
155384,327,-8280,-112,0,5,-1,0
155389,319,-8278,-106,0,4,-1,0
155394,306,-8277,-98,0,4,-1,0
155399,295,-8277,-82,0,4,-1,0
155404,291,-8278,-72,0,5,-1,0
155409,290,-8277,-58,0,5,-1,0
155414,293,-8276,-51,0,5,-1,0
155419,298,-8274,-52,0,5,-1,0
155424,299,-8272,-52,0,5,-1,0
155429,299,-8272,-47,0,5,-1,0
155434,302,-8272,-42,0,5,-1,0
155439,305,-8273,-22,0,5,-1,0
155444,309,-8274,0,0,6,-1,0
155449,314,-8277,17,0,6,-1,0
155454,321,-8276,38,0,6,-1,0
155459,333,-8278,52,0,6,-1,0
155464,349,-8278,70,0,5,-1,0
155469,368,-8277,86,0,5,-1,0
155474,391,-8277,103,0,4,-1,0
155479,412,-8278,120,0,3,-1,0
155484,431,-8278,136,0,3,-1,0
155489,449,-8276,149,0,2,-1,0
155494,466,-8276,163,0,2,-1,0
155499,480,-8277,175,0,2,-1,0
155504,493,-8277,188,0,2,-1,0
155509,505,-8277,192,0,3,-1,0
155514,516,-8278,194,0,3,-1,0
155519,532,-8277,202,0,4,-1,0
155524,550,-8274,201,0,4,-1,0
155529,571,-8271,202,0,5,-1,0
155534,602,-8269,213,0,5,-1,0
155539,635,-8271,228,-1,4,-1,0
155544,665,-8270,250,-1,4,-1,1
155549,690,-8271,265,-1,3,-1,1
155554,709,-8272,281,-1,2,0,1
155559,728,-8271,297,-1,1,0,1
155564,743,-8267,305,-1,1,0,1
155569,754,-8264,307,-1,0,0,1
155574,759,-8264,300,-1,-1,0,1
155579,759,-8266,289,-1,-2,0,1
155584,758,-8266,277,-1,-2,0,1
155589,752,-8266,264,-1,-2,0,1
155594,752,-8267,259,-1,-1,0,1
155599,751,-8268,246,-1,-1,0,1
155604,750,-8270,234,-1,-1,1,1
155609,742,-8270,217,-1,-1,1,1
155614,733,-8269,200,-1,-1,1,1
155619,724,-8272,183,-1,-1,1,1
155624,712,-8273,167,-1,-1,1,1
155629,697,-8275,152,-1,-1,1,1
155634,685,-8275,137,-1,-1,1,1
155639,682,-8276,120,-1,0,1,1
155644,687,-8276,103,-1,0,1,1
155649,701,-8278,82,-1,1,1,1
155654,716,-8278,57,-1,2,1,1
155659,735,-8277,26,-1,2,2,1
155664,752,-8277,-6,-1,4,2,1
155669,772,-8277,-41,-1,5,2,1
155674,797,-8272,-71,-1,7,2,1
155679,828,-8270,-94,-1,9,2,1
155684,869,-8267,-108,-1,10,2,1
155689,909,-8268,-119,-1,10,3,1
155694,954,-8267,-127,-1,10,3,1
155699,1001,-8264,-129,-1,9,3,1
155704,1045,-8263,-139,-1,8,3,1
155709,1090,-8262,-154,0,7,4,1
155714,1119,-8262,-186,0,6,4,1
155719,1133,-8261,-237,0,5,4,1
155724,1133,-8259,-307,0,6,4,1
155729,1122,-8258,-390,0,7,5,1
155734,1110,-8258,-486,1,9,5,1
155739,1096,-8258,-575,1,11,5,1
155744,1083,-8256,-653,1,12,5,1
155749,1074,-8255,-714,1,13,6,1
155754,1069,-8253,-759,1,13,6,1
155759,1069,-8253,-788,2,13,6,1
155764,1070,-8253,-816,2,13,6,1
155769,1071,-8251,-842,2,12,6,1
155774,1069,-8246,-871,3,12,7,1
155779,1065,-8243,-905,3,11,7,1
155784,1051,-8242,-952,4,11,7,1
155789,1021,-8240,-1012,4,11,7,1
155794,977,-8241,-1076,5,13,7,1
155799,927,-8240,-1150,5,17,8,1
155804,872,-8240,-1221,5,22,8,1
155809,822,-8240,-1281,6,26,8,1
155814,771,-8240,-1341,6,28,8,1
155819,712,-8239,-1395,7,29,8,1
155824,645,-8241,-1448,7,30,8,1
155829,578,-8237,-1500,8,31,8,1
155834,511,-8232,-1546,8,33,8,1
155839,452,-8230,-1581,9,35,8,1
155844,399,-8223,-1614,9,36,8,1
155849,352,-8220,-1643,10,37,8,1
155854,320,-8217,-1659,10,37,8,1
155859,291,-8212,-1668,11,37,8,1
155864,263,-8205,-1670,11,35,8,1
155869,234,-8200,-1659,11,34,8,1
155874,196,-8194,-1640,12,31,8,1
155879,144,-8189,-1615,12,28,8,1
155884,76,-8185,-1581,13,26,8,1
155889,5,-8182,-1526,13,24,8,1
155894,-77,-8182,-1463,13,21,8,1
155899,-169,-8179,-1391,14,17,8,1
155904,-279,-8172,-1317,14,13,7,1
155909,-401,-8169,-1250,15,10,7,1
155914,-530,-8165,-1198,15,10,7,1
155919,-657,-8162,-1155,15,11,6,1
155924,-774,-8159,-1125,16,13,6,1
155929,-877,-8156,-1109,16,14,6,1
155934,-964,-8151,-1106,17,14,5,1
155939,-1044,-8146,-1106,17,13,5,1
155944,-1113,-8143,-1105,17,14,5,1
155949,-1165,-8141,-1091,17,14,4,1
155954,-1220,-8139,-1074,17,14,4,1
155959,-1285,-8137,-1056,17,13,4,1
155964,-1361,-8131,-1024,17,11,4,1
155969,-1458,-8123,-952,17,10,4,1
155974,-1544,-8114,-846,17,8,4,1
155979,-1615,-8097,-707,18,6,4,1
155984,-1618,-8088,-535,19,5,3,1
155989,-1556,-8081,-359,20,4,2,1
155994,-1491,-8073,-247,20,5,1,1
155999,-1449,-8071,-211,21,6,0,1
156004,-1432,-8071,-235,21,8,-1,1
156009,-1438,-8076,-290,21,10,-2,1
156014,-1494,-8075,-349,21,10,-3,1
156019,-1600,-8072,-367,21,10,-3,1
156024,-1730,-8068,-325,21,11,-4,1
156029,-1871,-8066,-214,21,12,-4,1
156034,-1994,-8063,-54,21,13,-5,1
156039,-2047,-8051,114,22,15,-5,1
156044,-2052,-8044,265,22,13,-5,1
156049,-2038,-8039,337,23,10,-6,1
156054,-2023,-8036,345,23,9,-7,1
156059,-2015,-8034,314,23,10,-8,1
156064,-2020,-8031,274,23,12,-8,1
156069,-2057,-8028,277,22,14,-9,1
156074,-2133,-8021,332,22,15,-10,1
156079,-2243,-8013,422,22,18,-10,1
156084,-2354,-8005,584,22,23,-11,1
156089,-2430,-7993,762,22,31,-12,1
156094,-2460,-7980,938,22,35,-12,1
156099,-2453,-7971,1111,22,36,-13,1
156104,-2413,-7961,1247,22,35,-14,1
156109,-2369,-7955,1356,22,33,-14,1
156114,-2326,-7948,1474,21,33,-15,1
156119,-2278,-7939,1601,21,33,-15,1
156124,-2240,-7934,1760,21,32,-16,1
156129,-2211,-7928,1952,20,31,-17,1
156134,-2205,-7921,2174,20,30,-17,1
156139,-2205,-7913,2375,20,29,-18,1
156144,-2222,-7910,2553,19,31,-18,1
156149,-2234,-7909,2683,19,35,-19,1
156154,-2212,-7906,2786,19,40,-19,1
156159,-2169,-7909,2882,18,42,-20,1
156164,-2109,-7910,3008,17,41,-20,1
156169,-2025,-7911,3198,16,38,-21,1
156174,-1936,-7907,3432,14,36,-21,1
156179,-1851,-7903,3699,14,35,-22,1
156184,-1757,-7901,3977,13,35,-22,1
156189,-1644,-7899,4214,12,34,-23,1
156194,-1538,-7901,4412,11,31,-23,1
156199,-1434,-7903,4582,10,29,-24,1
156204,-1325,-7904,4756,9,26,-24,1
156209,-1237,-7903,4949,8,21,-25,1
156214,-1156,-7905,5155,7,16,-25,1
156219,-1084,-7905,5350,6,11,-25,1
156224,-1026,-7904,5518,5,5,-26,1
156229,-989,-7905,5629,3,1,-26,1
156234,-919,-7906,5705,2,-1,-26,1
156239,-826,-7908,5715,0,-1,-26,1
156244,-722,-7912,5664,-2,1,-26,1
156249,-570,-7915,5632,-4,4,-26,1
156254,-386,-7912,5625,-6,5,-26,1
156259,-190,-7904,5703,-7,7,-26,1
156264,17,-7894,5865,-8,9,-27,1
156269,218,-7879,6039,-9,9,-27,1
156274,391,-7872,6205,-10,7,-27,1
156279,530,-7866,6283,-10,5,-27,1
156284,638,-7863,6256,-11,2,-27,1
156289,717,-7860,6151,-12,-2,-26,1
156294,769,-7859,5981,-14,-6,-26,1
156299,827,-7858,5806,-15,-8,-26,1
156304,916,-7852,5666,-17,-9,-25,1
156309,1024,-7840,5579,-18,-10,-25,1
156314,1140,-7828,5561,-20,-10,-25,1
156319,1240,-7815,5576,-21,-9,-25,1
156324,1428,-7797,5560,-21,-8,-25,1
156329,1708,-7785,5490,-22,-5,-24,1
156334,1903,-7779,5371,-22,-6,-23,1
156339,2110,-7776,5232,-23,-9,-22,1
156344,2359,-7772,5020,-25,-8,-22,1
156349,2558,-7768,4774,-26,-8,-22,1
156354,2686,-7766,4584,-27,-8,-22,1
156359,2759,-7758,4405,-28,-7,-21,1
156364,2819,-7750,4272,-29,-5,-21,1
156369,2872,-7740,4201,-30,-4,-20,1
156374,2915,-7731,4141,-30,-4,-19,1
156379,2993,-7718,4096,-31,-5,-18,1
156384,3082,-7706,4045,-31,-7,-17,1
156389,3144,-7697,3979,-32,-9,-16,1
156394,3225,-7689,3893,-32,-11,-16,1
156399,3320,-7679,3750,-32,-12,-15,1
156404,3424,-7670,3572,-33,-13,-14,1
156409,3548,-7667,3369,-33,-14,-13,1
156414,3671,-7664,3109,-34,-16,-12,1
156419,3783,-7661,2833,-35,-15,-12,1
156424,3873,-7658,2576,-35,-14,-11,1
156429,3939,-7654,2348,-36,-14,-10,1
156434,3993,-7653,2150,-36,-17,-9,1
156439,4025,-7650,1998,-37,-23,-8,1
156444,4032,-7647,1860,-37,-31,-7,1
156449,4037,-7641,1714,-36,-38,-6,1
156454,4038,-7635,1555,-36,-45,-5,1
156459,4027,-7628,1356,-35,-55,-5,1
156464,4022,-7627,1104,-35,-64,-3,1
156469,4009,-7623,800,-33,-73,-2,1
156474,3962,-7625,452,-32,-81,-1,1
156479,3860,-7629,30,-31,-87,0,1
156484,3732,-7640,-457,-30,-89,0,1
156489,3587,-7673,-1006,-29,-87,1,1
156494,3377,-7698,-1548,-29,-83,1,1
156499,3181,-7708,-2139,-29,-79,2,1
156504,3094,-7733,-2860,-27,-71,3,1
156509,2995,-7771,-3415,-26,-64,5,1
156514,2942,-7810,-3777,-25,-59,5,1
156519,2942,-7842,-4106,-24,-53,5,1
156524,2867,-7868,-4273,-24,-50,5,1
156529,2695,-7891,-4249,-22,-51,5,1
156534,2451,-7911,-4182,-21,-50,5,1
156539,2164,-7932,-4091,-19,-49,5,1
156544,1857,-7954,-4018,-17,-49,5,1
156549,1571,-7976,-4050,-15,-49,6,1
156554,1361,-7999,-4147,-13,-48,6,1
156559,1207,-8025,-4273,-12,-47,6,1
156564,1087,-8051,-4415,-11,-45,6,1
156569,1021,-8073,-4527,-11,-43,5,1
156574,923,-8094,-4543,-10,-42,5,1
156579,766,-8108,-4437,-10,-40,4,1
156584,599,-8117,-4251,-9,-37,3,1
156589,393,-8125,-4009,-8,-34,3,1
156594,186,-8135,-3758,-6,-31,3,1
156599,53,-8143,-3566,-5,-28,3,1
156604,-31,-8153,-3450,-4,-24,3,1
156609,-47,-8163,-3404,-3,-22,3,1
156614,15,-8176,-3404,-2,-18,2,1
156619,87,-8187,-3380,-2,-15,2,1
156624,150,-8195,-3305,-2,-12,1,1
156629,210,-8201,-3140,-2,-9,0,1
156634,223,-8204,-2901,-2,-6,0,1
156639,212,-8207,-2625,-1,-4,0,1
156644,209,-8207,-2333,-1,-3,0,1
156649,233,-8205,-2058,0,-2,0,1
156654,296,-8207,-1840,0,-1,0,1
156659,419,-8211,-1671,1,-1,0,1
156664,580,-8218,-1548,1,-2,0,1
156669,739,-8225,-1450,1,-3,0,1
156674,887,-8228,-1354,0,-5,-1,1
156679,983,-8228,-1237,0,-5,-1,1
156684,1015,-8229,-1100,0,-3,-1,1
156689,1012,-8231,-955,0,-1,-1,1
156694,986,-8230,-821,0,1,-1,1
156699,959,-8228,-700,1,2,-1,1
156704,970,-8226,-605,1,3,0,1
156709,1016,-8226,-547,1,4,0,1
156714,1087,-8226,-510,1,5,0,1
156719,1178,-8224,-474,0,6,0,1
156724,1268,-8221,-441,0,6,0,1
156729,1334,-8223,-391,0,5,0,1
156734,1378,-8224,-328,0,4,0,1
156739,1394,-8224,-262,0,3,0,1
156744,1384,-8223,-194,0,2,0,1
156749,1369,-8222,-137,0,2,0,1
156754,1359,-8222,-97,0,1,0,1
156759,1351,-8222,-75,0,2,0,1
156764,1364,-8224,-82,0,2,0,1
156769,1395,-8224,-107,0,2,0,1
156774,1421,-8225,-132,-1,1,0,1
156779,1435,-8227,-153,-1,1,0,1
156784,1427,-8227,-167,-1,1,0,1
156789,1394,-8227,-163,-1,1,0,1
156794,1352,-8227,-155,-1,1,0,1
156799,1305,-8226,-150,-1,1,0,1
156804,1263,-8225,-142,-1,1,0,1
156809,1246,-8227,-144,-1,0,0,1
156814,1253,-8229,-153,-1,-1,0,1
156819,1268,-8229,-175,-1,-1,0,1
156824,1292,-8230,-211,-1,-2,0,1
156829,1318,-8232,-244,-1,-2,0,1
156834,1324,-8232,-283,-1,-2,0,1
156839,1319,-8233,-313,-1,-3,0,1
156844,1294,-8229,-326,-1,-3,0,1
156849,1255,-8230,-343,-1,-3,0,1
156854,1220,-8230,-351,-1,-3,0,1
156859,1196,-8230,-361,-1,-3,0,1
156864,1186,-8231,-383,-1,-3,0,1
156869,1199,-8231,-409,-1,-3,0,1
156874,1222,-8228,-445,-1,-3,0,1
156879,1244,-8231,-480,-1,-3,0,1
156884,1254,-8233,-501,-1,-3,0,1
156889,1240,-8232,-525,-1,-2,0,1
156894,1207,-8231,-547,-1,-1,0,1
156899,1163,-8230,-567,0,0,0,1
156904,1119,-8231,-586,0,0,0,1
156909,1089,-8231,-602,0,0,0,1
156914,1084,-8235,-610,0,-1,0,1
156919,1098,-8239,-615,0,-1,1,1
156924,1130,-8241,-618,0,-2,0,1
156929,1170,-8241,-623,0,-2,0,1
156934,1199,-8246,-626,0,-2,0,1
156939,1203,-8244,-620,0,-2,0,1
156944,1179,-8242,-607,0,-2,0,1
156949,1125,-8243,-589,0,-2,0,1
156954,1059,-8242,-562,0,-3,0,1
156959,1004,-8239,-533,0,-3,0,1
156964,966,-8235,-501,0,-3,0,1
156969,959,-8236,-470,0,-4,0,1
156974,985,-8236,-442,0,-5,0,1
156979,1029,-8237,-425,0,-6,0,1
156984,1088,-8233,-413,0,-7,0,1
156989,1132,-8231,-403,0,-8,-1,1
156994,1154,-8230,-409,0,-8,-1,1
156999,1151,-8231,-420,0,-8,-1,1
157004,1124,-8231,-434,0,-7,-1,1
157009,1086,-8232,-445,0,-6,-1,1
157014,1057,-8231,-453,0,-5,-1,1
157019,1044,-8230,-458,0,-4,-1,1
157024,1053,-8231,-456,0,-3,-1,1
157029,1086,-8229,-453,0,-2,-1,1
157034,1131,-8226,-446,0,-1,-1,1
157039,1177,-8224,-442,0,0,-1,1
157044,1219,-8223,-436,0,1,-1,1
157049,1244,-8223,-430,0,1,-1,1
157054,1252,-8223,-424,0,1,-1,1
157059,1253,-8226,-428,1,2,-1,1
157064,1247,-8229,-427,1,2,-1,1
157069,1242,-8231,-434,1,2,-1,1
157074,1253,-8234,-439,1,3,0,1
157079,1271,-8235,-440,1,4,0,1
157084,1297,-8235,-439,1,5,0,1
157089,1328,-8234,-431,1,5,0,1
157094,1348,-8233,-415,1,6,0,1
157099,1359,-8232,-394,1,6,0,1
157104,1361,-8230,-370,1,6,0,1
157109,1348,-8230,-338,0,6,0,1
157114,1332,-8230,-300,0,5,0,1
157119,1322,-8230,-259,0,5,0,1
157124,1313,-8233,-224,0,5,0,1
157129,1314,-8235,-192,0,4,0,1
157134,1321,-8237,-171,0,3,0,1
157139,1322,-8236,-153,0,2,0,1
157144,1319,-8238,-142,0,1,0,1
157149,1304,-8238,-135,0,0,0,1
157154,1280,-8236,-129,0,-1,0,1
157159,1248,-8235,-119,0,-1,0,1
157164,1211,-8235,-118,0,-1,0,1
157169,1174,-8237,-117,0,-1,0,1
157174,1144,-8239,-121,0,-1,0,1
157179,1123,-8240,-129,0,-1,0,1
157184,1115,-8239,-134,0,-1,0,1
157189,1120,-8241,-140,0,-1,0,1
157194,1132,-8241,-148,-1,-2,0,1
157199,1141,-8243,-160,-1,-2,0,1
157204,1149,-8240,-178,-1,-2,0,1
157209,1153,-8239,-201,-1,-2,0,1
157214,1148,-8239,-222,-1,-2,0,1
157219,1141,-8240,-245,-1,-2,0,1
157224,1138,-8241,-270,-1,-2,0,1
157229,1133,-8240,-298,-1,-1,0,1
157234,1142,-8239,-325,0,-1,0,1
157239,1158,-8236,-345,0,-1,0,1
157244,1180,-8232,-359,0,-2,0,1
157249,1205,-8231,-372,0,-2,0,1
157254,1230,-8231,-376,0,-2,0,1
157259,1248,-8231,-383,0,-3,0,1
157264,1258,-8231,-390,0,-3,0,1
157269,1255,-8231,-401,0,-3,0,1
157274,1242,-8231,-416,0,-3,0,1
157279,1223,-8232,-431,0,-2,0,1
157284,1207,-8235,-442,0,-3,0,1
157289,1195,-8238,-455,0,-3,0,1
157294,1186,-8238,-466,0,-3,0,1
157299,1183,-8239,-465,0,-2,0,1
157304,1184,-8237,-467,0,-1,0,1
157309,1189,-8239,-460,0,0,0,1
157314,1192,-8238,-454,0,0,0,1
157319,1192,-8236,-447,0,0,0,1
157324,1197,-8237,-435,0,0,0,1
157329,1199,-8237,-418,0,1,0,1
157334,1205,-8238,-396,0,1,0,1
157339,1215,-8241,-376,0,0,0,1
157344,1218,-8241,-352,0,0,0,1
157349,1217,-8238,-332,0,0,0,1
157354,1216,-8237,-314,0,0,0,1
157359,1210,-8237,-296,0,-1,0,1
157364,1205,-8238,-293,0,-1,0,1
157369,1195,-8239,-286,0,-1,0,1
157374,1184,-8237,-281,0,-1,0,1
157379,1174,-8237,-278,0,-1,0,1
157384,1164,-8238,-271,0,-2,0,1
157389,1156,-8237,-256,0,-2,0,1
157394,1146,-8237,-239,0,-3,0,1
157399,1149,-8238,-225,0,-3,0,1
157404,1156,-8239,-213,0,-4,0,1
157409,1169,-8241,-206,0,-4,0,1
157414,1184,-8242,-210,0,-4,0,1
157419,1190,-8241,-222,0,-3,0,1
157424,1191,-8240,-238,0,-2,-1,1
157429,1186,-8241,-260,0,-1,-1,1
157434,1168,-8241,-278,0,0,-1,1
157439,1153,-8240,-292,0,0,0,1
157444,1144,-8239,-293,-1,1,0,1
157449,1147,-8239,-291,-1,1,0,1
157454,1164,-8238,-284,-1,1,0,1
157459,1186,-8237,-274,0,1,0,1
157464,1207,-8239,-276,0,1,0,1
157469,1219,-8238,-288,0,1,-1,1
157474,1222,-8239,-297,0,0,-1,1
157479,1214,-8239,-311,0,-1,0,1
157484,1199,-8238,-320,0,-1,0,1
157489,1185,-8237,-325,0,-2,0,1
157494,1173,-8236,-329,0,-1,0,1
157499,1172,-8234,-333,0,-1,0,1
157504,1176,-8234,-329,0,-1,0,1
157509,1184,-8234,-330,0,-1,0,1
157514,1193,-8233,-337,0,-2,0,1
157519,1196,-8235,-345,0,-2,0,1
157524,1198,-8235,-357,0,-2,0,1
157529,1201,-8236,-373,0,-2,0,1
157534,1198,-8236,-380,0,-2,0,1
157539,1190,-8236,-387,0,-2,0,1
157544,1178,-8235,-396,0,-1,0,0
157549,1169,-8234,-402,0,-1,0,0
157554,1157,-8232,-406,0,0,-1,0
157559,1149,-8230,-402,0,0,0,0
157564,1145,-8230,-396,0,1,0,0
157569,1151,-8230,-391,0,1,0,0
157574,1163,-8232,-382,0,1,0,0
157579,1178,-8233,-369,0,0,0,0
157584,1196,-8232,-358,0,0,0,0
157589,1205,-8232,-339,0,0,-1,0
157594,1204,-8233,-331,0,-1,-1,0
157599,1200,-8233,-324,0,-1,0,0
157604,1194,-8235,-319,0,-2,0,0
157609,1187,-8237,-313,0,-2,0,0
157614,1188,-8237,-308,0,-2,0,0
157619,1193,-8236,-307,0,-2,0,0
157624,1202,-8237,-304,0,-2,0,0
157629,1217,-8235,-296,0,-3,0,0
157634,1222,-8235,-295,0,-2,0,0
157639,1221,-8235,-295,0,-2,0,0
157644,1212,-8233,-292,0,-1,0,0
157649,1195,-8232,-294,0,-1,0,0
157654,1178,-8236,-293,0,0,0,0
157659,1161,-8233,-290,0,0,0,0
157664,1151,-8232,-283,0,0,0,0
157669,1151,-8233,-274,0,0,0,0
157674,1160,-8231,-263,0,0,0,0
157679,1178,-8234,-260,0,0,0,0
157684,1196,-8235,-255,0,0,0,0
157689,1213,-8238,-250,0,0,0,0
157694,1219,-8239,-242,0,-1,-1,0
157699,1216,-8240,-242,0,-1,-1,0
157704,1208,-8243,-239,0,-2,0,0
157709,1197,-8243,-236,-1,-2,0,0
157714,1188,-8243,-230,-1,-2,0,0
157719,1187,-8244,-224,-1,-2,0,0
157724,1189,-8244,-219,-1,-2,0,0
157729,1197,-8245,-215,-1,-2,0,0
157734,1202,-8247,-206,-1,-2,0,0
157739,1199,-8247,-204,-1,-1,0,0
157744,1193,-8245,-211,-1,-1,0,0
157749,1185,-8243,-229,-1,0,-1,0
157754,1169,-8242,-246,-1,1,-1,0
157759,1153,-8241,-263,-1,1,-1,0
157764,1141,-8242,-269,-1,1,0,0
157769,1141,-8241,-271,-1,0,0,0
157774,1148,-8241,-266,-1,0,0,0
157779,1164,-8238,-259,-1,-1,0,0
157784,1188,-8240,-259,-1,-1,0,0
157789,1211,-8239,-268,-1,-2,0,0
157794,1227,-8238,-285,-1,-2,0,0
157799,1235,-8237,-306,-1,-3,0,0
157804,1234,-8242,-332,-1,-3,0,0
157809,1230,-8243,-353,-1,-4,0,0
157814,1223,-8242,-365,-1,-4,0,0
157819,1227,-8240,-369,-1,-4,0,0
157824,1234,-8239,-375,-1,-4,0,0
157829,1247,-8235,-375,-1,-4,0,0
157834,1260,-8233,-382,-1,-3,0,0
157839,1260,-8232,-395,0,-3,0,0
157844,1252,-8234,-420,0,-2,0,0
157849,1238,-8236,-436,0,-2,0,0
157854,1215,-8237,-455,0,-1,0,0
157859,1192,-8237,-465,0,-1,0,0
157864,1180,-8238,-463,0,-1,0,0
157869,1173,-8240,-451,0,0,0,0
157874,1175,-8240,-432,0,0,0,0
157879,1186,-8239,-420,0,0,0,0
157884,1199,-8234,-404,0,-1,0,0
157889,1211,-8237,-393,0,-1,0,0
157894,1219,-8240,-388,0,0,0,0
157899,1209,-8241,-386,0,0,0,0
157904,1194,-8243,-384,0,-1,0,0
157909,1177,-8243,-377,0,-1,0,0
157914,1157,-8241,-369,0,-1,0,0
157919,1144,-8240,-355,0,0,0,0
157924,1145,-8242,-331,0,0,0,0
157929,1155,-8244,-314,0,0,0,0
157934,1169,-8243,-300,0,0,0,0
157939,1184,-8242,-296,0,1,0,0
157944,1191,-8243,-295,0,1,0,0
157949,1189,-8242,-299,0,1,0,0
157954,1177,-8241,-302,0,0,0,0
157959,1163,-8236,-302,0,0,0,0
157964,1150,-8235,-300,0,0,0,0
157969,1140,-8236,-290,0,-1,0,0
157974,1138,-8237,-282,0,-1,0,0
157979,1148,-8238,-274,0,-2,0,0
157984,1166,-8240,-267,0,-2,0,0
157989,1183,-8243,-268,0,-2,0,0
157994,1197,-8243,-280,0,-2,0,0
157999,1200,-8243,-303,0,-2,0,0
158004,1191,-8245,-326,0,-2,0,0
158009,1170,-8245,-344,0,-1,0,0
158014,1147,-8245,-357,0,0,-1,0
158019,1120,-8246,-370,0,0,0,0
158024,1099,-8245,-380,0,1,0,0
158029,1089,-8247,-388,0,2,0,0
158034,1095,-8247,-397,0,2,0,0
158039,1110,-8247,-404,0,2,0,0
158044,1134,-8248,-408,0,2,0,0
158049,1159,-8248,-406,0,2,0,0
158054,1177,-8247,-404,0,2,-1,0
158059,1186,-8248,-402,0,2,0,0
158064,1188,-8250,-396,0,2,-1,0
158069,1182,-8250,-389,0,2,-1,0
158074,1171,-8250,-379,0,2,-1,0
158079,1162,-8248,-370,0,1,0,0
158084,1157,-8244,-368,0,1,0,0
158089,1156,-8241,-365,0,1,0,0
158094,1162,-8239,-360,0,1,0,0
158099,1177,-8239,-360,0,1,0,0
158104,1193,-8239,-353,0,1,0,0
158109,1203,-8240,-341,0,1,-1,0
158114,1206,-8241,-325,0,0,-1,0
158119,1201,-8240,-313,0,1,-1,0
158124,1194,-8242,-304,0,1,0,0
158129,1190,-8244,-300,0,2,0,0
158134,1184,-8243,-293,0,2,0,0
158139,1186,-8243,-283,0,1,0,0
158144,1197,-8245,-278,0,1,0,0
158149,1211,-8245,-274,0,1,0,0
158154,1226,-8243,-265,0,0,0,0
158159,1240,-8244,-252,0,0,0,0
158164,1248,-8244,-239,0,0,0,0
158169,1248,-8243,-227,0,-1,0,0
158174,1240,-8243,-210,0,-1,0,0
158179,1226,-8244,-204,0,-1,0,0
158184,1212,-8244,-205,0,-2,0,0
158189,1199,-8244,-209,0,-2,0,0
158194,1191,-8245,-214,-1,-2,0,0
158199,1189,-8245,-224,-1,-2,0,0
158204,1191,-8243,-231,-1,-2,0,0
158209,1196,-8242,-232,-1,-2,0,0
158214,1200,-8242,-228,-1,-3,0,0
158219,1199,-8240,-224,-1,-3,0,0
158224,1192,-8241,-222,-1,-3,0,0
158229,1177,-8239,-223,-1,-3,0,0
158234,1165,-8240,-227,-1,-2,0,0
158239,1157,-8239,-238,-1,-2,0,0
158244,1154,-8237,-251,-1,-3,0,0
158249,1160,-8238,-273,-1,-3,0,0
158254,1175,-8238,-294,-1,-3,0,0
158259,1189,-8237,-317,-1,-4,0,0
158264,1203,-8237,-340,-1,-5,0,0
158269,1214,-8235,-370,-1,-6,0,0
158274,1216,-8235,-409,-1,-7,0,0
158279,1212,-8237,-459,0,-7,0,0
158284,1199,-8239,-522,0,-8,0,0
158289,1174,-8242,-603,0,-8,-1,0
158294,1141,-8243,-698,0,-8,0,0
158299,1106,-8243,-789,0,-7,-1,0
158304,1073,-8244,-879,1,-6,0,0
158309,1056,-8244,-959,1,-3,0,0
158314,1065,-8244,-1032,1,0,0,0
158319,1095,-8245,-1091,1,2,0,0
158324,1135,-8242,-1139,2,3,0,0
158329,1179,-8240,-1180,2,3,0,0
158334,1215,-8237,-1215,2,3,-1,0
158339,1235,-8234,-1241,3,4,-1,0
158344,1244,-8236,-1261,3,4,-1,0
158349,1237,-8237,-1282,4,4,0,0
158354,1219,-8237,-1296,4,5,0,0
158359,1199,-8237,-1317,4,6,0,0
158364,1181,-8234,-1330,5,8,0,0
158369,1166,-8232,-1328,5,10,0,0
158374,1155,-8232,-1310,5,12,0,0
158379,1148,-8231,-1281,5,14,0,0
158384,1140,-8231,-1231,5,16,0,0
158389,1137,-8228,-1165,5,17,0,0
158394,1128,-8226,-1091,6,18,0,0
158399,1121,-8224,-1010,6,19,0,0
158404,1128,-8225,-924,6,21,0,0
158409,1142,-8225,-839,6,22,0,0
158414,1165,-8223,-764,6,23,0,0
158419,1201,-8224,-691,6,24,0,0
158424,1242,-8225,-620,6,24,0,0
158429,1286,-8225,-540,6,24,0,0
158434,1330,-8227,-451,6,24,0,0
158439,1365,-8225,-363,6,23,0,0
158444,1397,-8225,-274,6,23,0,0
158449,1423,-8226,-181,6,22,0,0
158454,1439,-8227,-85,6,20,1,0
158459,1449,-8230,11,5,19,1,0
158464,1457,-8232,101,5,17,1,0
158469,1476,-8253,198,5,15,1,0
158474,1528,-8284,312,5,13,1,0
158479,1502,-8320,408,4,11,2,0
158484,1368,-8364,475,4,8,2,0
158489,1146,-8424,485,3,5,3,0
158494,924,-8492,489,3,3,4,0
158499,789,-8569,516,2,3,6,0
158504,769,-8659,569,2,3,6,0
158509,830,-8752,644,1,3,7,0
158514,889,-8840,700,1,2,8,0
158519,880,-8926,735,0,1,8,0
158524,797,-8994,747,0,-1,9,0
158529,692,-9049,764,-1,-4,10,0
158534,618,-9091,801,-2,-6,11,0
158539,611,-9119,851,-2,-8,11,0
158544,656,-9135,898,-3,-10,12,0
158549,711,-9140,919,-3,-12,12,0
158554,724,-9128,906,-3,-13,12,0
158559,685,-9094,880,-4,-14,13,0
158564,613,-9044,861,-4,-15,13,0
158569,545,-8981,857,-5,-16,13,0
158574,517,-8915,865,-5,-15,14,0
158579,547,-8845,863,-5,-15,14,0
158584,611,-8774,841,-5,-15,14,0
158589,675,-8697,798,-6,-15,14,0
158594,723,-8609,740,-6,-17,14,0
158599,747,-8518,690,-6,-18,15,0
158604,760,-8423,653,-6,-20,15,0
158609,782,-8328,632,-6,-22,15,0
158614,820,-8237,614,-6,-23,15,0
158619,866,-8149,591,-6,-25,16,0
158624,910,-8065,556,-6,-27,16,0
158629,938,-7989,514,-6,-28,16,0
158634,943,-7918,470,-5,-30,16,0
158639,933,-7846,434,-5,-32,16,0
158644,916,-7780,409,-5,-34,16,0
158649,886,-7722,373,-5,-35,16,0
158654,852,-7674,327,-4,-34,17,0
158659,812,-7634,254,-4,-32,17,0
158664,773,-7608,170,-3,-28,17,0
158669,739,-7587,92,-3,-25,17,0
158674,717,-7580,26,-2,-22,17,0
158679,705,-7573,-21,-2,-20,17,0
158684,701,-7567,-55,-2,-19,17,0
158689,696,-7565,-77,-1,-19,17,0
158694,685,-7558,-94,-1,-19,17,0
158699,674,-7555,-110,0,-19,17,0
158704,660,-7552,-124,0,-19,17,0
158709,644,-7564,-142,1,-20,18,0
158714,624,-7603,-154,1,-21,18,0
158719,599,-7662,-150,2,-22,18,0
158724,568,-7737,-147,2,-24,18,0
158729,529,-7824,-147,3,-25,18,0
158734,481,-7915,-156,3,-25,18,0
158739,428,-8004,-173,3,-25,17,0
158744,379,-8089,-196,4,-24,17,0
158749,337,-8165,-211,4,-23,17,0
158754,299,-8230,-220,5,-22,17,0
158759,262,-8284,-223,5,-20,16,0
158764,234,-8327,-226,5,-18,16,0
158769,214,-8355,-226,6,-16,16,0
158774,201,-8375,-222,6,-16,16,0
158779,197,-8391,-214,6,-16,15,0
158784,204,-8407,-200,7,-16,15,0
158789,220,-8410,-177,7,-16,15,0
158794,230,-8404,-160,7,-16,14,0
158799,219,-8389,-157,7,-16,14,0
158804,183,-8367,-159,7,-14,14,0
158809,145,-8352,-162,8,-12,13,0
158814,118,-8338,-166,8,-10,13,0
158819,114,-8318,-165,8,-7,13,0
158824,125,-8293,-159,8,-4,12,0
158829,140,-8260,-138,8,-1,12,0
158834,147,-8223,-105,8,-1,12,0
158839,147,-8183,-66,8,-1,11,0
158844,143,-8145,-25,8,-1,11,0
158849,145,-8109,6,8,-1,11,0
158854,157,-8080,25,8,-1,10,0
158859,167,-8057,35,8,-1,10,0
158864,170,-8032,47,8,-2,10,0
158869,154,-8002,63,8,-2,9,0
158874,126,-7971,77,8,-2,9,0
158879,103,-7944,92,8,-2,9,0
158884,95,-7933,108,8,-3,8,0
158889,102,-7934,125,8,-3,8,0
158894,108,-7943,135,7,-3,8,0
158899,103,-7951,134,7,-3,7,0
158904,88,-7957,124,7,-2,7,0
158909,66,-7959,118,7,-2,6,0
158914,57,-7957,128,7,-3,6,0
158919,68,-7958,142,7,-4,6,0
158924,95,-7960,164,7,-5,6,0
158929,120,-7963,178,7,-6,5,0
158934,132,-7969,168,7,-6,5,0
158939,124,-7980,129,7,-6,5,0
158944,116,-7997,87,7,-4,5,0
158949,109,-8024,61,7,-3,5,0
158954,107,-8055,54,7,-2,4,0
158959,115,-8087,71,7,-2,4,0
158964,130,-8115,87,7,-2,4,0
158969,148,-8143,90,7,-2,4,0
158974,160,-8170,82,7,-3,4,0
158979,164,-8198,69,7,-5,4,0
158984,165,-8228,60,7,-6,3,0
158989,160,-8259,59,7,-7,3,0
158994,148,-8293,70,7,-8,3,0
158999,127,-8330,76,7,-7,3,0
159004,107,-8369,68,7,-6,3,0
159009,92,-8408,46,7,-5,2,0
159014,81,-8443,31,6,-4,2,0
159019,75,-8477,36,6,-4,2,0
159024,68,-8506,55,6,-4,2,0
159029,64,-8525,80,6,-4,2,0
159034,65,-8540,96,6,-4,2,0
159039,70,-8544,96,6,-4,2,0
159044,72,-8537,81,6,-4,1,0
159049,65,-8521,71,6,-4,1,0
159054,54,-8498,76,6,-5,1,0
159059,50,-8469,97,5,-5,1,0
159064,55,-8438,117,5,-5,1,0
159069,62,-8419,131,5,-5,1,0
159074,70,-8415,129,5,-5,1,0
159079,70,-8421,120,5,-5,1,0
159084,64,-8432,121,5,-6,1,0
159089,50,-8439,133,4,-6,1,0
159094,40,-8441,160,4,-6,1,0
159099,37,-8446,189,4,-6,1,0
159104,35,-8450,213,4,-7,0,0
159109,30,-8450,225,3,-7,0,0
159114,21,-8440,228,3,-8,0,0
159119,3,-8421,222,3,-8,0,0
159124,-20,-8397,223,3,-8,0,0
159129,-36,-8376,236,2,-7,0,0
159134,-41,-8360,254,2,-7,0,0
159139,-34,-8346,273,2,-7,0,0
159144,-26,-8334,285,2,-7,0,0
159149,-22,-8318,289,1,-7,0,0
159154,-26,-8298,290,1,-8,0,0
159159,-36,-8269,295,1,-8,-1,0
159164,-40,-8240,300,1,-8,-1,0
159169,-33,-8212,296,0,-8,-1,0
159174,-14,-8188,298,0,-9,-1,0
159179,9,-8164,288,0,-9,-1,0
159184,17,-8140,273,0,-9,-1,0
159189,5,-8119,263,0,-9,-1,0
159194,-17,-8101,252,0,-9,-1,0
159199,-35,-8086,253,0,-10,-1,0
159204,-31,-8074,257,-1,-10,-1,0
159209,-13,-8066,270,-1,-10,-1,0
159214,6,-8060,275,-1,-11,-1,0
159219,10,-8054,275,-1,-12,-1,0
159224,-14,-8043,264,-1,-12,-1,0
159229,-55,-8034,247,-1,-12,-1,0
159234,-90,-8028,239,-2,-10,-1,0
159239,-104,-8028,236,-2,-9,-1,0
159244,-98,-8030,238,-2,-8,-1,0
159249,-78,-8038,236,-2,-7,-1,0
159254,-65,-8054,229,-2,-6,-1,0
159259,-72,-8064,218,-2,-7,-1,0
159264,-95,-8076,208,-2,-7,0,0
159269,-124,-8094,204,-2,-8,0,0
159274,-143,-8119,206,-2,-9,0,0
159279,-153,-8148,212,-2,-9,0,0
159284,-163,-8178,213,-2,-9,0,0
159289,-177,-8211,206,-2,-9,0,0
159294,-206,-8244,195,-2,-10,0,0
159299,-243,-8278,180,-2,-10,0,0
159304,-277,-8304,178,-3,-10,0,0
159309,-297,-8327,191,-3,-10,0,0
159314,-303,-8346,208,-3,-11,0,0
159319,-295,-8363,216,-2,-10,0,0
159324,-288,-8374,215,-2,-10,0,0
159329,-294,-8379,212,-2,-10,0,0
159334,-308,-8380,203,-2,-9,0,0
159339,-322,-8369,203,-2,-9,0,0
159344,-335,-8349,206,-2,-8,1,0
159349,-338,-8338,218,-2,-7,1,0
159354,-332,-8337,233,-2,-6,1,0
159359,-324,-8342,239,-2,-5,1,0
159364,-323,-8349,239,-2,-5,1,0
159369,-328,-8359,240,-2,-4,1,0
159374,-335,-8370,251,-2,-3,1,0
159379,-341,-8382,262,-2,-3,1,0
159384,-337,-8396,279,-2,-3,1,0
159389,-327,-8405,291,-1,-3,1,0
159394,-311,-8410,293,-1,-4,1,0
159399,-303,-8411,290,-1,-4,1,0
159404,-302,-8403,284,-1,-3,1,0
159409,-308,-8387,280,-1,-3,1,0
159414,-313,-8369,281,-1,-3,1,0
159419,-309,-8355,285,-1,-2,2,0
159424,-297,-8342,289,-1,-2,2,0
159429,-285,-8334,291,-1,-1,2,0
159434,-274,-8321,287,-1,-1,2,0
159439,-270,-8304,288,0,-2,2,0
159444,-269,-8293,296,0,-3,2,0
159449,-270,-8290,319,0,-3,2,0
159454,-268,-8294,350,0,-4,2,0
159459,-266,-8303,374,0,-4,2,0
159464,-266,-8315,376,0,-5,2,0
159469,-270,-8328,372,0,-5,2,0
159474,-275,-8337,361,0,-5,2,0
159479,-278,-8341,356,0,-5,2,0
159484,-277,-8338,360,0,-5,2,0
159489,-273,-8327,373,0,-4,2,0
159494,-264,-8307,385,0,-4,2,0
159499,-248,-8285,391,0,-4,2,0
159504,-230,-8259,390,0,-4,2,0
159509,-206,-8236,384,0,-4,2,0
159514,-187,-8227,385,0,-5,2,0
159519,-181,-8226,396,0,-4,2,0
159524,-187,-8220,410,0,-4,1,0
159529,-200,-8214,422,0,-3,1,0
159534,-204,-8210,433,0,-3,1,0
159539,-195,-8205,439,0,-3,1,0
159544,-171,-8195,453,0,-4,1,0
159549,-135,-8180,469,0,-4,1,0
159554,-104,-8166,484,0,-5,1,0
159559,-86,-8147,490,0,-6,1,0
159564,-78,-8126,486,0,-6,1,0
159569,-74,-8101,477,0,-7,1,0
159574,-63,-8083,466,0,-6,1,0
159579,-43,-8077,464,0,-6,1,0
159584,-20,-8081,465,0,-6,0,0
159589,-6,-8091,462,0,-6,0,0
159594,-10,-8100,449,0,-5,0,0
159599,-18,-8104,430,0,-4,0,0
159604,-19,-8109,419,0,-3,0,0
159609,-7,-8118,425,0,-4,0,0
159614,19,-8123,441,0,-5,0,0
159619,51,-8121,468,0,-7,-1,0
159624,74,-8114,492,0,-9,-1,0
159629,86,-8105,496,0,-11,-1,0
159634,89,-8100,482,-1,-12,-1,0
159639,88,-8097,463,-1,-14,-2,0
159644,91,-8096,449,-1,-15,-2,0
159649,97,-8098,436,-1,-15,-2,0
159654,105,-8107,434,-1,-15,-2,0
159659,113,-8119,426,-1,-15,-3,0
159664,113,-8134,419,-1,-15,-3,0
159669,100,-8149,398,-1,-15,-3,0
159674,83,-8165,374,-1,-14,-3,0
159679,57,-8180,349,-1,-13,-4,0
159684,25,-8196,323,-2,-11,-4,0
159689,-1,-8211,297,-2,-8,-4,0
159694,-11,-8222,276,-2,-5,-5,0
159699,-3,-8236,263,-2,-2,-5,0
159704,10,-8245,257,-2,-1,-5,0
159709,30,-8250,261,-2,0,-5,0
159714,54,-8246,266,-2,0,-6,0
159719,76,-8243,268,-2,-1,-6,0
159724,92,-8242,262,-2,-2,-6,0
159729,100,-8246,252,-2,-3,-6,0
159734,104,-8254,241,-3,-4,-6,0
159739,107,-8266,219,-3,-4,-6,0
159744,108,-8281,200,-3,-5,-6,0
159749,107,-8292,191,-3,-5,-6,0
159754,97,-8301,192,-3,-5,-6,0
159759,118,-8934,203,-3,-5,-6,0
159764,436,-8903,99,-4,1,-8,0
159769,141,-8809,87,-3,-8,-6,0
159774,-140,-8731,227,-3,-11,-7,0
159779,-531,-8628,355,-3,-3,-4,0
159784,-806,-8552,481,-2,-4,-2,0
159789,-815,-8525,504,-2,-4,-2,0
159794,-770,-8484,431,-1,-5,-1,0
159799,-659,-8402,348,-1,-1,-1,0
159804,-467,-8339,256,-1,1,0,0
159809,-289,-8278,214,-1,-1,-1,0
159814,-322,-8263,253,-1,-1,0,0
159819,-472,-8260,366,0,-2,0,0
159824,-524,-8252,439,0,-1,0,0
159829,-522,-8245,442,0,-1,1,0
159834,-520,-8244,441,1,-1,2,0
159839,-429,-8244,393,1,1,2,0
159844,-315,-8243,313,1,1,1,0
159849,-246,-8246,253,1,0,2,0
159854,-206,-8250,201,1,1,1,0
159859,-166,-8252,155,1,2,1,0
159864,-130,-8252,138,0,2,1,0
159869,-121,-8252,151,0,2,1,0
159874,-111,-8249,177,0,3,0,0
159879,-119,-8250,214,0,4,0,0
159884,-145,-8248,256,1,4,0,0
159889,-183,-8247,275,1,4,1,0
159894,-217,-8245,291,1,5,1,0
159899,-226,-8244,295,1,5,1,0
159904,-204,-8244,292,1,5,1,0
159909,-153,-8244,293,1,5,1,0
159914,-100,-8242,290,1,4,1,0
159919,-65,-8243,283,1,4,1,0
159924,-34,-8244,289,1,3,1,0
159929,-34,-8244,297,1,3,1,0
159934,-51,-8241,305,1,3,1,0
159939,-56,-8241,328,1,3,1,0
159944,-65,-8239,342,1,3,1,0
159949,-71,-8239,367,1,3,1,0
159954,-72,-8240,371,1,2,1,0
159959,-78,-8240,371,1,2,1,0
159964,-82,-8240,366,1,2,1,0
159969,-82,-8243,357,1,2,1,0
159974,-81,-8242,350,1,2,1,0
159979,-74,-8244,356,1,2,1,0
159984,-66,-8245,379,1,1,1,0
159989,-71,-8246,404,1,1,1,0
159994,-81,-8247,434,1,0,1,0
159999,-97,-8243,462,0,-1,1,0
160004,-123,-8247,485,1,-1,1,0
160009,-148,-8250,500,1,-2,1,0
160014,-164,-8253,510,1,-2,1,0
160019,-184,-8256,514,1,-2,1,0
160024,-196,-8256,512,0,-3,1,0
160029,-210,-8253,515,0,-3,1,0
160034,-230,-8252,519,0,-3,1,0
160039,-249,-8249,514,0,-3,1,0
160044,-277,-8247,516,0,-2,0,0
160049,-299,-8246,523,0,-2,0,0
160054,-312,-8246,520,0,-1,0,0
160059,-328,-8245,525,0,-1,0,0
160064,-348,-8245,527,0,-1,0,0
160069,-367,-8244,520,0,-1,0,0
160074,-398,-8243,528,0,-2,0,0
160079,-423,-8244,527,0,-2,0,0
160084,-433,-8244,522,0,-3,0,0
160089,-437,-8243,530,0,-3,0,0
160094,-428,-8243,524,0,-3,0,0
160099,-410,-8244,513,0,-3,0,0
160104,-399,-8242,505,0,-3,0,0
160109,-384,-8241,482,0,-3,0,0
160114,-369,-8241,471,0,-3,0,0
160119,-361,-8240,468,0,-3,0,0
160124,-347,-8239,456,0,-3,0,0
160129,-337,-8237,457,0,-3,-1,0
160134,-339,-8236,462,0,-3,-1,0
160139,-335,-8236,459,0,-2,-1,0
160144,-333,-8238,460,0,-2,-1,0
160149,-326,-8242,459,0,-2,-1,0
160154,-308,-8242,457,0,-2,-1,0
160159,-294,-8243,466,0,-2,-1,0
160164,-282,-8244,463,0,-1,-1,0
160169,-270,-8243,460,0,-1,-1,0
160174,-260,-8243,465,0,-1,-1,0
160179,-251,-8246,460,0,-1,-1,0
160184,-234,-8244,460,0,-1,-1,0
160189,-220,-8243,464,0,-1,-1,0
160194,-208,-8241,465,0,-1,-1,0
160199,-194,-8241,464,0,-1,-1,0
160204,-183,-8240,471,0,-1,-1,0
160209,-168,-8240,471,0,-1,-1,0
160214,-148,-8241,468,0,-1,-1,0
160219,-131,-8242,472,0,-1,-1,0
160224,-117,-8243,464,0,-1,-1,0
160229,-110,-8243,459,0,-2,-1,0
160234,-106,-8241,455,0,-2,-1,0
160239,-100,-8239,447,0,-3,0,0
160244,-93,-8240,449,0,-3,0,0
160249,-89,-8242,456,0,-3,0,0
160254,-84,-8243,455,0,-3,0,0
160259,-79,-8243,453,0,-3,0,0
160264,-78,-8244,451,0,-3,0,0
160269,-75,-8247,449,0,-3,0,0
160274,-73,-8248,450,0,-3,0,0
160279,-78,-8245,452,0,-3,0,0
160284,-84,-8242,454,0,-3,0,0
160289,-100,-8238,458,0,-3,0,0
160294,-122,-8239,461,0,-3,0,0
160299,-145,-8238,461,0,-3,0,0
160304,-168,-8238,455,0,-2,0,0
160309,-184,-8240,458,0,-1,0,0
160314,-197,-8241,455,0,-1,0,0
160319,-210,-8240,453,0,0,0,0
160324,-217,-8242,455,0,0,0,0
160329,-222,-8243,459,0,0,0,0
160334,-224,-8245,466,0,0,0,0
160339,-221,-8244,477,0,-1,-1,0
160344,-223,-8240,479,0,-1,-1,0
160349,-230,-8239,485,0,-1,-1,0
160354,-237,-8238,489,0,-1,-1,0
160359,-245,-8237,488,0,-1,-1,0
160364,-246,-8239,493,0,-1,-1,0
160369,-247,-8241,489,0,-2,-1,0
160374,-249,-8243,482,0,-2,-1,0
160379,-252,-8244,481,0,-2,-1,0
160384,-255,-8242,480,0,-1,-1,0
160389,-253,-8239,477,0,-1,-1,0
160394,-247,-8237,484,0,-1,-1,0
160399,-239,-8234,486,0,-1,-1,0
160404,-231,-8234,491,0,-1,-1,0
160409,-225,-8234,496,-1,-1,-1,0
160414,-220,-8237,496,0,-1,-1,0
160419,-214,-8242,496,0,-1,-1,0
160424,-211,-8244,504,-1,-1,-1,0
160429,-205,-8245,503,-1,-2,-1,0
160434,-195,-8243,503,-1,-2,-1,0
160439,-187,-8243,510,-1,-2,-1,0
160444,-179,-8245,510,-1,-2,-1,0
160449,-172,-8242,516,-1,-3,-1,0
160454,-163,-8240,526,-1,-3,-1,0
160459,-153,-8243,518,-1,-3,-1,0
160464,-144,-8240,516,-1,-4,-1,0
160469,-141,-8240,514,-1,-4,-1,0
160474,-138,-8240,504,-1,-4,-1,0
160479,-138,-8239,503,-1,-5,-1,0
160484,-138,-8240,497,-1,-5,-1,0
160489,-134,-8241,488,-1,-5,-1,0
160494,-129,-8240,485,-1,-5,-1,0
160499,-129,-8241,480,-1,-4,-1,0
160504,-132,-8243,462,-1,-4,-1,0
160509,-138,-8243,454,-1,-3,-1,0
160514,-141,-8245,444,-1,-2,-1,0
160519,-141,-8243,426,-1,-2,-1,0
160524,-141,-8244,424,-1,-2,-1,0
160529,-142,-8244,424,-1,-2,-1,0
160534,-139,-8243,423,-1,-1,-1,0
160539,-131,-8241,424,-1,-1,-1,0
160544,-120,-8239,422,-1,-2,-1,0
160549,-112,-8240,420,-1,-2,-1,0
160554,-112,-8240,415,-1,-3,-1,0
160559,-114,-8242,406,-1,-3,-1,0
160564,-116,-8243,399,-1,-3,-1,0
160569,-119,-8244,390,-1,-3,-1,0
160574,-119,-8241,381,-1,-3,-1,0
160579,-114,-8243,370,-1,-3,-1,0
160584,-110,-8244,364,0,-3,-1,0
160589,-105,-8245,357,0,-3,-1,0
160594,-102,-8245,351,0,-3,-1,0
160599,-104,-8245,350,0,-3,-1,0
160604,-108,-8246,351,0,-3,-1,0
160609,-114,-8247,352,0,-3,-1,0
160614,-122,-8247,354,0,-2,-1,0
160619,-130,-8247,348,0,-2,-1,0
160624,-136,-8246,348,0,-1,-1,0
160629,-140,-8244,349,0,-1,-1,0
160634,-144,-8243,349,0,-1,-1,0
160639,-146,-8242,353,0,-1,-1,0
160644,-147,-8246,365,0,-1,-1,0
160649,-142,-8248,370,0,-1,-1,0
160654,-139,-8246,380,0,-1,-1,0
160659,-140,-8247,390,0,-1,-1,0
160664,-144,-8246,398,0,-1,-1,0
160669,-149,-8245,402,0,-1,-1,0
160674,-159,-8242,408,0,0,-1,0
160679,-165,-8240,409,0,0,-1,0
160684,-172,-8242,408,0,0,-1,0
160689,-177,-8244,414,0,0,-1,0
160694,-179,-8242,420,0,0,-1,0
160699,-176,-8243,429,0,0,-1,0
160704,-172,-8245,431,0,0,-1,0
160709,-166,-8246,436,0,0,-1,0
160714,-165,-8244,447,0,0,-1,0
160719,-168,-8244,453,0,0,-1,0
160724,-168,-8242,452,0,0,-1,0
160729,-169,-8242,454,0,0,-1,0
160734,-176,-8240,450,0,0,-1,0
160739,-180,-8239,442,0,0,-1,0
160744,-181,-8240,445,0,0,-1,0
160749,-177,-8241,445,0,0,-1,0
160754,-167,-8242,447,0,0,-1,0
160759,-158,-8239,457,0,0,-1,0
160764,-146,-8238,468,0,0,-1,0
160769,-136,-8238,477,0,-1,-1,0
160774,-131,-8237,486,0,-1,-1,0
160779,-130,-8240,487,0,-1,-1,0
160784,-130,-8240,484,0,-1,-1,0
160789,-132,-8241,481,0,-1,-1,0
160794,-136,-8242,478,0,-1,-1,0
160799,-135,-8244,472,0,-1,-1,0
160804,-135,-8246,472,0,-1,-1,0
160809,-133,-8246,474,0,-1,-1,0
160814,-126,-8247,476,0,-1,-1,0
160819,-121,-8249,484,0,-1,-1,0
160824,-116,-8246,480,0,-1,-1,0
160829,-113,-8243,482,0,-1,-1,0
160834,-110,-8241,481,0,-1,-1,0
160839,-108,-8240,483,0,-1,-1,0
160844,-109,-8238,483,0,-1,-1,0
160849,-109,-8241,483,0,-1,-1,0
160854,-110,-8241,487,0,-1,-1,0
160859,-111,-8241,488,0,-1,-1,0
160864,-111,-8240,486,0,-1,-1,0
160869,-111,-8240,483,0,0,-1,0
160874,-113,-8241,486,0,0,-1,0
160879,-114,-8243,487,0,0,-1,0
160884,-117,-8243,488,0,0,-1,0
160889,-121,-8244,491,0,0,-1,0
160894,-125,-8245,493,0,0,-1,0
160899,-125,-8243,496,0,0,-1,0
160904,-126,-8240,501,0,0,-1,0
160909,-124,-8239,502,0,-1,-1,0
160914,-116,-8240,502,0,-1,0,0
160919,-109,-8243,505,0,-1,0,0
160924,-101,-8242,510,0,-1,-1,0
160929,-99,-8242,512,0,-1,0,0
160934,-100,-8243,516,0,-1,0,0
160939,-107,-8240,507,0,-1,0,0
160944,-112,-8238,508,0,-1,0,0
160949,-115,-8236,505,0,-1,0,0
160954,-116,-8234,501,0,-1,0,0
160959,-114,-8236,499,0,-2,0,0
160964,-115,-8237,499,0,-2,0,0
160969,-118,-8237,496,0,-2,0,0
160974,-118,-8239,497,0,-2,0,0
160979,-123,-8241,493,0,-2,0,0
160984,-128,-8245,489,0,-2,-1,0
160989,-137,-8244,487,0,-1,-1,0
160994,-145,-8245,482,0,-1,0,0
160999,-153,-8244,469,0,-1,0,0
161004,-161,-8243,458,0,-1,0,0
161009,-171,-8245,454,0,-1,0,0
161014,-177,-8247,454,0,-1,0,0
161019,-179,-8245,459,0,-1,-1,0
161024,-183,-8244,460,0,-1,-1,0
161029,-183,-8245,458,0,-1,-1,0
161034,-184,-8246,464,0,-2,-1,0
161039,-186,-8247,467,0,-2,-1,0
161044,-189,-8248,463,0,-1,-1,0
161049,-191,-8249,460,0,-1,-1,0
161054,-190,-8248,451,0,-1,-1,0
161059,-190,-8248,442,0,-1,-1,0
161064,-189,-8247,439,0,-1,-1,0
161069,-187,-8246,437,0,0,-1,0
161074,-186,-8246,433,0,0,-1,0
161079,-188,-8245,436,0,0,-1,0
161084,-190,-8245,437,0,0,-1,0
161089,-189,-8243,441,0,0,-1,0
161094,-190,-8242,449,0,0,-1,0
161099,-191,-8243,454,0,0,-1,0
161104,-190,-8240,460,0,0,-1,0
161109,-187,-8240,471,0,-1,-1,0
161114,-182,-8239,476,0,-1,-1,0
161119,-172,-8238,476,0,-1,-1,0
161124,-165,-8237,480,0,-1,-1,0
161129,-161,-8239,475,0,-1,-1,0
161134,-156,-8240,471,0,-1,-1,0
161139,-155,-8238,466,0,-1,-1,0
161144,-161,-8239,465,0,-1,-1,0
161149,-166,-8240,464,0,-1,-1,0
161154,-173,-8238,463,0,-1,-1,0
161159,-175,-8240,461,0,0,-1,0
161164,-176,-8243,461,0,0,-1,0
161169,-176,-8243,467,0,0,-1,0
161174,-172,-8245,469,0,0,-1,0
161179,-166,-8244,466,0,0,-1,0
161184,-161,-8245,464,0,0,-1,0
161189,-158,-8243,461,0,0,-1,0
161194,-154,-8241,458,0,0,-1,0
161199,-148,-8240,456,0,0,-1,0
161204,-143,-8239,452,0,0,-1,0
161209,-134,-8239,454,0,0,-1,0
161214,-124,-8240,460,0,0,-1,0
161219,-113,-8244,458,0,0,-1,0
161224,-108,-8246,462,0,0,-1,0
161229,-104,-8245,454,0,0,-1,0
161234,-107,-8246,452,0,0,-1,0
161239,-106,-8245,451,0,1,-1,0
161244,-104,-8247,451,0,1,-1,0
161249,-104,-8249,449,0,1,-1,0
161254,-108,-8249,453,0,1,-1,0
161259,-108,-8247,452,0,1,-1,0
161264,-105,-8245,454,0,1,-1,0
161269,-105,-8242,463,0,1,-1,0
161274,-110,-8241,465,0,1,-1,0
161279,-112,-8242,468,0,1,-1,0
161284,-111,-8243,471,0,1,-1,0
161289,-114,-8244,473,0,1,-1,0
161294,-119,-8242,476,0,1,-1,0
161299,-128,-8241,479,0,1,-1,0
161304,-133,-8244,485,0,1,-1,0
161309,-141,-8241,487,0,1,-1,0
161314,-152,-8240,485,0,1,-1,0
161319,-160,-8240,485,0,1,-1,0
161324,-165,-8237,480,0,1,-1,0
161329,-169,-8238,477,0,1,-1,0
161334,-177,-8235,476,0,1,-1,0
161339,-181,-8239,475,0,1,-1,0
161344,-186,-8239,478,0,2,-1,0
161349,-186,-8239,486,0,2,-1,0
161354,-187,-8239,492,0,3,-1,0
161359,-187,-8241,499,0,3,-1,0
161364,-189,-8243,504,0,3,-1,0
161369,-194,-8244,510,0,3,-1,0
161374,-203,-8242,508,0,3,-1,0
161379,-216,-8241,503,0,3,-1,0
161384,-229,-8239,503,0,3,-1,0
161389,-246,-8238,499,0,3,-1,0
161394,-262,-8237,494,0,2,-1,0
161399,-284,-8237,490,0,2,-1,0
161404,-306,-8237,483,0,2,-1,0
161409,-327,-8233,475,0,2,-2,0
161414,-344,-8232,468,0,2,-2,0
161419,-357,-8232,457,0,2,-2,0
161424,-374,-8236,437,0,3,-2,0
161429,-397,-8236,408,0,5,-2,0
161434,-423,-8238,371,0,7,-2,0
161439,-443,-8243,335,0,10,-2,0
161444,-458,-8243,302,0,12,-2,0
161449,-458,-8245,269,0,12,-2,0
161454,-437,-8244,252,0,12,-2,0
161459,-407,-8246,256,0,11,-2,0
161464,-366,-8248,264,0,9,-2,0
161469,-317,-8249,289,0,7,-2,0
161474,-274,-8248,318,0,5,-2,0
161479,-238,-8244,344,0,3,-3,0
161484,-214,-8242,357,1,1,-3,0
161489,-201,-8242,354,1,-1,-3,0
161494,-203,-8242,335,1,-3,-3,0
161499,-214,-8242,310,1,-5,-3,0
161504,-230,-8241,283,1,-6,-3,0
161509,-249,-8242,256,1,-6,-3,0
161514,-269,-8242,241,1,-6,-3,0
161519,-293,-8243,230,1,-5,-3,0
161524,-314,-8243,224,1,-3,-3,0
161529,-327,-8243,220,1,-1,-3,0
161534,-334,-8243,214,1,-1,-3,0
161539,-334,-8242,214,1,-1,-3,0
161544,-328,-8242,223,1,-2,-3,0
161549,-316,-8242,232,1,-3,-3,0
161554,-300,-8241,249,1,-5,-3,0
161559,-288,-8239,273,2,-6,-4,0
161564,-276,-8238,298,2,-7,-4,0
161569,-265,-8235,323,2,-8,-4,0
161574,-260,-8231,345,2,-9,-4,0
161579,-255,-8231,355,2,-10,-4,0
161584,-252,-8229,351,2,-11,-4,0
161589,-247,-8228,352,2,-12,-4,0
161594,-249,-8229,352,2,-13,-4,0
161599,-252,-8230,348,2,-12,-4,0
161604,-254,-8234,347,2,-11,-4,0
161609,-254,-8234,349,2,-9,-4,0
161614,-243,-8234,358,2,-7,-4,0
161619,-223,-8232,372,2,-7,-4,0
161624,-198,-8231,387,2,-7,-4,0
161629,-167,-8232,406,2,-8,-4,0
161634,-134,-8233,435,2,-9,-4,0
161639,-98,-8237,462,2,-10,-4,0
161644,-65,-8242,485,2,-11,-4,0
161649,-39,-8240,507,2,-12,-4,0
161654,-22,-8239,525,2,-13,-4,0
161659,-17,-8240,542,2,-14,-4,0
161664,-19,-8238,551,2,-14,-4,0
161669,-21,-8241,551,2,-14,-4,0
161674,-22,-8244,557,2,-14,-4,0
161679,-21,-8245,567,2,-15,-4,0
161684,-14,-8244,577,2,-15,-4,0
161689,0,-8242,589,2,-14,-4,0
161694,19,-8242,608,2,-13,-4,0
161699,44,-8241,621,2,-12,-4,0
161704,73,-8238,628,2,-11,-4,0
161709,99,-8234,640,2,-10,-4,0
161714,125,-8234,645,2,-9,-4,0
161719,146,-8238,643,2,-8,-4,0
161724,167,-8243,652,2,-7,-4,0
161729,186,-8244,663,2,-6,-4,0
161734,203,-8247,672,1,-6,-4,0
161739,220,-8248,683,1,-5,-4,0
161744,238,-8246,698,1,-5,-4,0
161749,253,-8248,715,1,-4,-4,0
161754,268,-8247,733,1,-3,-4,0
161759,280,-8247,750,1,-3,-3,0
161764,290,-8246,761,1,-2,-3,0
161769,295,-8244,774,1,-2,-3,0
161774,292,-8246,792,1,-1,-3,0
161779,284,-8245,798,1,0,-3,0
161784,273,-8246,809,1,0,-3,0
161789,260,-8246,815,1,1,-3,0
161794,247,-8247,822,1,2,-3,0
161799,243,-8246,835,1,3,-3,0
161804,242,-8246,850,1,3,-3,0
161809,244,-8245,865,1,3,-3,0
161814,249,-8243,881,0,3,-3,0
161819,262,-8243,884,0,3,-3,0
161824,273,-8245,899,0,3,-3,0
161829,282,-8245,909,0,2,-3,0
161834,290,-8248,920,0,2,-3,0
161839,299,-8248,927,0,2,-3,0
161844,306,-8247,936,0,2,-3,0
161849,308,-8246,941,0,2,-3,0
161854,309,-8246,943,0,3,-3,0
161859,313,-8246,941,0,4,-3,0
161864,317,-8243,936,0,4,-2,0
161869,323,-8240,941,-1,5,-2,0
161874,331,-8242,942,-1,5,-2,0
161879,347,-8242,947,-1,5,-2,0
161884,363,-8243,961,-1,5,-2,0
161889,387,-8244,976,-1,4,-2,0
161894,416,-8244,997,-1,4,-2,0
161899,431,-8243,1008,-1,3,-2,0
161904,442,-8244,1010,-1,2,-2,0
161909,454,-8244,1012,-1,2,-2,0
161914,467,-8245,1008,-1,1,-2,0
161919,477,-8247,1005,-2,1,-1,0
161924,484,-8249,1003,-2,0,-1,0
161929,490,-8248,997,-2,-1,-1,0
161934,498,-8248,993,-2,-2,-1,0
161939,504,-8251,993,-2,-2,-1,0
161944,506,-8255,987,-2,-1,-1,0
161949,504,-8257,981,-2,-1,-1,0
161954,501,-8256,975,-2,0,-1,0
161959,496,-8257,968,-2,0,-1,0
161964,490,-8257,957,-2,0,-1,0
161969,482,-8253,947,-3,1,0,0
161974,477,-8250,939,-3,2,0,0
161979,467,-8247,931,-3,3,0,0
161984,450,-8249,921,-3,4,0,0
161989,424,-8249,913,-3,6,0,0
161994,398,-8250,905,-3,7,0,0
161999,371,-8254,911,-3,8,0,0
162004,346,-8258,917,-3,7,0,0
162009,334,-8256,925,-3,6,0,0
162014,324,-8253,944,-3,5,0,0
162019,315,-8252,959,-4,3,0,0
162024,305,-8249,969,-4,3,0,0
162029,295,-8246,968,-4,2,0,0
162034,283,-8245,958,-4,2,0,0
162039,268,-8244,939,-4,1,0,0
162044,250,-8244,915,-4,0,0,0
162049,231,-8242,886,-4,-2,0,0
162054,216,-8241,854,-4,-3,0,0
162059,203,-8244,824,-4,-4,0,0
162064,200,-8246,786,-4,-5,0,0
162069,207,-8249,750,-4,-5,0,0
162074,221,-8248,705,-4,-6,0,0
162079,234,-8245,651,-4,-6,0,0
162084,247,-8246,593,-4,-7,0,0
162089,256,-8248,534,-4,-7,0,0
162094,254,-8246,467,-4,-6,0,0
162099,248,-8248,401,-4,-6,0,0
162104,232,-8249,339,-3,-5,0,0
162109,209,-8252,280,-3,-4,0,0
162114,185,-8254,227,-3,-2,0,0
162119,173,-8258,179,-3,0,0,0
162124,153,-8260,137,-3,1,0,0
162129,127,-8258,103,-3,2,0,0
162134,110,-8255,83,-3,4,0,0
162139,92,-8254,68,-2,4,0,0
162144,69,-8253,62,-2,5,0,1
162149,45,-8252,62,-2,5,0,1
162154,25,-8252,64,-2,6,0,1
162159,16,-8253,68,-2,7,0,1
162164,16,-8257,76,-2,8,0,1
162169,28,-8259,74,-2,8,0,1
162174,50,-8259,72,-1,9,0,1
162179,79,-8258,70,-1,9,0,1
162184,114,-8258,68,-1,9,0,1
162189,153,-8256,65,-1,9,0,1
162194,190,-8255,68,-1,8,0,1
162199,244,-8257,65,-1,8,0,1
162204,297,-8255,55,-1,9,0,1
162209,342,-8255,32,0,9,0,1
162214,391,-8255,-3,0,9,0,1
162219,443,-8256,-41,0,10,0,1
162224,496,-8255,-91,0,10,0,1
162229,551,-8258,-140,0,11,1,1
162234,610,-8257,-188,1,11,1,1
162239,676,-8256,-233,1,11,1,1
162244,737,-8255,-272,1,11,2,1
162249,798,-8254,-301,1,12,2,1
162254,855,-8254,-334,2,12,2,1
162259,910,-8256,-362,2,12,2,1
162264,957,-8256,-382,2,12,3,1
162269,1002,-8254,-410,3,12,3,1
162274,1044,-8253,-431,3,13,3,1
162279,1076,-8250,-450,3,13,4,1
162284,1101,-8249,-472,4,14,4,1
162289,1129,-8246,-485,4,14,4,1
162294,1150,-8242,-502,4,15,5,1
162299,1168,-8240,-513,4,17,5,1
162304,1187,-8239,-511,5,18,6,1
162309,1207,-8238,-507,5,20,6,1
162314,1231,-8234,-494,5,22,6,1
162319,1265,-8232,-468,5,24,7,1
162324,1305,-8228,-433,5,26,7,1
162329,1349,-8222,-389,6,27,8,1
162334,1394,-8217,-332,6,28,8,1
162339,1438,-8213,-272,6,29,9,1
162344,1477,-8209,-197,6,29,9,1
162349,1509,-8205,-124,6,28,10,1
162354,1545,-8197,-56,6,27,10,1
162359,1612,-8189,-27,7,25,11,1
162364,1729,-8179,-61,7,22,12,1
162369,1831,-8191,-40,8,20,13,1
162374,1716,-8208,230,6,16,12,1
162379,1650,-8204,358,4,14,11,1
162384,1657,-8183,498,4,16,11,1
162389,1582,-8167,749,4,15,12,1
162394,1456,-8155,958,5,14,13,1
162399,1413,-8141,1078,5,17,14,1
162404,1413,-8134,1209,5,18,15,1
162409,1393,-8133,1285,5,18,16,1
162414,1426,-8132,1255,5,18,17,1
162419,1493,-8132,1251,5,18,17,1
162424,1534,-8130,1252,4,17,17,1
162429,1545,-8126,1287,3,16,18,1
162434,1524,-8114,1412,2,16,18,1
162439,1461,-8099,1569,2,16,18,1
162444,1367,-8087,1751,2,15,19,1
162449,1257,-8075,1938,1,14,19,1
162454,1151,-8065,2065,1,12,20,1
162459,1065,-8061,2150,1,9,20,1
162464,1005,-8058,2172,1,6,21,1
162469,956,-8055,2146,0,4,21,1
162474,898,-8052,2119,-1,2,21,1
162479,831,-8049,2097,-2,1,21,1
162484,745,-8043,2116,-2,1,21,1
162489,638,-8032,2180,-3,0,21,1
162494,515,-8019,2258,-3,-1,22,1
162499,395,-8009,2335,-4,-1,22,1
162504,295,-8002,2391,-4,-2,22,1
162509,217,-7997,2401,-4,-3,22,1
162514,173,-7995,2368,-4,-4,23,1
162519,153,-7995,2305,-5,-4,22,1
162524,129,-7992,2236,-6,-5,22,1
162529,85,-7985,2180,-6,-6,22,1
162534,0,-7979,2162,-7,-6,22,1
162539,-134,-7971,2189,-7,-6,22,1
162544,-300,-7963,2243,-8,-6,22,1
162549,-487,-7954,2309,-8,-7,22,1
162554,-661,-7945,2375,-8,-8,22,1
162559,-787,-7942,2433,-9,-9,22,1
162564,-842,-7937,2463,-9,-10,23,1
162569,-878,-7926,2438,-10,-11,23,1
162574,-978,-7923,2321,-10,-13,22,1
162579,-1020,-7920,2247,-10,-13,21,1
162584,-1078,-7917,2193,-11,-12,20,1
162589,-1217,-7912,2135,-12,-13,20,1
162594,-1376,-7909,2129,-12,-12,20,1
162599,-1525,-7902,2172,-13,-10,20,1
162604,-1670,-7898,2239,-13,-9,20,1
162609,-1770,-7894,2321,-14,-9,20,1
162614,-1823,-7889,2402,-14,-10,20,1
162619,-1845,-7885,2468,-15,-12,19,1
162624,-1858,-7881,2513,-15,-15,19,1
162629,-1884,-7877,2523,-16,-18,19,1
162634,-1938,-7875,2515,-16,-20,18,1
162639,-2014,-7872,2497,-17,-22,17,1
162644,-2102,-7869,2471,-17,-22,17,1
162649,-2201,-7862,2445,-18,-21,16,1
162654,-2305,-7852,2404,-19,-21,16,1
162659,-2403,-7849,2361,-19,-21,16,1
162664,-2484,-7846,2324,-20,-21,16,1
162669,-2549,-7841,2287,-20,-20,15,1
162674,-2603,-7837,2250,-21,-18,15,1
162679,-2636,-7832,2223,-21,-16,15,1
162684,-2663,-7825,2204,-22,-14,14,1
162689,-2703,-7820,2201,-22,-14,13,1
162694,-2760,-7813,2206,-23,-16,13,1
162699,-2845,-7805,2213,-23,-17,12,1
162704,-2945,-7798,2216,-24,-17,12,1
162709,-3035,-7790,2202,-24,-17,11,1
162714,-3119,-7782,2182,-25,-17,11,1
162719,-3201,-7776,2154,-25,-18,10,1
162724,-3281,-7770,2105,-25,-19,9,1
162729,-3373,-7764,2055,-26,-20,8,1
162734,-3483,-7761,1998,-26,-21,8,1
162739,-3617,-7759,1928,-27,-21,7,1
162744,-3784,-7760,1847,-27,-20,6,1
162749,-3970,-7759,1743,-28,-16,6,1
162754,-4158,-7757,1620,-28,-11,5,1
162759,-4326,-7754,1496,-28,-4,4,1
162764,-4446,-7752,1381,-29,0,3,1
162769,-4517,-7747,1280,-29,0,2,1
162774,-4553,-7741,1223,-30,-3,1,1
162779,-4565,-7734,1194,-30,-8,0,1
162784,-4573,-7725,1178,-31,-12,-1,1
162789,-4606,-7713,1168,-31,-16,-3,1
162794,-4681,-7700,1140,-31,-19,-4,1
162799,-4804,-7691,1072,-31,-20,-5,1
162804,-4954,-7683,965,-31,-20,-6,1
162809,-5101,-7676,833,-31,-21,-7,1
162814,-5209,-7672,687,-31,-24,-8,1
162819,-5259,-7665,532,-32,-28,-9,1
162824,-5244,-7656,378,-32,-32,-9,1
162829,-5168,-7645,243,-32,-36,-10,1
162834,-5058,-7635,122,-32,-39,-12,1
162839,-4963,-7622,5,-32,-41,-13,1
162844,-4936,-7611,-122,-32,-43,-15,1
162849,-5000,-7602,-281,-32,-42,-16,1
162854,-5134,-7596,-460,-31,-40,-17,1
162859,-5294,-7590,-647,-31,-36,-18,1
162864,-5418,-7585,-819,-31,-35,-18,1
162869,-5456,-7577,-952,-31,-36,-19,1
162874,-5386,-7567,-1037,-31,-42,-19,1
162879,-5217,-7557,-1067,-31,-49,-20,1
162884,-4989,-7545,-1058,-31,-56,-21,1
162889,-4765,-7532,-1046,-31,-62,-23,1
162894,-4609,-7519,-1064,-31,-69,-24,1
162899,-4569,-7510,-1144,-30,-73,-25,1
162904,-4636,-7503,-1290,-30,-75,-26,1
162909,-4765,-7496,-1499,-29,-75,-27,1
162914,-4894,-7491,-1752,-29,-77,-27,1
162919,-4980,-7486,-1997,-29,-79,-27,1
162924,-4980,-7483,-2230,-29,-80,-27,1
162929,-4860,-7477,-2414,-29,-78,-28,1
162934,-4631,-7468,-2538,-28,-76,-28,1
162939,-4347,-7457,-2608,-28,-77,-29,1
162944,-4074,-7448,-2666,-28,-81,-30,1
162949,-3870,-7439,-2726,-27,-86,-31,1
162954,-3759,-7437,-2797,-26,-91,-32,1
162959,-3740,-7436,-2909,-26,-95,-33,1
162964,-3770,-7437,-3058,-25,-98,-33,1
162969,-3796,-7436,-3230,-25,-99,-33,1
162974,-3777,-7434,-3398,-24,-100,-32,1
162979,-3698,-7431,-3559,-24,-101,-32,1
162984,-3564,-7428,-3734,-23,-99,-32,1
162989,-3381,-7429,-3918,-22,-95,-32,1
162994,-3178,-7431,-4116,-20,-89,-33,1
162999,-2956,-7442,-4374,-19,-85,-33,1
163004,-2726,-7455,-4651,-18,-81,-33,1
163009,-2512,-7475,-4916,-18,-79,-33,1
163014,-2327,-7489,-5123,-17,-78,-33,1
163019,-2134,-7498,-5326,-17,-77,-33,1
163024,-1898,-7509,-5507,-15,-75,-33,1
163029,-1650,-7519,-5598,-14,-75,-33,1
163034,-1427,-7535,-5665,-12,-79,-32,1
163039,-1211,-7557,-5725,-11,-84,-32,1
163044,-986,-7572,-5750,-10,-88,-32,1
163049,-811,-7587,-5804,-10,-92,-32,1
163054,-723,-7600,-5859,-8,-89,-32,1
163059,-700,-7618,-5944,-6,-76,-32,1
163064,-692,-7637,-6068,-5,-59,-32,1
163069,-665,-7657,-6188,-3,-45,-32,1
163074,-610,-7673,-6306,-2,-36,-32,1
163079,-513,-7690,-6352,-1,-31,-31,1
163084,-371,-7701,-6279,-1,-28,-30,1
163089,-192,-7711,-6088,0,-27,-29,1
163094,31,-7720,-5791,1,-25,-29,1
163099,273,-7723,-5458,3,-24,-28,1
163104,501,-7728,-5145,4,-24,-28,1
163109,703,-7740,-4891,6,-25,-28,1
163114,875,-7757,-4720,7,-28,-28,1
163119,1010,-7777,-4608,7,-33,-27,1
163124,1096,-7799,-4493,7,-38,-27,1
163129,1122,-7816,-4320,7,-42,-27,1
163134,1086,-7828,-4066,7,-45,-27,1
163139,974,-7836,-3721,7,-43,-27,1
163144,836,-7840,-3316,7,-38,-27,1
163149,721,-7843,-2906,8,-30,-27,1
163154,632,-7849,-2546,8,-22,-26,1
163159,586,-7854,-2241,9,-17,-26,1
163164,593,-7865,-1988,9,-13,-25,1
163169,638,-7878,-1789,9,-10,-25,1
163174,693,-7894,-1600,8,-8,-24,1
163179,745,-7906,-1387,8,-4,-24,1
163184,783,-7914,-1126,7,1,-24,1
163189,794,-7919,-835,6,5,-24,1
163194,750,-7924,-477,6,12,-24,1
163199,737,-7932,-128,5,18,-24,1
163204,800,-7935,153,5,24,-23,1
163209,912,-7938,405,5,25,-22,1
163214,1061,-7947,585,5,24,-20,1
163219,1206,-7961,681,5,21,-18,1
163224,1445,-7970,754,5,20,-17,1
163229,1753,-7985,774,4,22,-16,1
163234,2065,-8002,787,3,24,-16,1
163239,2558,-8017,827,3,26,-16,1
163244,3284,-8030,914,2,30,-13,1
163249,3728,-8053,1071,1,29,-11,1
163254,4151,-8074,1096,0,24,-11,1
163259,4694,-8089,1149,-1,25,-11,1
163264,4848,-8107,1315,-1,19,-11,1
163269,4778,-8127,1348,-1,12,-11,1
163274,4557,-8138,1376,-1,9,-10,1
163279,4130,-8149,1402,-1,3,-8,1
163284,3718,-8164,1257,-1,1,-7,1
163289,3420,-8174,1083,-1,1,-5,1
163294,3183,-8180,904,-2,-1,-4,1
163299,3034,-8193,675,-2,-1,-3,1
163304,3052,-8202,443,-3,0,-2,1
163309,3071,-8211,248,-3,3,-2,1
163314,3013,-8216,78,-3,7,-3,1
163319,2915,-8217,-58,-3,13,-3,1
163324,2701,-8216,-163,-3,17,-3,1
163329,2390,-8215,-263,-3,20,-3,1
163334,2090,-8216,-364,-2,21,-2,1
163339,1842,-8217,-494,-2,22,-1,1
163344,1630,-8221,-637,-2,22,0,1
163349,1479,-8223,-781,-2,22,0,1
163354,1414,-8227,-935,-1,23,0,1
163359,1408,-8234,-1091,-1,23,0,1
163364,1426,-8237,-1200,-1,22,0,1
163369,1432,-8239,-1274,-1,21,0,1
163374,1384,-8239,-1311,-1,20,0,1
163379,1270,-8237,-1305,-1,18,-1,1
163384,1122,-8239,-1292,0,16,-1,1
163389,966,-8239,-1293,0,16,0,1
163394,813,-8236,-1301,0,15,0,1
163399,684,-8237,-1323,1,15,0,1
163404,589,-8239,-1350,1,16,0,1
163409,537,-8244,-1379,1,16,0,1
163414,504,-8245,-1394,1,15,0,1
163419,462,-8246,-1399,1,15,0,1
163424,410,-8245,-1387,1,16,0,1
163429,347,-8244,-1346,1,19,0,1
163434,276,-8247,-1290,1,22,-1,1
163439,205,-8245,-1238,2,23,-1,1
163444,137,-8246,-1178,2,23,-1,1
163449,80,-8247,-1125,2,23,-1,1
163454,41,-8248,-1089,2,22,-1,1
163459,23,-8250,-1046,2,20,-1,1
163464,37,-8251,-1010,2,19,-1,1
163469,74,-8250,-974,2,18,-1,1
163474,124,-8250,-936,2,16,-1,1
163479,181,-8249,-906,2,13,-1,1
163484,230,-8247,-886,2,12,-1,1
163489,268,-8246,-867,2,10,-1,1
163494,288,-8250,-842,2,8,-2,1
163499,289,-8250,-807,2,7,-2,1
163504,274,-8249,-766,2,7,-2,1
163509,260,-8250,-715,2,7,-2,1
163514,279,-8251,-673,2,8,-2,1
163519,268,-8249,-626,2,10,-1,1
163524,231,-8248,-582,2,11,-2,1
163529,223,-8248,-537,2,12,-2,1
163534,222,-8246,-506,2,12,-2,1
163539,218,-8244,-485,2,11,-2,1
163544,199,-8245,-463,2,11,-2,1
163549,202,-8245,-451,2,12,-2,1
163554,238,-8246,-441,2,12,-2,1
163559,284,-8245,-423,2,13,-2,1
163564,342,-8245,-412,2,12,-2,1
163569,409,-8243,-405,2,12,-2,1
163574,469,-8242,-406,2,11,-2,1
163579,525,-8242,-413,2,10,-2,1
163584,570,-8242,-415,1,10,-2,1
163589,603,-8244,-421,1,9,-2,1
163594,629,-8247,-432,1,7,-2,1
163599,644,-8246,-441,1,6,-2,1
163604,646,-8245,-461,1,5,-2,1
163609,649,-8244,-495,2,6,-1,1
163614,655,-8244,-530,2,7,-1,1
163619,666,-8244,-581,2,8,-1,1
163624,683,-8241,-638,2,9,-1,1
163629,698,-8241,-694,2,9,-1,1
163634,709,-8243,-755,2,9,-1,1
163639,720,-8243,-807,2,9,-1,1
163644,753,-8245,-837,2,9,-1,1
163649,779,-8246,-859,2,10,-1,1
163654,777,-8245,-867,2,10,-1,1
163659,765,-8243,-863,2,11,-1,1
163664,745,-8243,-866,3,12,-1,1
163669,702,-8244,-866,3,12,-1,1
163674,636,-8248,-852,3,12,-1,1
163679,561,-8249,-821,3,11,-1,1
163684,496,-8249,-776,3,10,-1,1
163689,447,-8250,-723,2,9,-1,1
163694,417,-8253,-659,2,8,-1,1
163699,400,-8254,-581,2,8,-1,1
163704,413,-8251,-500,2,6,-1,1
163709,444,-8250,-424,2,5,-1,1
163714,473,-8249,-357,2,4,-1,1
163719,493,-8250,-309,2,4,-1,1
163724,507,-8254,-284,2,5,-1,1
163729,502,-8253,-269,2,6,-1,1
163734,492,-8252,-256,2,6,-1,1
163739,488,-8253,-244,2,7,-1,1
163744,485,-8252,-216,2,6,-1,1
163749,492,-8249,-173,1,6,-1,1
163754,509,-8249,-122,1,5,-1,1
163759,537,-8249,-73,1,5,-1,1
163764,575,-8249,-27,1,4,-1,1
163769,617,-8251,24,1,3,-1,1
163774,658,-8250,60,1,2,-1,1
163779,688,-8251,74,1,0,-1,1
163784,705,-8252,77,1,-2,-1,1
163789,715,-8252,74,0,-3,-1,1
163794,712,-8250,53,0,-4,-1,1
163799,706,-8252,23,0,-5,-1,1
163804,700,-8254,-15,0,-5,-1,1
163809,692,-8251,-55,0,-5,-1,1
163814,686,-8251,-95,0,-4,-1,1
163819,685,-8249,-132,0,-4,-1,1
163824,681,-8250,-176,0,-3,0,1
163829,679,-8252,-217,0,-1,0,1
163834,682,-8251,-261,0,0,0,1
163839,688,-8251,-307,0,1,0,1
163844,692,-8255,-345,0,1,0,1
163849,694,-8256,-379,0,1,0,1
163854,696,-8257,-407,0,1,0,1
163859,700,-8256,-429,0,1,0,1
163864,694,-8253,-442,0,1,0,1
163869,687,-8253,-465,0,1,0,1
163874,681,-8255,-486,0,1,0,1
163879,671,-8257,-516,0,1,0,1
163884,660,-8257,-551,0,1,0,1
163889,653,-8259,-587,0,2,0,1
163894,640,-8259,-615,0,3,0,1
163899,624,-8260,-643,0,4,0,1
163904,606,-8261,-668,0,5,0,1
163909,587,-8260,-678,0,6,0,1
163914,577,-8257,-671,0,7,0,1
163919,571,-8257,-658,0,7,0,1
163924,563,-8257,-643,0,7,0,1
163929,561,-8256,-625,0,8,0,1
163934,563,-8257,-608,1,8,0,1
163939,563,-8257,-592,1,8,0,1
163944,566,-8257,-586,1,8,0,1
163949,569,-8259,-578,1,9,0,1
163954,575,-8259,-578,1,9,0,1
163959,576,-8258,-584,1,9,0,1
163964,573,-8258,-582,1,9,0,1
163969,568,-8256,-582,1,8,0,1
163974,557,-8258,-577,1,8,0,1
163979,538,-8255,-566,1,9,0,1
163984,522,-8257,-552,1,10,0,1
163989,505,-8256,-538,1,11,0,1
163994,494,-8257,-524,1,12,0,1
163999,487,-8260,-515,1,12,0,1
164004,484,-8261,-501,1,12,0,1
164009,485,-8259,-489,1,11,0,1
164014,494,-8258,-476,1,11,0,1
164019,506,-8261,-463,1,11,0,1
164024,521,-8259,-452,1,10,0,1
164029,538,-8260,-437,1,10,0,1
164034,554,-8259,-421,1,9,0,1
164039,567,-8261,-409,1,8,0,1
164044,580,-8261,-394,1,8,0,1
164049,593,-8261,-378,1,7,0,1
164054,606,-8261,-361,1,6,0,1
164059,618,-8260,-346,1,6,0,1
164064,624,-8257,-328,0,5,0,1
164069,627,-8257,-316,0,5,0,1
164074,627,-8260,-306,0,6,0,1
164079,623,-8261,-303,0,6,0,1
164084,618,-8260,-297,0,6,0,1
164089,611,-8261,-299,0,6,0,1
164094,601,-8263,-301,0,6,0,1
164099,590,-8264,-310,0,6,0,1
164104,578,-8265,-311,0,5,0,1
164109,564,-8266,-316,0,4,0,1
164114,553,-8266,-320,0,4,0,1
164119,547,-8264,-317,0,4,0,1
164124,545,-8264,-315,0,4,0,1
164129,548,-8264,-315,0,4,1,1
164134,548,-8263,-320,0,3,0,1
164139,551,-8261,-322,0,3,0,1
164144,546,-8262,-330,0,2,0,0
164149,540,-8260,-346,0,1,0,0
164154,532,-8260,-363,0,1,0,0
164159,524,-8261,-378,0,1,0,0
164164,516,-8261,-397,0,2,0,0
164169,505,-8261,-414,0,2,0,0
164174,496,-8260,-425,0,3,0,0
164179,495,-8260,-434,0,4,0,0
164184,495,-8263,-442,0,4,0,0
164189,496,-8266,-443,0,4,0,0
164194,498,-8268,-447,0,4,0,0
164199,497,-8268,-452,0,5,0,0
164204,498,-8267,-456,0,6,0,0
164209,495,-8263,-460,0,6,0,0
164214,492,-8262,-466,0,6,0,0
164219,492,-8264,-468,0,6,0,0
164224,503,-8264,-474,0,6,0,0
164229,508,-8265,-475,0,6,0,0
164234,496,-8261,-471,0,5,0,0
164239,484,-8263,-463,0,5,0,0
164244,477,-8264,-454,0,6,0,0
164249,462,-8263,-448,0,6,0,0
164254,452,-8266,-435,0,6,0,0
164259,447,-8266,-422,0,6,0,0
164264,445,-8265,-413,0,6,0,0
164269,443,-8267,-395,0,6,0,0
164274,449,-8266,-375,0,6,0,0
164279,461,-8265,-365,0,6,0,0
164284,473,-8267,-355,0,6,0,0
164289,483,-8267,-345,0,6,0,0
164294,493,-8270,-337,0,5,0,0
164299,500,-8268,-324,0,5,0,0
164304,508,-8266,-311,0,4,0,0
164309,510,-8266,-302,0,3,0,0
164314,510,-8266,-290,0,3,0,0
164319,507,-8264,-286,0,3,0,0
164324,502,-8264,-283,0,3,0,0
164329,496,-8265,-286,0,3,0,0
164334,494,-8265,-285,0,3,0,0
164339,493,-8263,-287,0,3,0,0
164344,498,-8262,-289,0,3,0,0
164349,503,-8264,-296,0,2,0,0
164354,504,-8264,-305,0,2,0,0
164359,506,-8264,-312,0,2,0,0
164364,503,-8265,-320,0,3,0,0
164369,504,-8263,-335,0,3,0,0
164374,510,-8263,-349,0,4,0,0
164379,516,-8262,-365,0,4,0,0
164384,520,-8265,-375,0,3,0,0
164389,527,-8264,-373,0,3,0,0
164394,535,-8265,-372,0,2,0,0
164399,541,-8264,-362,0,1,0,0
164404,547,-8263,-349,0,1,0,0
164409,552,-8262,-337,0,1,0,0
164414,555,-8261,-321,0,1,0,0
164419,560,-8260,-304,0,1,0,0
164424,560,-8260,-292,0,1,0,0
164429,557,-8261,-285,0,1,0,0
164434,556,-8261,-281,0,1,0,0
164439,551,-8262,-276,0,1,0,0
164444,544,-8261,-271,-1,0,0,0
164449,538,-8261,-268,-1,1,0,0
164454,531,-8261,-266,-1,1,0,0
164459,521,-8264,-267,-1,1,0,0
164464,510,-8267,-265,-1,1,0,0
164469,495,-8269,-257,-1,1,0,0
164474,476,-8269,-245,-1,0,0,0
164479,455,-8271,-233,-1,0,0,0
164484,439,-8271,-229,-1,0,0,0
164489,426,-8269,-227,-1,0,0,0
164494,413,-8271,-224,-1,0,0,0
164499,401,-8270,-225,-1,0,0,0
164504,392,-8272,-228,-1,0,0,0
164509,385,-8270,-232,-1,0,0,0
164514,380,-8270,-250,-1,0,0,0
164519,373,-8270,-269,-1,0,0,0
164524,370,-8271,-292,-1,0,0,0
164529,371,-8269,-314,-1,0,-1,0
164534,375,-8266,-334,-1,0,0,0
164539,380,-8266,-357,-1,0,-1,0
164544,387,-8267,-377,-1,0,-1,0
164549,395,-8264,-397,-1,0,-1,0
164554,405,-8266,-412,-1,1,-1,0
164559,416,-8265,-427,-1,1,-1,0
164564,424,-8266,-439,-1,2,-1,0
164569,432,-8265,-447,-1,2,-1,0
164574,440,-8264,-447,-1,2,-1,0
164579,448,-8265,-446,-1,2,-1,0
164584,459,-8263,-445,-1,2,-1,0
164589,472,-8267,-441,-1,2,-1,0
164594,487,-8267,-438,-1,2,-1,0
164599,507,-8267,-440,-1,3,-1,0
164604,528,-8263,-439,-1,3,-1,0
164609,547,-8262,-439,-1,2,-1,0
164614,563,-8264,-442,-1,2,-1,0
164619,575,-8266,-450,-1,2,-1,0
164624,587,-8262,-459,-1,3,-1,0
164629,595,-8258,-461,-1,3,-1,0
164634,601,-8258,-467,-1,3,-1,0
164639,610,-8257,-472,-1,3,-1,0
164644,613,-8254,-476,-1,3,0,0
164649,618,-8253,-474,-1,3,0,0
164654,619,-8254,-467,-1,3,0,0
164659,622,-8257,-459,-1,4,0,0
164664,624,-8262,-452,-1,4,0,0
164669,626,-8261,-448,-1,5,0,0
164674,629,-8261,-441,0,6,0,0
164679,638,-8262,-434,0,6,0,0
164684,652,-8263,-431,-1,5,0,0
164689,662,-8262,-430,0,3,0,0
164694,671,-8262,-428,0,2,0,0
164699,679,-8257,-424,-1,1,0,0
164704,686,-8254,-426,0,0,0,0
164709,693,-8253,-429,0,-1,0,0
164714,697,-8253,-434,0,-1,0,0
164719,698,-8255,-439,0,-2,0,0
164724,691,-8257,-454,0,-3,0,0
164729,674,-8257,-469,0,-3,0,0
164734,657,-8257,-484,0,-3,0,0
164739,639,-8254,-497,0,-2,0,0
164744,624,-8254,-510,0,-2,0,0
164749,611,-8255,-513,0,-2,0,0
164754,603,-8256,-511,0,-3,0,0
164759,598,-8257,-499,0,-3,0,0
164764,592,-8259,-485,0,-4,0,0
164769,590,-8257,-470,0,-4,1,0
164774,588,-8258,-455,0,-4,0,0
164779,584,-8258,-446,0,-4,0,0
164784,576,-8258,-439,0,-5,0,0
164789,564,-8259,-440,0,-5,1,0
164794,553,-8262,-445,0,-6,1,0
164799,542,-8262,-450,0,-6,1,0
164804,539,-8262,-460,0,-6,1,0
164809,540,-8262,-470,0,-5,1,0
164814,547,-8260,-471,0,-5,1,0
164819,557,-8261,-471,0,-5,1,0
164824,566,-8262,-468,0,-5,1,0
164829,573,-8261,-466,0,-5,1,0
164834,584,-8260,-460,0,-5,1,0
164839,592,-8260,-455,0,-5,1,0
164844,602,-8260,-450,0,-6,1,0
164849,612,-8260,-447,0,-6,1,0
164854,626,-8258,-445,0,-7,1,0
164859,641,-8257,-446,0,-8,1,0
164864,659,-8257,-452,0,-9,1,0
164869,679,-8257,-458,0,-10,1,0
164874,695,-8261,-467,0,-11,1,0
164879,701,-8264,-472,0,-12,1,0
164884,698,-8266,-481,0,-12,1,0
164889,684,-8268,-495,1,-12,1,0
164894,665,-8270,-505,1,-12,1,0
164899,649,-8271,-514,1,-12,1,0
164904,635,-8271,-522,1,-12,1,0
164909,624,-8268,-537,1,-11,2,0
164914,621,-8267,-549,1,-10,2,0
164919,621,-8271,-561,1,-9,2,0
164924,618,-8270,-563,1,-8,2,0
164929,609,-8267,-567,1,-7,2,0
164934,592,-8266,-571,1,-6,2,0
164939,566,-8265,-570,1,-6,2,0
164944,537,-8266,-561,1,-5,2,0
164949,504,-8265,-550,1,-5,2,0
164954,472,-8266,-536,1,-5,2,0
164959,447,-8266,-516,1,-4,2,0
164964,430,-8265,-497,1,-4,2,0
164969,424,-8265,-472,1,-4,2,0
164974,429,-8263,-443,1,-5,2,0
164979,436,-8264,-409,1,-6,2,0
164984,441,-8267,-377,1,-6,2,0
164989,446,-8268,-346,1,-7,2,0
164994,442,-8267,-311,1,-8,2,0
164999,434,-8262,-287,1,-8,2,0
165004,419,-8263,-271,1,-8,1,0
165009,399,-8263,-260,1,-7,2,0
165014,382,-8264,-261,1,-7,1,0
165019,369,-8264,-264,1,-6,1,0
165024,362,-8261,-262,1,-6,2,0
165029,367,-8260,-254,1,-6,2,0
165034,384,-8258,-236,1,-6,2,0
165039,404,-8260,-209,1,-7,2,0
165044,424,-8260,-175,1,-7,2,0
165049,442,-8256,-139,1,-8,2,0
165054,459,-8256,-111,1,-8,2,0
165059,468,-8257,-92,1,-9,2,0
165064,469,-8257,-86,1,-10,2,0
165069,470,-8258,-88,1,-11,2,0
165074,471,-8260,-92,0,-13,2,0
165079,476,-8262,-96,0,-14,2,0
165084,485,-8263,-99,0,-14,2,0
165089,493,-8265,-105,0,-15,2,0
165094,502,-8266,-99,0,-15,2,0
165099,511,-8267,-92,0,-15,2,0
165104,518,-8267,-80,0,-15,2,0
165109,516,-8266,-73,0,-15,2,0
165114,509,-8267,-63,0,-15,2,0
165119,496,-8265,-59,0,-15,2,0
165124,480,-8264,-55,0,-15,2,0
165129,467,-8264,-58,0,-15,2,0
165134,452,-8267,-68,0,-14,2,0
165139,436,-8268,-72,0,-14,2,0
165144,419,-8265,-75,-1,-14,2,0
165149,403,-8265,-73,-1,-14,2,0
165154,389,-8263,-63,-1,-15,2,0
165159,380,-8262,-48,-1,-16,2,0
165164,373,-8259,-36,-1,-18,2,0
165169,368,-8258,-15,-1,-19,2,0
165174,362,-8256,0,-1,-20,2,0
165179,353,-8256,2,-1,-22,2,0
165184,340,-8258,-9,-1,-23,2,0
165189,323,-8258,-24,-1,-23,2,0
165194,304,-8259,-43,-1,-23,2,0
165199,290,-8258,-64,-1,-23,2,0
165204,279,-8259,-82,-1,-23,2,0
165209,281,-8260,-97,-1,-23,2,0
165214,311,-8260,-107,-2,-22,2,0
165219,312,-8260,-111,-2,-22,2,0
165224,290,-8262,-109,-2,-22,1,0
165229,300,-8262,-119,-2,-22,1,0
165234,321,-8261,-134,-2,-22,1,0
165239,325,-8261,-155,-2,-23,1,0
165244,325,-8258,-184,-2,-23,0,0
165249,322,-8254,-218,-2,-23,0,0
165254,281,-8258,-240,-2,-24,0,0
165259,220,-8258,-259,-2,-25,0,0
165264,170,-8259,-281,-2,-25,1,0
165269,128,-8259,-285,-2,-25,1,0
165274,91,-8259,-285,-2,-25,1,0
165279,67,-8259,-287,-2,-25,1,0
165284,58,-8256,-284,-2,-24,1,0
165289,57,-8257,-289,-1,-24,1,0
165294,66,-8258,-307,-1,-23,1,0
165299,82,-8260,-345,-1,-22,1,0
165304,95,-8260,-391,-1,-22,1,0
165309,102,-8261,-450,-1,-21,1,0
165314,104,-8262,-503,-1,-19,1,0
165319,98,-8262,-538,-1,-18,1,0
165324,87,-8263,-552,-1,-18,1,0
165329,74,-8260,-549,-1,-17,1,0
165334,61,-8257,-527,-1,-17,1,0
165339,48,-8253,-502,-1,-17,1,0
165344,43,-8253,-482,-1,-16,1,0
165349,41,-8252,-475,0,-16,1,0
165354,48,-8251,-488,0,-15,1,0
165359,55,-8250,-510,0,-15,1,0
165364,66,-8250,-536,0,-15,1,0
165369,70,-8253,-560,0,-15,1,0
165374,69,-8256,-579,0,-15,1,0
165379,62,-8256,-585,0,-15,1,0
165384,48,-8258,-572,0,-14,0,0
165389,36,-8259,-548,0,-13,0,0
165394,22,-8259,-520,0,-13,0,0
165399,9,-8257,-497,0,-12,0,0
165404,-6,-8255,-483,0,-12,0,0
165409,-20,-8254,-480,0,-12,0,0
165414,-26,-8254,-485,0,-11,0,0
165419,-31,-8255,-494,0,-11,0,0
165424,-31,-8255,-495,0,-10,0,0
165429,-28,-8254,-490,0,-9,0,0
165434,-22,-8254,-482,0,-9,0,0
165439,-23,-8255,-465,0,-9,0,0
165444,-25,-8256,-445,0,-9,0,0
165449,-30,-8258,-418,0,-8,0,0
165454,-31,-8257,-393,1,-8,0,0
165459,-28,-8259,-374,1,-8,0,0
165464,-23,-8260,-358,1,-8,0,0
165469,-14,-8265,-354,1,-8,0,0
165474,1,-8266,-350,0,-7,0,0
165479,21,-8264,-349,0,-7,0,0
165484,40,-8265,-339,0,-7,-1,0
165489,59,-8263,-324,0,-6,-1,0
165494,76,-8263,-304,0,-6,-1,0
165499,82,-8259,-286,0,-7,-1,0
165504,83,-8258,-262,0,-7,-1,0
165509,82,-8259,-236,0,-7,-1,0
165514,83,-8259,-219,0,-7,-1,0
165519,88,-8261,-213,0,-7,-1,0
165524,99,-8262,-212,0,-6,-1,0
165529,113,-8264,-218,0,-6,-1,0
165534,129,-8268,-224,0,-6,-1,0
165539,148,-8269,-230,0,-6,-1,0
165544,166,-8267,-234,0,-6,-1,0
165549,181,-8263,-229,0,-6,-1,0
165554,193,-8263,-224,0,-6,-1,0
165559,203,-8263,-217,0,-6,-1,0
165564,211,-8263,-208,0,-6,-1,0
165569,216,-8263,-201,0,-6,-1,0
165574,218,-8262,-199,0,-5,-1,0
165579,221,-8263,-205,0,-5,0,0
165584,223,-8265,-204,0,-5,0,0
165589,229,-8266,-201,0,-4,0,0
165594,235,-8269,-199,0,-5,0,0
165599,240,-8270,-195,0,-5,0,0
165604,240,-8269,-192,0,-4,0,0
165609,239,-8270,-179,0,-4,-1,0
165614,233,-8269,-172,0,-4,0,0
165619,227,-8269,-167,0,-4,0,0
165624,225,-8268,-161,0,-4,0,0
165629,221,-8266,-162,0,-4,0,0
165634,218,-8264,-157,0,-4,0,0
165639,213,-8259,-154,0,-4,0,0
165644,209,-8258,-147,0,-4,0,0
165649,205,-8259,-144,0,-4,0,0
165654,197,-8257,-135,0,-4,0,0
165659,185,-8259,-125,0,-4,0,0
165664,179,-8257,-115,0,-4,0,0
165669,171,-8254,-118,0,-4,0,0
165674,165,-8256,-119,0,-4,0,0
165679,161,-8259,-122,-1,-4,0,0
165684,158,-8260,-127,-1,-4,0,0
165689,154,-8262,-137,-1,-4,0,0
165694,149,-8262,-142,-1,-5,-1,0
165699,144,-8263,-145,-1,-5,0,0
165704,134,-8265,-149,-1,-5,-1,0
165709,124,-8264,-152,-1,-5,-1,0
165714,114,-8262,-153,-1,-5,-1,0
165719,106,-8261,-157,-1,-5,-1,0
165724,94,-8261,-168,-1,-6,-1,0
165729,82,-8263,-185,-1,-6,-1,0
165734,69,-8264,-203,-1,-6,-1,0
165739,55,-8266,-223,-1,-6,-1,0
165744,40,-8266,-241,-1,-6,-1,0
165749,25,-8267,-259,-1,-5,-1,0
165754,12,-8268,-277,-1,-4,-1,0
165759,2,-8269,-294,-1,-3,-1,0
165764,-9,-8269,-311,-1,-3,-1,0
165769,-13,-8270,-324,-1,-2,-1,0
165774,-12,-8269,-338,-1,-1,-1,0
165779,-6,-8268,-348,-1,-1,-1,0
165784,2,-8272,-351,-1,-1,-1,0
165789,12,-8274,-354,-1,-1,-1,0
165794,22,-8270,-356,-1,0,-1,0
165799,30,-8269,-354,0,0,-1,0
165804,38,-8270,-356,0,0,-1,0
165809,42,-8270,-359,0,1,-2,0
165814,45,-8270,-365,0,1,-2,0
165819,46,-8269,-370,0,1,-2,0
165824,45,-8268,-377,0,1,-2,0
165829,40,-8266,-381,0,1,-2,0
165834,36,-8266,-385,0,1,-2,0
165839,32,-8265,-388,0,2,-2,0
165844,29,-8262,-390,0,3,-2,0
165849,28,-8260,-395,0,3,-2,0
165854,29,-8259,-401,0,4,-2,0
165859,30,-8261,-406,0,4,-2,0
165864,28,-8262,-412,0,4,-2,0
165869,29,-8264,-416,0,5,-2,0
165874,33,-8265,-415,0,5,-2,0
165879,41,-8265,-406,0,5,-2,0
165884,56,-8265,-397,0,5,-2,0
165889,74,-8266,-388,0,5,-2,0
165894,92,-8265,-382,0,5,-2,0
165899,108,-8266,-375,0,5,-2,0
165904,118,-8265,-373,0,4,-2,0
165909,126,-8263,-372,0,3,-2,0
165914,131,-8262,-379,1,3,-2,0
165919,135,-8260,-391,1,3,-2,0
165924,137,-8257,-406,1,3,-2,0
165929,141,-8259,-423,1,4,-2,0
165934,145,-8260,-438,1,4,-2,0
165939,155,-8259,-446,1,4,-2,0
165944,171,-8260,-456,1,4,-2,0
165949,187,-8260,-463,1,3,-2,0
165954,203,-8262,-467,1,3,-2,0
165959,216,-8261,-474,1,3,-2,0
165964,224,-8263,-480,1,3,-2,0
165969,228,-8265,-484,1,3,-2,0
165974,226,-8266,-494,1,3,-2,0
165979,220,-8263,-512,1,3,-2,0
165984,216,-8263,-538,2,4,-2,0
165989,212,-8262,-564,2,5,-2,0
165994,210,-8261,-595,2,6,-2,0
165999,219,-8261,-621,2,8,-2,0
166004,231,-8261,-646,2,9,-2,0
166009,245,-8259,-673,2,10,-2,0
166014,262,-8262,-697,2,11,-2,0
166019,285,-8263,-714,2,12,-2,0
166024,301,-8264,-726,3,12,-2,0
166029,322,-8268,-734,3,13,-2,0
166034,342,-8269,-734,3,13,-2,0
166039,356,-8265,-737,3,14,-2,0
166044,369,-8261,-736,3,16,-2,0
166049,377,-8259,-729,4,17,-2,0
166054,386,-8259,-721,4,17,-2,0
166059,391,-8260,-708,4,18,-2,0
166064,392,-8259,-688,4,18,-2,0
166069,380,-8258,-656,4,18,-2,0
166074,361,-8257,-611,4,19,-2,0
166079,340,-8255,-547,4,19,-1,0
166084,319,-8254,-488,4,20,-1,0
166089,300,-8255,-436,4,21,-1,0
166094,288,-8255,-393,4,22,-1,0
166099,280,-8254,-373,4,22,-1,0
166104,274,-8256,-364,5,22,-1,0
166109,272,-8257,-359,5,23,-1,0
166114,273,-8262,-349,4,23,-1,0
166119,276,-8265,-332,4,22,-1,0
166124,277,-8265,-304,4,22,-1,0
166129,272,-8264,-265,4,22,-1,0
166134,264,-8263,-223,4,22,-1,0
166139,254,-8260,-184,4,22,-1,0
166144,242,-8259,-151,4,23,-1,0
166149,231,-8259,-122,5,22,-2,0
166154,215,-8264,-104,5,22,-2,0
166159,199,-8268,-95,4,22,-2,0
166164,188,-8267,-90,4,22,-2,0
166169,181,-8265,-90,4,22,-2,0
166174,178,-8265,-87,4,23,-2,0
166179,185,-8263,-81,4,23,-2,0
166184,195,-8263,-78,4,24,-2,0
166189,206,-8260,-68,4,24,-2,0
166194,217,-8260,-67,4,25,-2,0
166199,228,-8261,-69,4,27,-2,0
166204,228,-8265,-74,4,28,-2,0
166209,216,-8272,-77,4,29,-2,0
166214,201,-8277,-67,4,31,-2,0
166219,210,-8291,-81,4,33,-2,0
166224,285,-8316,-138,4,34,-2,0
166229,389,-8342,-197,4,35,-2,0
166234,479,-8363,-244,3,34,-3,0
166239,535,-8382,-253,3,33,-3,0
166244,544,-8407,-232,3,31,-3,0
166249,534,-8427,-200,3,30,-3,0
166254,537,-8440,-182,3,29,-3,0
166259,572,-8450,-195,2,27,-3,0
166264,631,-8464,-222,2,26,-3,0
166269,693,-8478,-249,2,23,-4,0
166274,733,-8496,-262,2,21,-4,0
166279,744,-8513,-263,1,20,-4,0
166284,730,-8525,-257,1,19,-4,0
166289,719,-8533,-261,1,18,-4,0
166294,722,-8538,-286,1,17,-4,0
166299,754,-8537,-319,1,16,-4,0
166304,802,-8533,-354,1,15,-5,0
166309,840,-8520,-370,1,14,-5,0
166314,858,-8496,-378,0,14,-5,0
166319,850,-8466,-385,0,14,-5,0
166324,829,-8436,-398,0,14,-5,0
166329,812,-8411,-423,0,15,-5,0
166334,811,-8395,-448,0,15,-6,0
166339,815,-8391,-469,0,15,-6,0
166344,820,-8403,-470,0,16,-6,0
166349,812,-8426,-463,0,16,-6,0
166354,789,-8458,-447,0,15,-7,0
166359,763,-8494,-436,0,15,-7,0
166364,738,-8529,-435,-1,14,-7,0
166369,733,-8564,-446,-1,14,-7,0
166374,746,-8595,-464,-1,13,-8,0
166379,766,-8618,-469,-1,13,-8,0
166384,778,-8633,-471,-1,13,-8,0
166389,782,-8633,-467,-1,13,-8,0
166394,777,-8618,-466,-1,13,-9,0
166399,775,-8590,-456,-1,13,-9,0
166404,783,-8559,-454,-1,13,-9,0
166409,803,-8521,-455,-1,13,-9,0
166414,825,-8474,-455,-1,13,-9,0
166419,841,-8426,-458,-1,14,-9,0
166424,848,-8378,-450,-1,14,-9,0
166429,848,-8327,-428,-1,13,-10,0
166434,848,-8274,-399,-1,12,-10,0
166439,865,-8221,-363,-1,12,-10,0
166444,889,-8163,-342,-1,11,-10,0
166449,912,-8106,-334,-1,10,-10,0
166454,928,-8042,-325,-1,10,-10,0
166459,934,-7979,-313,-1,9,-10,0
166464,933,-7909,-293,-1,9,-9,0
166469,928,-7835,-266,-1,8,-9,0
166474,929,-7759,-239,-1,8,-9,0
166479,938,-7691,-220,-1,8,-9,0
166484,952,-7632,-204,-1,7,-8,0
166489,958,-7578,-186,-1,6,-8,0
166494,946,-7536,-150,-1,5,-8,0
166499,916,-7508,-99,-1,3,-8,0
166504,877,-7502,-42,-1,2,-7,0
166509,839,-7512,18,-1,0,-7,0
166514,802,-7539,60,-2,-1,-7,0
166519,763,-7575,92,-2,-2,-7,0
166524,718,-7614,121,-2,-3,-6,0
166529,667,-7655,147,-2,-3,-6,0
166534,617,-7698,179,-2,-4,-6,0
166539,573,-7744,223,-2,-4,-6,0
166544,539,-7785,261,-2,-4,-5,0
166549,510,-7821,286,-2,-3,-5,0
166554,474,-7858,304,-2,-2,-5,0
166559,432,-7902,312,-1,0,-5,0
166564,387,-7948,319,-1,1,-4,0
166569,340,-8000,340,-1,1,-4,0
166574,301,-8069,383,-1,2,-4,0
166579,278,-8148,436,-2,2,-4,0
166584,266,-8229,489,-2,2,-4,0
166589,253,-8306,534,-1,1,-3,0
166594,239,-8376,563,-2,0,-3,0
166599,222,-8434,580,-2,-2,-3,0
166604,202,-8481,600,-2,-3,-3,0
166609,183,-8512,620,-2,-3,-3,0
166614,165,-8526,644,-2,-3,-3,0
166619,148,-8527,651,-2,-2,-3,0
166624,145,-8512,638,-2,-2,-3,0
166629,155,-8489,620,-2,-1,-2,0
166634,178,-8462,607,-2,-2,-2,0
166639,207,-8433,606,-2,-3,-2,0
166644,231,-8403,604,-2,-4,-2,0
166649,252,-8371,589,-2,-5,-2,0
166654,266,-8340,563,-1,-6,-1,0
166659,271,-8313,513,-1,-6,-1,0
166664,269,-8291,458,-1,-5,-1,0
166669,264,-8272,415,-1,-4,-1,0
166674,256,-8253,392,-1,-3,-1,0
166679,260,-8237,382,-1,-3,-1,0
166684,277,-8220,386,-1,-3,0,0
166689,301,-8200,382,-1,-3,0,0
166694,330,-8175,362,0,-4,0,0
166699,351,-8148,325,0,-5,0,0
166704,365,-8116,283,0,-6,0,0
166709,369,-8081,259,0,-6,0,0
166714,374,-8047,244,0,-6,1,0
166719,384,-8020,243,0,-6,1,0
166724,399,-8006,238,0,-6,1,0
166729,412,-7999,227,0,-7,1,0
166734,422,-8003,207,0,-8,1,0
166739,428,-8010,178,0,-9,1,0
166744,430,-8026,148,0,-9,1,0
166749,428,-8043,128,0,-9,1,0
166754,421,-8058,116,0,-9,1,0
166759,415,-8072,105,0,-9,2,0
166764,418,-8078,98,0,-8,2,0
166769,433,-8078,92,1,-8,2,0
166774,462,-8074,76,1,-7,2,0
166779,499,-8067,59,1,-7,2,0
166784,537,-8057,46,1,-7,2,0
166789,563,-8044,33,1,-7,2,0
166794,577,-8032,23,1,-7,2,0
166799,587,-8024,17,1,-7,2,0
166804,589,-9004,33,1,-6,2,0
166809,458,-8811,-155,0,-1,2,0
166814,656,-8743,-57,1,1,0,0
166819,814,-8787,46,1,-11,-2,0
166824,946,-8670,201,2,-2,-2,0
166829,1074,-8436,320,2,6,-2,0
166834,1075,-8616,303,2,-4,-3,0
166839,1032,-8621,179,2,-8,-3,0
166844,1002,-8575,274,3,-7,-3,0
166849,919,-8519,283,2,-10,-3,0
166854,857,-8482,241,2,-9,-3,0
166859,843,-8455,276,3,-8,-3,0
166864,800,-8430,267,3,-8,-2,0
166869,767,-8409,196,3,-6,-2,0
166874,767,-8392,136,3,-5,-2,0
166879,769,-8378,64,3,-3,-2,0
166884,809,-8364,-6,3,1,-2,0
166889,879,-8350,-38,3,3,-2,0
166894,931,-8339,-45,3,3,-2,0
166899,965,-8329,-51,2,4,-1,0
166904,994,-8321,-34,2,3,-1,0
166909,1025,-8311,7,2,2,-1,0
166914,1062,-8300,51,2,2,-1,0
166919,1098,-8295,92,3,1,-1,0
166924,1117,-8290,115,3,-1,-1,0
166929,1116,-8286,113,3,-1,-1,0
166934,1097,-8285,84,3,-3,0,0
166939,1097,-8284,59,3,-3,0,0
166944,1109,-8282,47,3,-3,0,0
166949,1126,-8281,40,3,-3,0,0
166954,1139,-8282,42,2,-4,0,0
166959,1133,-8280,57,2,-3,0,0
166964,1119,-8276,71,2,-4,0,0
166969,1125,-8274,103,2,-4,0,0
166974,1139,-8274,133,2,-3,0,0
166979,1148,-8274,152,3,-4,1,0
166984,1144,-8276,166,3,-4,1,0
166989,1114,-8274,158,3,-4,1,0
166994,1071,-8275,146,2,-5,1,0
166999,1046,-8275,164,2,-6,1,0
167004,1026,-8272,187,2,-6,1,0
167009,1013,-8269,215,2,-6,1,0
167014,995,-8270,256,2,-6,1,0
167019,958,-8269,285,2,-7,2,0
167024,924,-8267,312,2,-8,2,0
167029,911,-8268,355,2,-8,2,0
167034,915,-8266,389,2,-10,2,0
167039,920,-8266,419,2,-12,2,0
167044,920,-8268,445,1,-13,2,0
167049,909,-8268,453,1,-15,2,0
167054,896,-8271,460,1,-17,2,0
167059,893,-8271,479,1,-18,2,0
167064,897,-8273,496,1,-19,2,0
167069,912,-8273,515,1,-20,2,0
167074,921,-8273,527,1,-21,2,0
167079,936,-8272,532,1,-22,2,0
167084,956,-8276,529,0,-23,2,0
167089,975,-8276,510,0,-24,2,0
167094,1014,-8275,497,0,-24,1,0
167099,1046,-8276,483,0,-24,1,0
167104,1057,-8272,463,0,-24,1,0
167109,1050,-8271,447,0,-24,1,0
167114,1021,-8271,433,0,-24,1,0
167119,966,-8272,408,0,-23,1,0
167124,916,-8275,383,0,-23,1,0
167129,874,-8276,355,0,-22,2,0
167134,848,-8273,317,0,-22,2,0
167139,855,-8272,292,0,-21,2,0
167144,883,-8269,269,0,-20,2,0
167149,912,-8268,241,0,-20,2,0
167154,946,-8268,218,0,-19,2,0
167159,966,-8268,190,0,-19,2,0
167164,957,-8270,153,0,-18,2,0
167169,937,-8270,125,0,-18,2,0
167174,899,-8272,96,0,-17,2,0
167179,860,-8270,72,0,-15,2,0
167184,837,-8270,65,0,-13,2,0
167189,816,-8271,51,0,-11,2,0
167194,804,-8272,27,0,-9,2,0
167199,804,-8270,10,0,-7,2,0
167204,807,-8270,-17,0,-5,2,0
167209,810,-8271,-48,0,-3,2,0
167214,823,-8274,-67,0,-1,3,0
167219,830,-8277,-95,0,0,3,0
167224,840,-8277,-113,0,1,3,0
167229,857,-8274,-108,0,1,3,0
167234,863,-8273,-102,0,2,3,0
167239,867,-8272,-79,0,2,3,0
167244,861,-8274,-50,0,2,3,0
167249,845,-8272,-32,0,3,3,0
167254,817,-8272,-13,0,3,3,0
167259,789,-8273,6,0,4,3,0
167264,754,-8271,21,0,4,3,0
167269,720,-8271,42,0,5,3,0
167274,685,-8274,57,0,5,3,0
167279,649,-8278,75,0,6,3,0
167284,616,-8278,99,0,6,3,0
167289,578,-8276,121,0,7,3,0
167294,544,-8274,146,0,7,3,0
167299,513,-8273,168,0,8,3,0
167304,485,-8269,184,0,9,2,0
167309,456,-8267,201,0,10,2,0
167314,435,-8269,222,0,10,2,0
167319,415,-8269,243,0,10,2,0
167324,407,-8271,261,0,10,2,0
167329,408,-8272,282,0,10,2,0
167334,410,-8272,295,0,10,2,0
167339,419,-8271,314,-1,9,2,0
167344,428,-8271,330,-1,8,2,0
167349,435,-8271,342,-1,7,2,0
167354,446,-8271,356,-1,6,2,0
167359,459,-8271,365,-1,4,2,0
167364,466,-8270,372,-1,3,2,0
167369,476,-8270,380,-1,1,2,0
167374,481,-8269,380,-1,0,2,0
167379,476,-8271,367,-1,-1,2,0
167384,472,-8271,355,-1,-1,1,0
167389,461,-8272,332,-1,-1,1,0
167394,448,-8272,297,-1,-1,1,0
167399,436,-8275,261,-1,0,2,0
167404,427,-8277,215,-1,2,2,0
167409,420,-8274,175,-1,4,1,0
167414,419,-8273,141,-1,6,1,0
167419,417,-8273,110,-1,8,1,0
167424,416,-8270,89,-1,10,1,0
167429,418,-8270,79,-1,12,1,0
167434,417,-8269,68,-1,13,1,0
167439,421,-8269,71,-1,14,1,0
167444,430,-8272,76,-1,14,1,0
167449,441,-8274,76,-1,14,1,0
167454,456,-8274,83,-1,13,1,0
167459,464,-8273,87,-1,12,1,0
167464,474,-8274,83,-1,11,1,0
167469,481,-8276,83,-1,9,1,0
167474,479,-8276,76,-1,9,1,0
167479,472,-8276,68,-1,8,1,0
167484,468,-8278,59,-1,9,1,0
167489,458,-8278,51,-1,9,1,0
167494,447,-8280,43,-1,10,1,0
167499,434,-8280,37,-1,11,1,0
167504,418,-8282,27,-1,11,1,0
167509,403,-8282,25,-1,12,1,0
167514,393,-8282,29,-1,13,1,0
167519,384,-8282,29,-1,13,1,0
167524,377,-8282,30,-1,13,1,0
167529,381,-8282,34,-1,14,1,0
167534,387,-8279,40,-1,14,0,0
167539,402,-8280,45,-1,14,0,0
167544,417,-8277,51,-1,15,1,0
167549,432,-8275,47,-1,14,0,0
167554,446,-8274,47,-1,13,0,0
167559,456,-8274,39,-1,13,0,0
167564,462,-8276,21,-1,13,0,0
167569,474,-8278,5,-1,13,0,0
167574,485,-8277,-5,-1,13,0,0
167579,490,-8276,-11,-1,13,0,0
167584,495,-8274,-12,-1,13,0,0
167589,491,-8274,-2,-1,12,0,0
167594,487,-8272,10,-1,12,0,0
167599,482,-8271,17,-1,12,0,0
167604,480,-8272,19,0,12,0,0
167609,481,-8276,25,0,11,0,0
167614,482,-8279,28,0,10,0,0
167619,486,-8281,33,0,10,0,0
167624,491,-8279,33,0,9,0,0
167629,490,-8280,35,0,8,0,0
167634,490,-8277,37,0,7,0,0
167639,493,-8274,40,0,7,0,0
167644,493,-8272,36,0,6,0,0
167649,496,-8270,32,0,6,0,0
167654,503,-8271,22,0,5,0,0
167659,507,-8274,15,0,4,0,0
167664,510,-8275,5,0,2,0,0
167669,507,-8277,5,0,1,0,0
167674,502,-8277,4,0,0,0,0
167679,502,-8276,8,0,-1,0,0
167684,506,-8274,12,0,-1,0,0
167689,509,-8274,4,0,-1,0,0
167694,511,-8272,-9,0,0,0,0
167699,512,-8270,-29,0,0,0,0
167704,519,-8270,-52,0,1,0,0
167709,522,-8271,-77,0,1,0,0
167714,524,-8270,-94,0,1,0,0
167719,524,-8270,-91,0,2,0,0
167724,521,-8271,-84,0,2,0,0
167729,520,-8277,-77,0,2,0,0
167734,521,-8279,-67,0,3,0,0
167739,526,-8276,-59,0,4,0,0
167744,530,-8276,-50,1,4,0,0
167749,537,-8277,-40,1,4,0,0
167754,541,-8280,-32,1,4,0,0
167759,541,-8281,-30,1,4,0,0
167764,543,-8283,-22,0,3,0,0
167769,546,-8281,-4,0,3,0,0
167774,547,-8282,22,0,2,0,0
167779,545,-8282,54,0,1,0,0
167784,540,-8284,87,0,1,0,0
167789,531,-8285,111,1,1,0,0
167794,516,-8285,128,1,0,0,0
167799,502,-8283,137,0,0,0,0
167804,492,-8282,136,0,1,0,0
167809,483,-8280,133,0,1,0,0
167814,476,-8281,126,0,2,0,0
167819,469,-8278,121,0,2,0,0
167824,464,-8277,123,0,3,0,0
167829,461,-8278,130,0,3,0,0
167834,458,-8277,143,0,4,0,0
167839,455,-8272,166,0,4,0,0
167844,456,-8271,184,0,3,0,0
167849,456,-8272,210,0,3,0,0
167854,454,-8275,233,0,2,0,0
167859,453,-8276,253,0,0,0,0
167864,458,-8276,278,0,-2,0,0
167869,465,-8276,301,0,-3,0,0
167874,476,-8272,319,0,-5,0,0
167879,488,-8272,333,0,-6,0,0
167884,497,-8272,342,0,-8,0,0
167889,506,-8274,341,0,-9,0,0
167894,512,-8276,329,0,-10,0,0
167899,516,-8276,314,0,-11,0,0
167904,517,-8277,292,0,-11,0,0
167909,524,-8275,273,0,-11,0,0
167914,532,-8271,259,0,-12,0,0
167919,539,-8272,245,0,-13,0,0
167924,550,-8275,245,-1,-13,0,0
167929,564,-8279,249,-1,-14,0,0
167934,579,-8280,253,-1,-15,0,0
167939,593,-8278,250,-1,-16,0,0
167944,604,-8274,241,-1,-16,0,0
167949,610,-8271,234,-1,-18,0,0
167954,608,-8270,224,-1,-19,0,0
167959,598,-8270,211,-1,-20,0,0
167964,584,-8270,196,-1,-21,0,0
167969,558,-8269,185,-1,-21,0,0
167974,535,-8269,178,-1,-20,0,0
167979,517,-8267,173,-1,-18,0,0
167984,505,-8266,166,-1,-15,0,0
167989,487,-8267,151,-1,-12,0,0
167994,465,-8268,125,-1,-9,0,0
167999,435,-8270,86,-1,-5,0,0
168004,406,-8269,36,0,0,0,0
168009,371,-8269,-11,0,5,0,0
168014,342,-8271,-57,0,10,0,0
168019,332,-8272,-94,0,14,0,0
168024,326,-8269,-103,0,15,0,0
168029,331,-8266,-101,-1,17,0,0
168034,362,-8271,-54,-1,19,0,0
168039,418,-8273,23,-1,18,0,0
168044,481,-8271,103,-1,16,0,0
168049,559,-8274,213,-1,9,0,0
168054,595,-8276,319,-1,-3,0,0
168059,583,-8277,339,-1,-13,0,0
168064,549,-8276,366,0,-16,0,0
168069,491,-8277,347,0,-12,0,0
168074,420,-8280,249,0,-7,0,0
168079,400,-8280,157,0,0,0,0
168084,382,-8282,55,0,5,0,0
168089,377,-8283,-54,0,6,0,0
168094,390,-8284,-125,0,7,0,0
168099,395,-8286,-161,-1,8,0,0
168104,412,-8282,-168,-1,10,0,0
168109,435,-8279,-129,-1,14,0,0
168114,462,-8275,-59,-1,18,0,0
168119,512,-8274,15,0,19,0,0
168124,579,-8273,100,0,15,0,0
168129,639,-8271,198,0,-1,0,0
168134,608,-8270,249,0,-28,-1,0
168139,584,-8270,237,0,-43,0,0
168144,501,-8268,241,0,-46,0,0
168149,436,-8270,265,-1,-43,0,0
168154,437,-8271,250,-1,-36,0,0
168159,422,-8271,236,0,-28,0,0
168164,423,-8272,204,0,-22,0,0
168169,437,-8271,125,0,-17,0,0
168174,436,-8274,37,0,-12,0,0
168179,438,-8275,-27,0,-7,0,0
168184,465,-8276,-56,0,-6,0,0
168189,467,-8274,-65,0,-13,0,0
168194,470,-8271,-77,0,-18,0,0
168199,413,-8267,-80,0,-14,0,0
168204,374,-8262,-61,0,-1,1,0
168209,372,-8262,-53,0,17,1,0
168214,374,-8268,-48,0,35,0,0
168219,384,-8267,-75,1,51,0,0
168224,364,-8272,-136,1,66,0,0
168229,313,-8275,-179,1,81,0,0
168234,227,-8286,-200,0,97,0,0
168239,157,-8289,-148,0,114,0,0
168244,198,-8285,-111,0,121,0,0
168249,245,-8280,-51,0,121,0,0
168254,310,-8275,20,0,112,1,0
168259,410,-8269,62,1,97,1,0
168264,487,-8270,108,1,78,1,0
168269,586,-8269,150,0,53,0,0
168274,666,-8268,176,0,24,0,0
168279,731,-8275,229,0,-8,-1,0
168284,778,-8278,300,0,-42,-1,0
168289,828,-8280,359,0,-72,-1,0
168294,838,-8278,417,0,-95,-1,0
168299,793,-8275,460,0,-108,-1,0
168304,713,-8272,473,0,-110,0,0
168309,578,-8274,447,0,-101,0,0
168314,433,-8274,387,0,-81,0,0
168319,313,-8275,305,0,-56,0,0
168324,221,-8272,188,0,-29,0,0
168329,180,-8273,92,0,-4,0,0
168334,188,-8271,8,1,15,0,0
168339,211,-8273,-77,1,28,0,0
168344,236,-8275,-137,1,37,0,0
168349,244,-8275,-191,1,45,0,0
168354,230,-8279,-242,1,53,0,0
168359,200,-8280,-239,1,64,0,0
168364,167,-8278,-237,1,77,0,0
168369,148,-8277,-242,1,88,0,0
168374,135,-8275,-216,1,95,0,0
168379,123,-8277,-195,1,99,-1,0
168384,127,-8273,-170,1,98,-1,0
168389,121,-8276,-109,1,94,-1,0
168394,75,-8283,-37,1,88,-1,0
168399,5,-8290,42,1,82,-2,0
168404,-85,-8290,93,0,77,-2,0
168409,-154,-8282,95,0,77,-2,0
168414,-215,-8275,68,1,84,-1,0
168419,-243,-8273,0,2,99,0,0
168424,-230,-8275,-116,2,120,0,0
168429,-200,-8280,-242,3,147,0,0
168434,-126,-8285,-349,3,172,0,0
168439,-13,-8292,-404,2,194,0,0
168444,114,-8295,-371,2,209,0,0
168449,266,-8293,-252,1,216,0,0
168454,413,-8287,-107,1,212,-1,0
168459,535,-8284,92,1,195,-1,0
168464,654,-8281,311,1,166,-1,0
168469,733,-8279,477,1,132,-1,0
168474,771,-8279,624,1,99,0,0
168479,781,-8278,745,1,72,0,0
168484,749,-8275,808,1,55,0,0
168489,690,-8271,817,1,47,0,0
168494,610,-8268,757,2,45,0,0
168499,527,-8267,612,2,47,0,0
168504,446,-8269,414,2,53,0,0
168509,366,-8275,212,2,64,0,0
168514,301,-8279,25,2,81,1,0
168519,254,-8285,-92,1,103,1,0
168524,222,-8289,-105,0,129,1,0
168529,212,-8293,-1,0,158,1,0
168534,216,-8293,207,-1,185,0,0
168539,211,-8294,441,-1,211,0,0
168544,195,-8291,664,-1,236,0,0
168549,182,-8286,871,-1,257,0,0
168554,284,-8277,1036,-1,274,1,0
168559,529,-8265,1179,-1,275,2,0
168564,687,-8265,1274,-1,269,3,0
168569,816,-8267,1339,-1,261,3,0
168574,919,-8266,1371,-2,255,2,0
168579,937,-8265,1343,-2,250,1,0
168584,920,-8264,1278,-3,241,1,0
168589,850,-8260,1172,-3,232,1,0
168594,762,-8257,1066,-2,223,1,0
168599,657,-8256,914,-2,215,1,0
168604,497,-8264,710,-2,208,1,0
168609,324,-8270,487,-3,201,1,0
168614,142,-8273,270,-3,197,1,0
168619,-42,-8275,69,-3,197,1,0
168624,-204,-8277,-62,-4,200,0,0
168629,-340,-8278,-147,-4,204,0,0
168634,-442,-8281,-194,-3,207,0,0
168639,-507,-8282,-203,-3,208,-1,0
168644,-552,-8282,-210,-3,206,-1,0
168649,-552,-8276,-220,-2,203,-1,0
168654,-509,-8272,-224,-2,198,-2,0
168659,-454,-8279,-222,-2,192,-2,0
168664,-337,-8281,-129,-2,187,-2,0
168669,-211,-8280,-2,-3,183,-2,0
168674,-79,-8274,166,-4,178,-2,0
168679,39,-8277,367,-3,173,-2,0
168684,136,-8273,542,-3,168,-3,0
168689,196,-8265,624,-2,159,-4,0
168694,173,-8266,665,-2,149,-4,0
168699,147,-8271,689,-2,138,-4,0
168704,154,-8276,652,-2,125,-4,0
168709,179,-8279,604,-3,107,-4,0
168714,238,-8276,586,-3,87,-3,0
168719,326,-8277,550,-3,70,-3,0
168724,418,-8280,518,-3,56,-3,0
168729,499,-8277,487,-3,47,-4,0
168734,563,-8276,428,-3,44,-4,0
168739,602,-8276,347,-2,44,-4,0
168744,602,-8273,230,-2,45,-5,0
168749,580,-8272,79,-2,47,-4,0
168754,547,-8272,-70,-2,50,-4,0
168759,508,-8274,-202,-2,54,-4,0
168764,489,-8275,-299,-2,60,-3,0
168769,485,-8277,-338,-2,67,-4,0
168774,500,-8277,-319,-2,73,-4,0
168779,534,-8272,-259,-2,76,-4,0
168784,578,-8272,-197,-2,75,-4,0
168789,626,-8272,-127,-2,70,-4,0
168794,685,-8271,-60,-1,63,-4,0
168799,736,-8270,-18,-1,55,-3,0
168804,773,-8267,7,-1,49,-3,0
168809,805,-8265,15,-1,44,-3,0
168814,825,-8264,-4,-1,40,-3,0
168819,844,-8266,-35,-1,36,-3,0
168824,858,-8269,-66,-1,33,-3,0
168829,860,-8269,-86,-1,31,-3,0
168834,851,-8268,-90,-2,32,-3,0
168839,836,-8267,-78,-2,34,-3,0
168844,816,-8267,-56,-2,38,-3,0
168849,799,-8265,-25,-1,41,-3,0
168854,786,-8263,0,-1,44,-3,0
168859,765,-8262,7,-1,47,-3,0
168864,745,-8261,3,-1,51,-3,0
168869,720,-8261,-17,-1,56,-3,0
168874,708,-8262,-50,-1,62,-2,0
168879,705,-8264,-93,-1,70,-2,0
168884,671,-8266,-159,-1,80,-2,0
168889,669,-8265,-239,-1,96,-2,0
168894,657,-8263,-318,-1,114,-1,0
168899,658,-8259,-407,-1,130,-1,0
168904,671,-8261,-482,0,143,-1,0
168909,676,-8262,-535,0,153,-1,0
168914,685,-8263,-572,-1,163,-1,0
168919,701,-8263,-579,-1,173,-1,0
168924,707,-8265,-550,-1,183,-1,0
168929,712,-8266,-480,-1,192,-1,0
168934,719,-8267,-385,-1,198,-1,0
168939,722,-8266,-271,-1,199,-1,0
168944,729,-8266,-156,-1,196,-1,0
168949,739,-8266,-67,-1,189,-1,0
168954,758,-8265,-9,0,182,0,0
168959,806,-8263,25,0,172,0,0
168964,876,-8262,26,0,162,0,0
168969,993,-8267,35,0,151,0,0
168974,1121,-8270,63,0,138,1,0
168979,1233,-8272,103,0,123,1,0
168984,1347,-8272,178,-1,107,1,0
168989,1431,-8271,279,-1,91,1,0
168994,1487,-8272,384,-1,76,1,0
168999,1535,-8268,495,-1,62,1,0
169004,1557,-8262,598,-1,49,1,0
169009,1565,-8260,674,-1,35,1,0
169014,1567,-8259,710,-1,19,1,0
169019,1537,-8262,699,0,2,1,0
169024,1489,-8267,650,0,-13,1,0
169029,1439,-8267,582,0,-25,1,0
169034,1397,-8269,504,-1,-34,1,0
169039,1369,-8270,429,-1,-42,2,0
169044,1350,-8271,368,-1,-50,2,0
169049,1340,-8268,335,-1,-59,2,0
169054,1334,-8268,334,-1,-70,2,0
169059,1340,-8268,353,-1,-81,2,0
169064,1334,-8268,373,-1,-94,2,0
169069,1310,-8268,399,-1,-106,2,0
169074,1268,-8267,409,-1,-117,2,0
169079,1166,-8265,385,0,-125,1,0
169084,1006,-8263,314,0,-131,1,0
169089,816,-8259,198,0,-133,0,0
169094,594,-8269,55,0,-132,0,0
169099,372,-8278,-93,0,-127,0,0
169104,198,-8281,-239,0,-120,0,0
169109,50,-8282,-370,0,-111,1,0
169114,-28,-8283,-471,0,-99,1,0
169119,-23,-8282,-534,0,-84,2,0
169124,32,-8280,-555,0,-67,1,0
169129,139,-8281,-537,0,-52,1,0
169134,274,-8279,-482,0,-41,1,0
169139,407,-8276,-398,0,-35,1,0
169144,522,-8274,-301,0,-32,1,0
169149,610,-8271,-200,0,-31,1,0
169154,660,-8270,-94,0,-30,1,0
169159,693,-8271,9,0,-28,1,0
169164,713,-8270,97,0,-27,1,0
169169,724,-8270,161,0,-25,1,0
169174,759,-8270,188,0,-25,1,0
169179,796,-8270,189,0,-26,1,0
169184,821,-8271,173,0,-31,1,0
169189,838,-8274,125,0,-38,1,0
169194,835,-8273,58,0,-45,1,0
169199,812,-8275,-10,0,-53,1,0
169204,780,-8275,-98,1,-62,1,0
169209,736,-8275,-203,1,-71,1,0
169214,679,-8275,-312,1,-81,1,0
169219,613,-8279,-413,2,-91,1,0
169224,542,-8283,-499,2,-98,1,0
169229,485,-8284,-540,2,-103,1,0
169234,441,-8284,-531,2,-106,1,0
169239,420,-8281,-462,1,-107,1,0
169244,420,-8281,-351,1,-107,0,0
169249,429,-8276,-202,1,-105,0,0
169254,444,-8274,-34,1,-104,0,0
169259,461,-8273,143,1,-101,0,0
169264,471,-8273,311,1,-99,0,0
169269,465,-8272,451,1,-97,0,0
169274,442,-8275,563,1,-95,0,0
169279,406,-8276,641,1,-94,0,0
169284,363,-8276,688,0,-92,-1,0
169289,318,-8277,706,0,-91,-1,0
169294,282,-8281,691,0,-91,-1,0
169299,257,-8282,652,0,-92,0,0
169304,238,-8285,600,0,-94,-1,0
169309,227,-8289,545,-1,-95,-1,0
169314,223,-8290,495,-1,-96,-1,0
169319,238,-8291,455,-1,-95,-1,0
169324,273,-8289,436,-1,-93,-1,0
169329,317,-8285,429,-1,-90,-1,0
169334,365,-8283,429,-1,-89,-1,0
169339,404,-8280,424,-1,-87,-1,0
169344,437,-8278,421,-2,-85,-1,0
169349,455,-8277,416,-2,-83,-1,0
169354,455,-8276,408,-2,-82,-1,0
169359,435,-8275,398,-2,-81,-1,0
169364,401,-8274,378,-2,-78,-1,0
169369,380,-8275,346,-2,-74,-1,0
169374,378,-8277,330,-2,-72,-1,0
169379,394,-8278,308,-2,-71,-1,0
169384,426,-8278,272,-2,-72,-1,0
169389,464,-8278,241,-2,-75,-1,0
169394,501,-8279,209,-2,-81,-1,0
169399,523,-8279,172,-2,-89,-1,0
169404,519,-8281,146,-2,-96,-1,0
169409,490,-8278,124,-2,-102,-1,0
169414,448,-8277,107,-2,-104,-1,0
169419,400,-8278,99,-2,-103,-1,0
169424,364,-8280,113,-2,-99,-1,0
169429,349,-8279,122,-2,-93,-1,0
169434,353,-8280,125,-2,-84,0,0
169439,386,-8279,111,-2,-75,0,0
169444,440,-8276,98,-2,-67,0,0
169449,498,-8274,66,-2,-62,0,0
169454,540,-8275,18,-2,-58,0,0
169459,562,-8276,-33,-2,-56,0,0
169464,560,-8275,-82,-2,-55,0,0
169469,532,-8276,-122,-2,-53,0,0
169474,482,-8276,-142,-2,-52,0,0
169479,432,-8275,-151,-2,-49,0,0
169484,395,-8275,-152,-2,-46,0,0
169489,378,-8275,-147,-2,-44,0,0
169494,379,-8276,-144,-2,-42,0,0
169499,401,-8276,-153,-2,-41,0,0
169504,431,-8275,-182,-2,-41,0,0
169509,460,-8271,-225,-1,-43,0,0
169514,464,-8270,-277,-1,-46,0,0
169519,454,-8269,-324,-1,-47,0,0
169524,432,-8270,-346,-1,-46,0,0
169529,403,-8267,-345,-2,-45,0,0
169534,379,-8268,-325,-2,-43,0,0
169539,357,-8268,-294,-1,-41,0,0
169544,347,-8268,-262,-1,-38,0,0
169549,353,-8267,-234,-1,-35,0,0
169554,366,-8267,-220,-1,-32,0,0
169559,387,-8269,-214,-1,-28,0,0
169564,407,-8270,-221,-1,-26,0,0
169569,418,-8270,-237,-1,-23,0,0
169574,422,-8272,-253,-1,-22,0,0
169579,412,-8272,-270,-1,-20,0,0
169584,397,-8273,-278,-1,-19,0,0
169589,377,-8268,-280,-1,-18,0,0
169594,357,-8266,-275,-1,-16,0,0
169599,342,-8267,-260,-1,-14,0,0
169604,338,-8265,-251,-1,-12,0,0
169609,346,-8265,-241,-1,-9,0,0
169614,358,-8266,-237,0,-7,0,0
169619,376,-8267,-239,0,-4,0,0
169624,392,-8268,-244,0,-3,0,0
169629,400,-8272,-246,0,-2,0,0
169634,401,-8273,-250,0,-1,0,0
169639,394,-8275,-244,0,-1,0,0
169644,386,-8273,-229,0,-1,0,0
169649,374,-8270,-216,0,-1,0,0
169654,364,-8268,-205,0,-1,0,0
169659,361,-8271,-192,0,-1,0,0
169664,367,-8272,-180,0,-1,0,0
169669,383,-8270,-164,0,-1,0,0
169674,408,-8268,-152,0,-1,0,0
169679,433,-8268,-146,0,-1,0,0
169684,454,-8270,-147,0,-1,0,0
169689,468,-8270,-144,0,-2,0,0
169694,465,-8273,-148,0,-2,0,0
169699,452,-8275,-152,0,-2,0,0
169704,444,-8276,-149,0,-2,0,0
169709,436,-8277,-138,0,-1,0,0
169714,434,-8277,-126,0,0,0,0
169719,439,-8278,-119,0,0,0,0
169724,453,-8277,-105,0,0,0,0
169729,474,-8275,-95,0,0,0,0
169734,493,-8273,-93,0,0,0,0
169739,508,-8273,-85,0,0,0,0
169744,515,-8273,-85,0,-1,0,0
169749,514,-8274,-83,0,-1,0,0
169754,509,-8275,-81,0,-1,0,0
169759,502,-8275,-74,0,-1,0,0
169764,496,-8278,-65,0,-1,0,0
169769,493,-8278,-50,0,0,0,0
169774,500,-8276,-40,0,0,0,0
169779,510,-8273,-35,0,0,0,0
169784,525,-8272,-37,0,0,0,0
169789,538,-8272,-41,0,-1,0,0
169794,542,-8272,-49,0,-1,0,0
169799,533,-8273,-58,0,-1,0,0
169804,514,-8273,-64,0,-1,0,0
169809,497,-8270,-65,0,0,0,0
169814,483,-8271,-61,0,0,0,0
169819,480,-8275,-55,0,1,0,0
169824,484,-8274,-42,0,1,0,0
169829,490,-8275,-31,0,2,0,0
169834,498,-8276,-25,0,2,0,0
169839,505,-8273,-21,0,2,0,0
169844,511,-8272,-19,0,2,0,0
169849,512,-8275,-15,0,3,0,0
169854,509,-8275,-13,0,3,0,0
169859,497,-8275,-8,0,2,0,0
169864,481,-8274,-9,0,1,0,0
169869,462,-8275,-13,0,0,0,0
169874,444,-8277,-13,0,-1,0,0
169879,434,-8277,-4,0,-1,0,0
169884,432,-8276,9,0,-1,0,0
169889,436,-8278,19,0,-1,0,0
169894,449,-8278,30,0,0,0,0
169899,459,-8280,30,0,-1,0,0
169904,467,-8280,34,0,-1,0,0
169909,465,-8279,37,0,-2,0,0
169914,453,-8278,35,0,-2,0,0
169919,432,-8277,28,0,-2,0,0
169924,413,-8277,24,0,-2,0,0
169929,397,-8276,27,0,-1,0,0
169934,389,-8276,31,0,-1,0,0
169939,391,-8278,35,0,-1,0,0
169944,397,-8279,40,0,0,0,0
169949,405,-8278,40,0,0,0,0
169954,410,-8277,39,0,0,0,0
169959,412,-8276,39,0,1,0,0
169964,414,-8275,39,0,1,0,0
169969,411,-8275,37,0,1,0,0
169974,400,-8275,38,0,1,0,0
169979,382,-8276,29,0,1,0,0
169984,366,-8274,24,0,1,0,0
169989,357,-8271,29,0,2,0,0
169994,357,-8271,38,0,2,0,0
169999,365,-8270,48,0,1,0,0
170004,374,-8267,58,0,0,0,0
170009,377,-8266,63,0,-1,0,0
170014,372,-8269,64,0,-1,0,0
170019,366,-8267,66,0,-2,0,0
170024,365,-8266,65,0,-2,0,0
170029,362,-8267,66,-1,-1,0,0
170034,361,-8268,65,0,-1,0,0
170039,363,-8272,62,0,-1,0,0
170044,367,-8270,62,-1,-1,0,1
170049,371,-8272,57,-1,-1,0,1
170054,380,-8272,53,-1,0,0,1
170059,391,-8273,53,-1,0,0,1
170064,396,-8275,50,-1,-1,0,1
170069,394,-8274,44,-1,-1,0,1
170073,386,-8275,40,-1,-1,0,1
170079,373,-8273,33,-1,-1,0,1
170084,363,-8274,27,-1,-1,0,1
170089,357,-8273,22,-1,-1,0,1
170094,353,-8271,16,-1,-1,0,1
170099,355,-8273,7,-1,-1,0,1
170104,356,-8276,-5,-1,-1,0,1
170109,361,-8277,-17,-1,-1,0,1
170114,370,-8277,-26,-1,-1,-1,1
170119,377,-8278,-34,-1,-1,-1,1
170124,376,-8280,-41,-1,-2,-1,1
170129,369,-8278,-46,-1,-1,-1,1
170134,356,-8279,-53,-1,-1,-1,1
170139,345,-8281,-58,0,0,-1,1
170144,337,-8281,-62,0,1,-1,1
170149,335,-8279,-65,0,1,-1,1
170154,335,-8278,-72,0,2,-1,1
170159,335,-8280,-80,0,2,-1,1
170164,335,-8281,-89,0,1,-1,1
170169,333,-8280,-97,0,1,-1,1
