millis,ax,ay,az,gx,gy,gz,label
177158,1707,-6298,4753,-2,3,0,0
177161,1681,-6299,4726,-2,4,0,0
177166,1661,-6302,4699,-2,5,0,0
177171,1652,-6307,4670,-2,6,0,0
177176,1646,-6309,4641,-2,6,0,0
177181,1651,-6309,4611,-2,6,0,0
177187,1666,-6307,4589,-2,6,0,0
177191,1678,-6309,4572,-2,6,0,0
177196,1691,-6313,4569,-2,6,0,0
177201,1697,-6330,4570,-2,5,0,0
177206,1699,-6344,4571,-2,5,0,0
177211,1688,-6357,4576,-2,4,0,0
177217,1673,-6363,4583,-2,4,0,0
177221,1655,-6367,4597,-2,3,0,0
177227,1635,-6365,4617,-2,3,0,0
177232,1615,-6365,4640,-2,3,0,0
177238,1597,-6366,4671,-2,3,0,0
177243,1576,-6364,4706,-2,4,0,0
177247,1557,-6357,4729,-2,4,0,0
177252,1548,-6351,4753,-2,5,0,0
177257,1550,-6353,4767,-2,5,0,0
177263,1557,-6358,4775,-2,6,0,0
177267,1559,-6362,4768,-2,5,0,0
177272,1564,-6364,4762,-2,5,-1,0
177277,1560,-6362,4758,-2,4,-1,0
177283,1560,-6363,4758,-2,4,-1,0
177287,1564,-6363,4762,-2,4,0,0
177292,1557,-6354,4770,-2,3,0,0
177297,1562,-6340,4801,-2,3,0,0
177301,1573,-6318,4832,-2,3,0,0
177307,1601,-6299,4879,-2,3,0,0
177312,1631,-6287,4920,-2,2,0,0
177316,1657,-6273,4947,-2,1,-1,0
177321,1680,-6249,4969,-2,1,-1,0
177326,1687,-6231,4972,-2,1,-1,0
177331,1690,-6217,4980,-2,0,-1,0
177336,1695,-6207,4979,-2,0,-1,0
177341,1709,-6201,4976,-2,-1,-1,0
177346,1730,-6201,4977,-2,-1,-1,0
177351,1748,-6200,4967,-2,-1,-1,0
177356,1761,-6205,4953,-2,-1,-1,0
177361,1766,-6213,4930,-2,-1,-1,0
177366,1768,-6220,4903,-2,0,-1,0
177371,1765,-6231,4874,-2,0,-1,0
177376,1756,-6242,4854,-2,0,-1,0
177381,1746,-6249,4841,-2,0,-1,0
177387,1739,-6253,4839,-2,0,-1,0
177392,1735,-6256,4843,-2,0,0,0
177397,1735,-6257,4849,-2,0,0,0
177403,1728,-6255,4853,-2,-1,-1,0
177408,1719,-6250,4854,-2,0,-1,0
177413,1711,-6248,4856,-2,0,0,0
177417,1707,-6242,4856,-2,0,0,0
177421,1704,-6243,4862,-2,0,0,0
177425,1698,-6247,4864,-2,-1,0,0
177431,1691,-6249,4861,-2,-1,0,0
177436,1680,-6253,4855,-2,-1,0,0
177441,1670,-6266,4849,-2,-1,0,0
177446,1661,-6268,4841,-2,-1,0,0
177451,1652,-6271,4830,-2,-1,0,0
177456,1644,-6277,4822,-2,-1,0,0
177461,1639,-6287,4816,-2,-1,0,0
177466,1633,-6295,4809,-2,-1,0,0
177471,1632,-6300,4811,-2,-1,0,0
177476,1633,-6298,4805,-2,-1,0,0
177481,1631,-6295,4806,-2,-1,0,0
177486,1627,-6292,4809,-2,-1,-1,0
177491,1624,-6287,4816,-2,-2,0,0
177496,1625,-6284,4827,-2,-2,0,0
177501,1626,-6279,4837,-2,-2,0,0
177506,1626,-6273,4845,-2,-2,0,0
177511,1630,-6270,4854,-2,-3,0,0
177516,1633,-6269,4869,-2,-3,0,0
177521,1635,-6266,4883,-2,-3,0,0
177526,1632,-6262,4890,-2,-3,0,0
177531,1631,-6263,4901,-2,-3,0,0
177536,1629,-6263,4913,-2,-3,0,0
177541,1626,-6269,4923,-2,-3,0,0
177546,1625,-6278,4930,-2,-3,0,0
177551,1628,-6280,4935,-2,-3,0,0
177556,1631,-6278,4936,-2,-2,0,0
177560,1636,-6280,4938,-2,-2,0,0
177565,1638,-6282,4940,-2,-2,0,0
177570,1637,-6285,4942,-2,-3,0,0
177575,1636,-6292,4945,-2,-2,0,0
177580,1644,-6294,4943,-2,-2,0,0
177585,1655,-6295,4936,-2,-2,0,0
177590,1668,-6295,4933,-2,-2,0,0
177595,1679,-6300,4924,-2,-2,0,0
177600,1685,-6305,4921,-2,-2,0,0
177605,1689,-6309,4921,-2,-2,0,0
177610,1686,-6305,4917,-2,-2,0,0
177615,1684,-6295,4912,-2,-1,0,0
177620,1687,-6289,4914,-2,-1,0,0
177625,1682,-6283,4914,-2,-2,0,0
177630,1670,-6271,4912,-2,-2,0,0
177635,1666,-6262,4915,-2,-2,0,0
177640,1664,-6258,4916,-2,-2,0,0
177645,1657,-6256,4915,-2,-2,0,0
177650,1656,-6260,4910,-2,-2,0,0
177655,1656,-6269,4902,-2,-1,0,0
177660,1657,-6287,4898,-2,0,0,0
177665,1660,-6304,4890,-2,1,0,0
177670,1662,-6319,4882,-2,2,0,0
177675,1665,-6331,4872,-2,3,0,0
177680,1668,-6333,4863,-2,5,0,0
177685,1676,-6329,4850,-3,8,0,0
177690,1692,-6325,4846,-3,11,0,0
177695,1707,-6319,4845,-3,12,0,0
177700,1715,-6316,4849,-3,13,0,0
177705,1718,-6313,4847,-3,12,0,0
177710,1710,-6308,4843,-3,11,0,0
177715,1695,-6305,4836,-3,10,0,0
177720,1678,-6304,4830,-3,8,0,0
177725,1653,-6301,4833,-3,7,0,0
177730,1632,-6301,4845,-3,6,0,0
177735,1611,-6300,4864,-3,6,0,0
177740,1590,-6301,4888,-3,5,0,0
177745,1581,-6298,4910,-3,5,0,0
177750,1583,-6296,4927,-3,6,0,0
177755,1596,-6294,4944,-3,5,0,0
177760,1609,-6293,4954,-3,3,0,0
177765,1617,-6293,4961,-3,1,0,0
177770,1618,-6294,4964,-3,-1,0,0
177775,1621,-6294,4967,-3,-3,0,0
177780,1618,-6294,4979,-3,-5,0,0
177785,1593,-6294,4996,-3,-7,0,0
177790,1570,-6297,5014,-3,-9,0,0
177795,1520,-6329,5048,-3,-9,0,0
177800,1466,-6382,5093,-3,-2,0,0
177806,1447,-6391,5087,-3,9,0,0
177810,1481,-6353,5014,-3,17,0,0
177815,1538,-6293,4912,-3,19,0,0
177820,1630,-6267,4807,-3,12,0,0
177825,1703,-6265,4701,-3,3,0,0
177830,1709,-6269,4651,-3,-2,0,0
177835,1635,-6279,4636,-3,-3,0,0
177840,1432,-6277,4641,-3,1,-1,0
177845,1257,-6290,4727,-3,9,-1,0
177850,1172,-6311,4864,-4,10,-2,0
177855,1117,-6306,5015,-3,4,-1,0
177860,1106,-6261,5130,-3,-2,-1,0
177865,1161,-6241,5150,-2,-7,0,0
177870,1250,-6204,5071,-1,-14,0,0
177875,1326,-6157,4890,-1,-19,-1,0
177880,1342,-6113,4725,-2,-19,-1,0
177885,1285,-6113,4604,-2,-14,-2,0
177890,1185,-6170,4592,-3,-8,-2,0
177895,1106,-6197,4657,-3,-1,-2,0
177900,1060,-6184,4732,-2,4,-1,0
177905,1077,-6166,4831,-2,6,-1,0
177910,1149,-6113,4878,-2,8,-1,0
177915,1249,-6029,4885,-1,10,-1,0
177920,1345,-5953,4863,-1,12,-1,0
177925,1431,-5895,4828,-1,15,-1,0
177930,1455,-5878,4804,-1,19,-1,0
177935,1448,-5864,4808,-1,23,-1,0
177940,1412,-5896,4792,-1,30,-1,0
177945,1388,-5933,4804,-1,35,0,0
177950,1369,-5955,4820,-1,43,0,0
177955,1342,-5979,4789,-1,58,0,0
177960,1311,-6020,4747,-1,78,0,0
177965,1326,-6048,4718,-1,96,0,0
177970,1316,-6056,4841,-2,103,0,0
177975,1203,-6133,4999,-2,102,0,0
177980,1052,-6242,5188,-2,103,0,0
177985,977,-6342,5269,-1,103,0,0
177990,963,-6406,5236,-1,100,1,0
177995,923,-6509,5077,-2,97,0,0
178000,889,-6566,4928,-2,96,0,0
178005,800,-6614,4793,-3,101,0,0
178010,668,-6639,4742,-4,108,0,0
178015,550,-6656,4751,-4,117,0,0
178020,459,-6669,4790,-4,129,0,0
178025,399,-6635,4875,-4,142,0,0
178030,251,-6563,4974,-4,159,1,0
178035,88,-6504,5062,-5,181,1,0
178040,-82,-6430,5144,-5,207,1,0
178045,-227,-6348,5181,-5,236,2,0
178050,-364,-6251,5211,-5,264,2,0
178055,-484,-6197,5250,-5,289,2,0
178060,-649,-6161,5316,-6,310,2,0
178065,-835,-6155,5399,-6,328,2,0
178070,-1100,-6121,5448,-6,347,3,0
178075,-1362,-6070,5384,-5,378,3,0
178080,-1628,-5984,5300,-5,419,4,0
178085,-1898,-5911,5193,-5,462,4,0
178090,-2136,-5959,5052,-6,507,4,0
178095,-2350,-5962,5095,-7,550,5,0
178100,-2584,-5987,5088,-6,588,5,0
178105,-2804,-5952,5186,-6,613,6,0
178110,-2887,-5914,5246,-6,622,6,0
178115,-2874,-5923,5183,-6,620,6,0
178119,-2830,-5967,5258,-6,605,6,0
178125,-2794,-6035,5244,-5,572,7,0
178130,-2697,-6076,5150,-5,527,7,0
178135,-2686,-6162,4892,-5,467,8,0
178140,-2769,-6192,4722,-5,397,7,0
178145,-2716,-6234,4438,-5,327,6,0
178150,-2739,-6235,4237,-5,267,5,0
178155,-2729,-6234,4017,-4,214,4,0
178160,-2824,-6211,3772,-4,173,3,0
178165,-2946,-6204,3495,-4,146,3,0
178170,-3080,-6195,3184,-5,132,3,0
178175,-3249,-6264,2906,-5,131,3,0
178180,-3434,-6295,2612,-5,140,3,0
178186,-3640,-6281,2335,-5,155,4,0
178190,-3839,-6271,2092,-5,171,4,0
178196,-4044,-6310,1856,-6,187,4,0
178201,-4281,-6386,1669,-6,198,3,0
178206,-4494,-6491,1594,-6,203,3,0
178212,-4568,-6622,1593,-6,211,3,0
178217,-4699,-6753,1426,-5,223,3,0
178221,-4934,-6828,1269,-5,229,4,0
178226,-4981,-6931,1002,-5,230,3,0
178231,-5070,-6976,794,-6,233,2,0
178236,-5086,-6976,623,-6,236,2,0
178241,-5105,-6905,455,-5,245,2,0
178245,-5140,-6823,298,-5,256,2,0
178249,-5135,-6745,108,-4,272,2,0
178254,-5140,-6671,-42,-4,288,2,0
178260,-5098,-6612,-234,-4,302,3,0
178264,-5053,-6565,-386,-4,311,3,0
178270,-4966,-6528,-557,-4,313,3,0
178274,-4808,-6483,-745,-3,310,4,0
178280,-4609,-6451,-903,-3,301,4,0
178284,-4355,-6433,-1079,-3,284,4,0
178289,-4138,-6406,-1234,-4,262,4,0
178294,-3934,-6368,-1395,-4,239,4,0
178299,-3757,-6319,-1536,-4,220,3,0
178304,-3625,-6280,-1646,-4,200,2,0
178309,-3553,-6286,-1772,-3,181,2,0
178314,-3528,-6339,-1908,-3,161,2,0
178319,-3585,-6372,-2053,-3,144,2,0
178324,-3667,-6362,-2221,-3,132,2,0
178329,-3740,-6363,-2372,-2,128,2,0
178334,-3809,-6346,-2491,-3,129,2,0
178339,-3891,-6347,-2605,-3,135,2,0
178344,-4008,-6334,-2772,-4,145,2,0
178349,-4138,-6338,-2982,-3,160,2,0
178354,-4261,-6375,-3146,-3,174,2,0
178359,-4376,-6421,-3269,-3,189,2,0
178364,-4470,-6437,-3360,-3,208,3,0
178370,-4552,-6417,-3450,-4,236,3,0
178374,-4613,-6397,-3583,-4,274,3,0
178380,-4638,-6401,-3716,-4,310,3,0
178385,-4600,-6406,-3861,-4,332,3,0
178390,-4462,-6414,-3932,-3,337,4,0
178394,-4248,-6395,-3921,-3,335,5,0
178400,-3957,-6336,-3889,-3,328,5,0
178406,-3571,-6239,-3904,-4,319,5,0
178412,-3169,-6156,-4157,-3,310,5,0
178417,-2719,-6169,-4377,-2,295,5,0
178423,-2369,-6164,-4421,-1,275,5,0
178429,-2025,-6179,-4448,-1,246,4,0
178434,-1724,-6191,-4480,-1,211,4,0
178440,-1458,-6197,-4473,-2,177,3,0
178445,-1187,-6168,-4517,-3,148,2,0
178450,-930,-6151,-4565,-2,128,2,0
178455,-778,-6182,-4550,-2,113,1,0
178460,-669,-6228,-4622,-2,98,1,0
178464,-572,-6243,-4649,-2,82,1,0
178469,-552,-6249,-4670,-2,66,1,0
178473,-553,-6253,-4674,-2,54,1,0
178479,-560,-6251,-4661,-2,45,1,0
178484,-583,-6253,-4690,-2,41,1,0
178489,-604,-6260,-4724,-2,36,0,0
178494,-634,-6297,-4800,-2,28,0,0
178499,-635,-6361,-4890,-2,22,0,0
178504,-595,-6446,-4960,-2,21,0,0
178509,-534,-6527,-4977,-2,24,1,0
178514,-477,-6586,-4935,-3,29,1,0
178519,-429,-6631,-4857,-2,36,1,0
178523,-372,-6666,-4790,-2,41,1,0
178528,-340,-6688,-4710,-2,44,1,0
178532,-293,-6707,-4683,-2,43,1,0
178538,-298,-6703,-4681,-2,41,1,0
178543,-295,-6666,-4649,-2,39,1,0
178549,-338,-6613,-4773,-2,38,1,0
178553,-384,-6568,-4820,-2,36,1,0
178558,-399,-6492,-4898,-3,35,1,0
178563,-454,-6387,-5018,-3,35,1,0
178569,-521,-6292,-5107,-3,34,0,0
178574,-600,-6179,-5241,-3,34,0,0
178579,-651,-6086,-5343,-3,34,0,0
178584,-756,-5984,-5465,-3,37,0,0
178589,-850,-5911,-5588,-3,44,0,0
178593,-987,-5833,-5709,-4,51,1,0
178598,-1088,-5812,-5786,-4,57,1,0
178602,-1195,-5866,-5841,-4,70,1,0
178607,-1232,-5921,-5826,-5,89,2,0
178612,-1223,-5968,-5772,-5,103,1,0
178618,-1184,-6014,-5693,-5,110,1,0
178623,-1087,-6052,-5564,-5,108,1,0
178628,-948,-6074,-5520,-5,97,1,0
178633,-750,-6097,-5449,-4,79,1,0
178638,-563,-6113,-5386,-4,58,1,0
178642,-350,-6119,-5359,-4,35,0,0
178648,-105,-6119,-5320,-3,14,0,0
178653,87,-6101,-5322,-3,-1,0,0
178658,140,-6107,-5240,-2,-7,0,0
178662,160,-6136,-5268,-3,-7,0,0
178667,314,-6166,-5406,-4,-4,-2,0
178671,435,-6189,-5474,-4,1,-1,0
178675,459,-6168,-5533,-4,6,-1,0
178679,550,-6167,-5528,-4,6,-1,0
178684,566,-6171,-5545,-4,4,-1,0
178689,608,-6192,-5554,-4,-3,-1,0
178694,621,-6220,-5586,-4,-10,-1,0
178699,621,-6226,-5678,-3,-13,0,0
178704,624,-6222,-5743,-3,-10,0,0
178709,611,-6222,-5848,-3,-6,0,0
178714,634,-6218,-5902,-3,-4,0,0
178719,610,-6222,-5950,-4,-4,0,0
178724,537,-6219,-5910,-4,-3,0,0
178729,474,-6215,-5867,-3,0,0,0
178734,386,-6214,-5826,-3,6,1,0
178739,229,-6219,-5795,-3,16,1,0
178744,69,-6235,-5797,-3,29,1,0
178749,-60,-6262,-5826,-3,42,0,0
178754,-196,-6280,-5842,-3,51,1,0
178759,-293,-6269,-5838,-3,56,1,0
178764,-334,-6236,-5839,-3,62,1,0
178769,-350,-6204,-5806,-3,67,1,0
178774,-335,-6203,-5775,-4,72,1,0
178779,-259,-6203,-5734,-4,75,1,0
178784,-150,-6203,-5679,-4,75,1,0
178789,-32,-6202,-5631,-4,71,1,0
178794,146,-6201,-5588,-4,63,1,0
178799,319,-6201,-5566,-3,54,1,0
178804,468,-6201,-5548,-3,45,0,0
178809,610,-6198,-5542,-3,38,0,0
178814,721,-6196,-5553,-3,31,0,0
178819,805,-6196,-5566,-3,25,0,0
178824,867,-6196,-5590,-3,20,0,0
178829,909,-6192,-5616,-3,16,0,0
178834,932,-6184,-5641,-3,15,0,0
178839,945,-6180,-5669,-3,15,0,0
178844,947,-6177,-5699,-3,14,0,0
178849,932,-6173,-5724,-3,14,0,0
178854,914,-6167,-5732,-3,13,0,0
178859,880,-6156,-5723,-3,12,0,0
178864,832,-6148,-5695,-3,12,0,0
178869,783,-6142,-5675,-3,12,0,0
178874,735,-6139,-5655,-3,12,0,0
178879,705,-6144,-5648,-3,12,0,0
178884,706,-6167,-5655,-3,11,0,0
178889,727,-6200,-5669,-3,10,-1,0
178894,725,-6212,-5674,-3,9,0,0
178899,741,-6205,-5660,-3,8,0,0
178904,779,-6201,-5640,-3,8,0,0
178909,842,-6216,-5623,-3,9,0,0
178914,917,-6232,-5610,-3,9,0,0
178919,994,-6234,-5583,-3,9,0,0
178924,1059,-6228,-5550,-3,10,0,0
178929,1106,-6218,-5528,-3,10,0,0
178934,1149,-6208,-5513,-3,12,0,0
178939,1184,-6202,-5505,-3,15,0,0
178944,1215,-6199,-5508,-3,18,0,0
178949,1237,-6200,-5504,-4,21,1,0
178954,1207,-6205,-5484,-4,24,1,0
178959,1131,-6203,-5449,-4,27,0,0
178964,1003,-6200,-5424,-4,30,0,0
178969,959,-6219,-5338,-4,34,0,0
178973,868,-6234,-5326,-4,38,0,0
178978,722,-6263,-5329,-4,39,0,0
178983,634,-6295,-5350,-4,38,0,0
178988,616,-6314,-5393,-4,38,0,0
178993,663,-6319,-5395,-4,39,-1,0
178998,701,-6307,-5449,-4,40,-1,0
179003,782,-6299,-5460,-4,38,-2,0
179008,770,-6279,-5530,-4,35,-2,0
179013,722,-6249,-5543,-3,32,-2,0
179018,524,-6220,-5574,-3,40,-2,0
179023,458,-6203,-5655,-3,57,-3,0
179028,435,-6196,-5733,-4,71,-2,0
179033,557,-6180,-5761,-4,73,-1,0
179038,760,-6133,-5847,-4,69,-1,0
179043,1000,-6117,-5877,-4,57,0,0
179048,1145,-6118,-5903,-4,51,0,0
179053,1309,-6138,-5912,-3,49,0,0
179058,1483,-6171,-5903,-3,46,0,0
179064,1595,-6207,-5877,-3,43,-1,0
179069,1677,-6233,-5810,-3,38,-1,0
179074,1717,-6240,-5726,-3,32,-1,0
179079,1755,-6242,-5642,-3,26,-1,0
179084,1799,-6241,-5574,-2,23,0,0
179089,1850,-6230,-5516,-2,21,-1,0
179093,1906,-6212,-5492,-2,19,-1,0
179099,1962,-6204,-5477,-2,14,-1,0
179105,2031,-6186,-5479,-2,8,-1,0
179109,2097,-6161,-5496,-2,2,-1,0
179114,2137,-6139,-5535,-2,-2,-1,0
179119,2152,-6122,-5584,-2,-6,-1,0
179124,2136,-6113,-5638,-2,-8,-1,0
179129,2101,-6112,-5666,-2,-10,-1,0
179133,2041,-6108,-5681,-2,-10,-1,0
179139,1958,-6101,-5678,-2,-10,-1,0
179144,1871,-6099,-5665,-2,-10,-1,0
179149,1802,-6101,-5633,-2,-10,-1,0
179154,1761,-6099,-5587,-2,-10,-1,0
179158,1748,-6096,-5538,-2,-10,-1,0
179163,1752,-6097,-5493,-2,-10,-1,0
179168,1763,-6098,-5457,-2,-12,-1,0
179173,1779,-6102,-5426,-2,-15,-1,0
179178,1798,-6111,-5398,-2,-18,-1,0
179183,1810,-6123,-5372,-2,-20,-1,0
179189,1819,-6134,-5354,-2,-21,-1,0
179194,1822,-6151,-5351,-2,-22,-1,0
179199,1812,-6171,-5364,-2,-21,-1,0
179204,1792,-6194,-5390,-2,-19,-1,0
179209,1779,-6208,-5416,-2,-18,-1,0
179214,1754,-6214,-5452,-2,-17,-1,0
179219,1725,-6217,-5481,-2,-14,-1,0
179224,1697,-6214,-5509,-2,-12,-1,0
179229,1715,-6201,-5508,-2,-9,-1,0
179233,1709,-6189,-5514,-2,-8,-1,0
179238,1687,-6176,-5519,-2,-8,-1,0
179244,1649,-6173,-5535,-2,-8,-1,0
179248,1601,-6172,-5559,-2,-9,-1,0
179253,1620,-6170,-5537,-2,-8,-1,0
179258,1580,-6155,-5570,-2,-5,-1,0
179264,1596,-6157,-5552,-2,-5,-1,0
179268,1555,-6149,-5572,-2,-6,-1,0
179273,1534,-6135,-5566,-2,-7,-1,0
179278,1521,-6116,-5563,-2,-7,-1,0
179283,1505,-6098,-5585,-2,-5,-1,0
179288,1477,-6098,-5600,-2,-5,-1,0
179293,1445,-6103,-5637,-2,-6,-1,0
179298,1433,-6113,-5638,-2,-7,-1,0
179303,1429,-6109,-5641,-2,-6,0,0
179308,1446,-6104,-5637,-2,-4,0,0
179313,1475,-6096,-5623,-2,-4,-1,0
179318,1502,-6094,-5623,-2,-4,-1,0
179323,1522,-6095,-5624,-2,-5,-1,0
179328,1532,-6098,-5633,-2,-6,-1,0
179333,1536,-6101,-5641,-2,-6,-1,0
179339,1533,-6105,-5645,-2,-5,-1,0
179345,1530,-6111,-5645,-2,-4,-1,0
179351,1527,-6115,-5641,-2,-3,-1,0
179356,1522,-6121,-5636,-2,-3,-1,0
179362,1524,-6127,-5631,-2,-3,-1,0
179367,1527,-6129,-5629,-2,-3,0,0
179371,1532,-6136,-5635,-2,-5,-1,0
179376,1536,-6139,-5618,-2,-7,-1,0
179381,1532,-6140,-5597,-2,-6,-1,0
179386,1546,-6140,-5557,-2,-4,-1,0
179391,1563,-6141,-5526,-2,-3,-1,0
179396,1576,-6141,-5511,-2,-4,-1,0
179401,1580,-6141,-5512,-2,-6,-1,0
179406,1584,-6146,-5529,-2,-7,-1,0
179412,1583,-6145,-5548,-2,-7,-1,0
179417,1574,-6145,-5566,-2,-7,-1,0
179421,1572,-6147,-5563,-2,-7,-1,0
179426,1558,-6151,-5553,-2,-7,-1,0
179431,1549,-6150,-5536,-2,-7,-1,0
179436,1546,-6152,-5515,-2,-7,-1,0
179441,1544,-6152,-5497,-2,-8,-1,0
179446,1548,-6150,-5491,-2,-8,-1,0
179451,1556,-6151,-5494,-2,-8,-1,0
179456,1560,-6151,-5508,-2,-9,-1,0
179461,1564,-6149,-5527,-2,-10,-1,0
179466,1559,-6147,-5546,-2,-11,-1,0
179471,1544,-6145,-5559,-2,-12,-1,0
179475,1532,-6142,-5568,-2,-12,-1,0
179481,1524,-6139,-5574,-2,-12,-1,0
179486,1521,-6137,-5575,-2,-12,-1,0
179492,1522,-6130,-5575,-2,-12,-1,0
179497,1527,-6126,-5572,-2,-12,-1,0
179502,1531,-6119,-5569,-2,-14,-1,0
179507,1536,-6107,-5567,-2,-15,-1,0
179513,1533,-6094,-5564,-2,-17,-1,0
179518,1526,-6076,-5569,-2,-19,-1,0
179523,1512,-6053,-5574,-2,-20,-1,0
179529,1496,-6039,-5588,-2,-21,-1,0
179533,1499,-6045,-5608,-2,-23,-1,0
179539,1511,-6096,-5620,-2,-26,-1,0
179544,1515,-6115,-5632,-2,-30,-1,0
179549,1511,-6086,-5597,-2,-32,-1,0
179554,1506,-6040,-5581,-2,-33,-1,0
179559,1519,-6023,-5582,-2,-33,-1,0
179564,1526,-6010,-5620,-2,-34,-1,0
179569,1515,-5984,-5663,-2,-37,-1,0
179573,1500,-5951,-5694,-2,-41,-1,0
179578,1489,-5941,-5708,-2,-43,-1,0
179583,1512,-5959,-5699,-2,-46,-1,0
179589,1507,-5989,-5692,-2,-49,-1,0
179593,1508,-6002,-5655,-2,-53,-1,0
179599,1515,-6024,-5632,-2,-57,-2,0
179605,1490,-6039,-5635,-2,-59,-2,0
179610,1400,-6051,-5675,-2,-62,-2,0
179615,1325,-6096,-5725,-2,-68,-2,0
179621,1211,-6070,-5792,-2,-74,-2,0
179626,1105,-6019,-5831,-2,-76,-2,0
179630,1013,-5964,-5904,-2,-73,-1,0
179635,985,-5948,-5977,-2,-68,-2,0
179640,955,-5949,-6069,-2,-62,-2,0
179644,913,-5962,-6153,-2,-54,-2,0
179648,890,-5995,-6149,-2,-49,-2,0
179653,838,-5980,-6106,-3,-49,-1,0
179658,791,-5944,-5949,-3,-54,-2,0
179664,729,-5866,-5803,-2,-60,-2,0
179670,678,-5816,-5624,-2,-66,-2,0
179674,681,-5840,-5454,-2,-70,-2,0
179680,757,-5925,-5374,-2,-75,-3,0
179685,847,-6116,-5362,-2,-79,-2,0
179690,931,-6216,-5405,-2,-87,-2,0
179695,1050,-6303,-5386,-2,-101,-2,0
179699,1148,-6304,-5343,-2,-117,-1,0
179705,1256,-6288,-5260,-2,-134,-1,0
179711,1378,-6286,-5173,-1,-158,-2,0
179717,1472,-6269,-5175,0,-191,-2,0
179722,1626,-6308,-5154,1,-230,-3,0
179727,1745,-6311,-5256,1,-271,-3,0
179732,1764,-6299,-5291,1,-312,-4,0
179737,1705,-6321,-5320,2,-350,-4,0
179742,1598,-6427,-5326,2,-382,-4,0
179747,1445,-6477,-5265,3,-406,-4,0
179752,1151,-6505,-5200,3,-423,-5,0
179757,771,-6465,-5034,4,-436,-7,0
179763,373,-6424,-4987,4,-445,-8,0
179767,-76,-6386,-4833,4,-455,-8,0
179772,-576,-6286,-4673,4,-463,-8,0
179777,-1050,-6238,-4440,4,-467,-8,0
179782,-1541,-6215,-4243,4,-464,-8,0
179787,-2029,-6159,-4096,4,-456,-7,0
179792,-2373,-6094,-3914,3,-444,-7,0
179797,-2766,-6029,-3710,3,-430,-7,0
179802,-3077,-5927,-3478,3,-416,-7,0
179807,-3317,-5931,-3267,3,-399,-6,0
179812,-3513,-5985,-3144,2,-381,-7,0
179817,-3768,-6039,-3008,2,-368,-6,0
179822,-3982,-6071,-2842,1,-358,-5,0
179827,-4096,-6151,-2652,1,-348,-5,0
179832,-4206,-6188,-2511,1,-336,-5,0
179839,-4303,-6229,-2330,1,-325,-5,0
179844,-4370,-6223,-2186,1,-315,-5,0
179848,-4448,-6282,-2053,1,-302,-5,0
179853,-4585,-6311,-1940,1,-285,-4,0
179858,-4707,-6306,-1796,1,-265,-3,0
179864,-4815,-6292,-1676,1,-241,-3,0
179868,-4917,-6264,-1555,1,-215,-3,0
179873,-4997,-6268,-1417,1,-187,-2,0
179878,-5117,-6301,-1319,0,-164,-2,0
179882,-5187,-6343,-1219,0,-144,-2,0
179887,-5258,-6350,-1108,0,-122,-1,0
179893,-5302,-6354,-1006,-1,-102,-1,0
179899,-5289,-6340,-957,-1,-84,-1,0
179903,-5259,-6265,-934,-1,-66,0,0
179908,-5315,-6141,-800,0,-47,0,0
179913,-5392,-6088,-630,-1,-29,0,0
179919,-5461,-6078,-522,-2,-14,0,0
179925,-5604,-6057,-392,-2,-1,1,0
179929,-5680,-6099,-335,-2,8,1,0
179933,-5765,-6121,-267,-2,14,2,0
179938,-5782,-6127,-199,-2,20,2,0
179942,-5779,-6076,-161,-3,27,2,0
179946,-5726,-6030,-124,-3,33,2,0
179950,-5683,-5991,-100,-3,39,2,0
179954,-5618,-5967,-82,-3,42,2,0
179958,-5510,-5925,-16,-4,41,2,0
179962,-5430,-5873,36,-4,33,2,0
179966,-5333,-5882,30,-4,26,2,0
179970,-5280,-5903,20,-4,20,2,0
179974,-5207,-5963,-76,-4,16,2,0
179978,-5143,-6070,-170,-4,11,2,0
179982,-5084,-6173,-229,-4,7,2,0
179987,-5028,-6246,-306,-3,4,2,0
179992,-4964,-6307,-355,-3,6,2,0
179997,-4900,-6354,-492,-3,15,2,0
180002,-4855,-6380,-584,-3,25,2,0
180007,-4838,-6434,-660,-4,37,2,0
180012,-4857,-6435,-629,-4,47,2,0
180017,-4903,-6428,-657,-4,56,2,0
180022,-4968,-6464,-649,-4,63,2,0
180027,-5038,-6512,-644,-4,72,2,0
180032,-5111,-6487,-698,-4,80,3,0
180037,-5143,-6422,-691,-4,89,3,0
180042,-5213,-6357,-708,-5,99,2,0
180047,-5252,-6317,-721,-5,108,2,0
180052,-5332,-6329,-682,-6,115,2,1
180057,-5388,-6373,-637,-6,116,3,1
180062,-5444,-6388,-608,-6,115,3,1
180067,-5429,-6369,-602,-5,112,3,1
180072,-5379,-6311,-669,-5,109,2,1
180077,-5305,-6236,-767,-5,100,2,1
180082,-5223,-6186,-904,-5,84,1,1
180087,-5140,-6131,-1099,-4,61,1,1
180092,-5066,-6046,-1269,-4,31,0,1
180097,-5018,-5963,-1466,-4,-4,0,1
180102,-5057,-5862,-1566,-3,-40,-1,1
180107,-5173,-5791,-1693,-3,-73,-2,1
180112,-5433,-5669,-1728,-3,-99,-3,1
180117,-5882,-5518,-1737,-4,-115,-5,1
180122,-6448,-5440,-1603,-4,-120,-6,1
180127,-7151,-5328,-1597,-6,-112,-7,1
180132,-7922,-5240,-1350,-6,-101,-7,1
180137,-8673,-5082,-1362,-6,-84,-8,1
180142,-9379,-5038,-1475,-6,-67,-8,1
180147,-9911,-5062,-1877,-6,-49,-8,1
180152,-10363,-5087,-2330,-6,-34,-6,1
180157,-11008,-5220,-3130,-5,-21,-5,1
180162,-11776,-5665,-3883,-3,-42,-13,1
180167,-9589,-6714,-3850,-3,-86,-14,1
180172,-8698,-7072,-4356,-9,-51,11,1
180177,-8549,-7089,-5008,-9,-28,17,1
180182,-5881,-7003,-4245,-7,6,14,1
180187,-4782,-6962,-4378,-5,93,10,1
180192,-4108,-7146,-4527,-1,96,10,1
180197,-4901,-7307,-5477,-3,69,15,1
180202,-6090,-7325,-5965,-6,60,21,1
180207,-6981,-7096,-5969,-9,118,24,1
180212,-7170,-6796,-5425,-11,195,26,1
180217,-6740,-6561,-4953,-11,239,28,1
180222,-6081,-6503,-4731,-12,238,30,1
180227,-5355,-6577,-4964,-14,216,30,1
180232,-4837,-6711,-5244,-18,189,31,1
180237,-4675,-6798,-5307,-22,157,31,1
180242,-4662,-6796,-5046,-26,129,31,1
180247,-4712,-6747,-4676,-29,113,32,1
180252,-4675,-6705,-4371,-31,99,32,1
180256,-4698,-6697,-4269,-34,78,32,1
180261,-4575,-6694,-4399,-37,55,32,1
180266,-4416,-6650,-4575,-41,39,31,1
180271,-4131,-6538,-4723,-44,26,30,1
180276,-3885,-6394,-4770,-47,13,30,1
180281,-3679,-6261,-4781,-49,1,29,1
180286,-3481,-6153,-4931,-51,-5,28,1
180291,-3287,-6101,-5124,-53,-4,28,1
180296,-3317,-6068,-5103,-56,-3,27,1
180301,-3215,-5959,-5008,-60,-5,24,1
180306,-3075,-5822,-4827,-61,2,23,1
180311,-3074,-5730,-4706,-62,5,22,1
180316,-2978,-5655,-4761,-64,1,20,1
180321,-2802,-5607,-4844,-66,-1,19,1
180327,-2642,-5570,-4828,-68,-3,17,1
180331,-2516,-5537,-4634,-70,-11,14,1
180337,-2415,-5502,-4316,-71,-22,11,1
180342,-2296,-5481,-4022,-72,-32,9,1
180347,-2199,-5480,-3853,-72,-41,7,1
180352,-2184,-5499,-3784,-73,-53,3,1
180356,-2175,-5506,-3720,-74,-66,0,1
180362,-2143,-5491,-3649,-74,-77,-3,1
180367,-2088,-5445,-3493,-75,-84,-5,1
180372,-2084,-5387,-3390,-75,-91,-7,1
180377,-2014,-5347,-3336,-75,-96,-9,1
180382,-1919,-5337,-3267,-75,-99,-11,1
180388,-1825,-5328,-3245,-75,-100,-13,1
180393,-1817,-5318,-3219,-75,-99,-16,1
180398,-1861,-5308,-3181,-74,-98,-19,1
180404,-1905,-5301,-3140,-73,-94,-21,1
180409,-1884,-5294,-3117,-72,-86,-23,1
180414,-1839,-5318,-2969,-71,-77,-26,1
180419,-1918,-5360,-2914,-70,-74,-28,1
180424,-2012,-5392,-3003,-70,-72,-31,1
180429,-2049,-5437,-2979,-68,-67,-33,1
180435,-2015,-5456,-2934,-67,-62,-36,1
180439,-1999,-5450,-2957,-67,-59,-39,1
180445,-1935,-5464,-2865,-65,-59,-43,1
180450,-1930,-5500,-2710,-63,-61,-46,1
180454,-1952,-5541,-2520,-62,-62,-49,1
180460,-1973,-5575,-2310,-60,-61,-52,1
180465,-2003,-5598,-2081,-58,-57,-56,1
180469,-2061,-5617,-1957,-56,-53,-59,1
180474,-2089,-5638,-1891,-53,-49,-62,1
180479,-2123,-5656,-1864,-51,-44,-65,1
180484,-2128,-5664,-1798,-49,-39,-69,1
180490,-2091,-5676,-1676,-47,-34,-72,1
180494,-2036,-5708,-1485,-45,-29,-75,1
180499,-1995,-5765,-1228,-42,-25,-78,1
180505,-1975,-5837,-926,-40,-23,-81,1
180511,-2013,-5912,-670,-37,-23,-84,1
180516,-2047,-5983,-486,-34,-22,-87,1
180521,-2064,-6042,-441,-31,-22,-89,1
180527,-2068,-6085,-411,-28,-23,-92,1
180533,-2087,-6132,-333,-24,-23,-94,1
180538,-2189,-6190,-335,-21,-23,-97,1
180543,-2337,-6269,-316,-18,-22,-99,1
180548,-2563,-6362,-318,-16,-18,-101,1
180553,-2780,-6459,-268,-13,-10,-103,1
180559,-2973,-6561,-259,-10,2,-105,1
180564,-3142,-6689,-233,-6,12,-106,1
180570,-3349,-6833,-226,-3,19,-107,1
180575,-3791,-6986,-91,0,26,-110,1
180580,-4254,-7105,-101,3,29,-113,1
180585,-5986,-7276,-614,10,33,-115,1
180589,-2792,-7738,-1535,20,52,-136,1
180594,-4733,-6079,-3655,-14,-63,-40,1
180599,-6397,-6908,-4400,-19,-538,-16,1
180604,-7823,-4733,-3767,-40,-462,4,1
180609,-9045,-1718,-1595,-40,-90,27,1
180614,-9389,118,972,-35,252,16,1
180619,-9246,426,1432,-33,414,4,1
180624,-7623,-1235,229,-17,326,-4,1
180628,-4335,-3399,-581,-10,138,6,1
180633,-1827,-5253,-2837,-20,-12,16,1
180638,440,-6668,-3675,-28,-53,6,1
180643,1239,-7176,-1408,-24,-74,-1,1
180648,-221,-7039,412,-24,-129,0,1
180653,-2486,-6759,1304,-17,-159,5,1
180658,-4455,-6528,2126,-9,-112,9,1
180663,-5967,-6455,2014,-5,-39,16,1
180668,-5935,-6591,1308,1,-2,21,1
180673,-6309,-6801,524,0,23,25,1
180677,-4494,-6903,-1208,-2,1,24,1
180682,-3657,-6884,-1532,-5,30,22,1
180687,-3401,-6886,-1237,-5,-14,22,1
180691,-4662,-6818,-577,-2,-20,24,1
180697,-5917,-6739,244,3,-2,28,1
180702,-6895,-6578,539,6,56,33,1
180706,-6775,-6500,542,9,92,37,1
180711,-5832,-6493,97,9,95,38,1
180715,-4710,-6606,-217,8,75,38,1
180719,-4239,-6746,-81,8,35,38,1
180724,-4544,-6793,552,9,3,39,1
180729,-5239,-6720,1062,11,-5,40,1
180733,-5843,-6566,1317,14,6,43,1
180738,-6009,-6414,1212,16,14,45,1
180743,-5709,-6305,699,18,17,46,1
180748,-5298,-6296,346,19,7,46,1
180753,-5022,-6317,259,21,-9,45,1
180758,-4969,-6337,387,23,-20,45,1
180763,-5079,-6325,688,26,-18,45,1
180768,-5296,-6300,853,28,-11,46,1
180772,-5305,-6264,721,31,3,47,1
180776,-5194,-6248,409,33,17,47,1
180781,-4975,-6229,80,35,19,47,1
180786,-4783,-6210,-85,37,20,47,1
180791,-4730,-6195,14,39,23,47,1
180796,-4764,-6199,241,42,29,47,1
180801,-4763,-6221,319,45,38,47,1
180806,-4699,-6254,210,47,48,47,1
180811,-4528,-6269,-10,49,54,47,1
180816,-4367,-6248,-168,50,54,46,1
180821,-4245,-6208,-154,52,51,45,1
180826,-4197,-6166,-73,54,48,44,1
180831,-4186,-6130,-15,56,45,43,1
180836,-4207,-6100,22,58,43,42,1
180841,-4098,-6077,15,60,42,40,1
180846,-4028,-6058,-72,62,40,40,1
180851,-3973,-6058,-145,63,35,38,1
180856,-3847,-6127,-209,64,33,37,1
180861,-3749,-6137,-233,66,35,36,1
180866,-3615,-6145,-276,67,33,34,1
180871,-3415,-6144,-336,68,34,33,1
180876,-3268,-6143,-410,69,35,32,1
180881,-3127,-6141,-508,70,37,30,1
180886,-2843,-6129,-679,71,44,29,1
180891,-2696,-6123,-860,72,49,28,1
180896,-2720,-6102,-1024,72,44,24,1
180901,-2722,-6026,-1284,72,42,21,1
180906,-2775,-5937,-1526,73,46,19,1
180911,-2891,-5810,-1804,74,48,16,1
180916,-3209,-5726,-1763,76,44,14,1
180921,-3471,-5636,-1497,75,43,9,1
180926,-3587,-5567,-1348,74,51,5,1
180931,-3509,-5513,-1436,74,58,1,1
180936,-3298,-5494,-1424,75,57,-2,1
180941,-2990,-5497,-1530,76,51,-7,1
180946,-2720,-5515,-1818,75,43,-12,1
180951,-2552,-5551,-2121,76,31,-17,1
180956,-2595,-5580,-2393,75,19,-22,1
180961,-2730,-5596,-2638,73,11,-27,1
180966,-2865,-5625,-2787,72,7,-31,1
180971,-2993,-5678,-2999,70,6,-36,1
180975,-3081,-5744,-3413,69,5,-40,1
180981,-3081,-5852,-3567,70,2,-46,1
180986,-3050,-5961,-3755,68,1,-50,1
180991,-3198,-7204,-4210,65,-1,-53,1
180996,-504,-7380,-1386,72,29,-72,1
181001,-2772,-6603,-3528,48,63,-26,1
181006,-4716,-6873,-5364,27,-307,-3,1
181012,-6382,-6357,-6824,18,-330,10,1
181016,-7810,-3499,-8189,-6,-36,20,1
181022,-7618,-2587,-9126,-7,50,13,1
181027,-7575,-2699,-7869,-13,69,13,1
181033,-7093,-3540,-7654,-20,-26,17,1
181039,-6020,-4888,-4919,-17,-51,20,1
181045,-5021,-6101,-3843,-16,10,17,1
181050,-2677,-6932,-3553,-14,42,9,1
181055,-1856,-7315,-5383,-19,39,11,1
181060,-1621,-7258,-6679,-25,-15,12,1
181065,-2423,-6829,-7560,-32,-12,16,1
181070,-3141,-6349,-6963,-37,-2,15,1
181075,-3815,-6043,-6157,-39,5,14,1
181080,-4711,-6070,-5042,-37,5,17,1
181086,-5139,-6217,-5099,-37,6,16,1
181092,-5186,-6356,-5626,-40,25,18,1
181097,-4892,-6353,-6495,-44,31,20,1
181103,-4232,-6221,-6769,-49,24,20,1
181108,-3630,-6074,-6762,-52,21,20,1
181113,-3318,-6067,-6298,-53,4,20,1
181119,-3490,-6165,-5975,-55,-12,20,1
181124,-3911,-6296,-5796,-56,-18,22,1
181129,-4370,-6356,-5867,-59,-13,23,1
181134,-4609,-6327,-5948,-62,-9,24,1
181139,-4673,-6254,-6000,-64,-8,26,1
181145,-4430,-6200,-5985,-67,-11,26,1
181150,-4201,-6213,-5869,-68,-15,26,1
181154,-4011,-6282,-5797,-70,-24,26,1
181160,-3995,-6357,-5759,-71,-32,26,1
181165,-4052,-6403,-5702,-73,-35,26,1
181170,-4144,-6405,-5620,-75,-35,26,1
181174,-4201,-6371,-5467,-77,-37,26,1
181179,-4179,-6331,-5343,-78,-38,26,1
181184,-4170,-6325,-5226,-80,-39,26,1
181188,-4098,-6335,-5198,-81,-43,25,1
181192,-3999,-6354,-5169,-82,-44,24,1
181197,-3920,-6382,-5102,-83,-44,23,1
181201,-3816,-6394,-4989,-85,-47,21,1
181205,-3708,-6393,-4862,-85,-49,20,1
181210,-3631,-6385,-4718,-86,-52,18,1
181214,-3564,-6377,-4582,-86,-57,17,1
181218,-3430,-6366,-4483,-87,-60,15,1
181222,-3324,-6347,-4353,-87,-62,14,1
181227,-3126,-6312,-4215,-87,-68,13,1
181231,-2925,-6260,-4000,-87,-74,13,1
181235,-3006,-6188,-3738,-87,-82,10,1
181240,-3076,-6080,-3468,-87,-97,7,1
181245,-3044,-5945,-3175,-87,-103,5,1
181250,-2990,-5785,-2992,-87,-102,3,1
181255,-2963,-5625,-2878,-87,-105,1,1
181260,-3041,-5459,-2846,-87,-114,0,1
181265,-3101,-5294,-2856,-86,-120,-2,1
181270,-3038,-5131,-2867,-85,-118,-4,1
181275,-2934,-4969,-2855,-83,-112,-7,1
181280,-2739,-4822,-2818,-82,-111,-9,1
181285,-2595,-4715,-2759,-81,-110,-11,1
181290,-2617,-4645,-2740,-81,-111,-12,1
181295,-2594,-4599,-2689,-80,-106,-14,1
181300,-2524,-4569,-2620,-78,-94,-16,1
181305,-2423,-4545,-2553,-77,-80,-18,1
181310,-2287,-4531,-2503,-76,-71,-20,1
181315,-2166,-4532,-2457,-74,-63,-23,1
181320,-2127,-4549,-2368,-72,-58,-25,1
181325,-2074,-4580,-2219,-71,-52,-28,1
181330,-2053,-4615,-2044,-70,-45,-31,1
181335,-2045,-4659,-1857,-68,-40,-34,1
181340,-1993,-4722,-1701,-66,-36,-37,1
181345,-1951,-4810,-1574,-64,-35,-40,1
181350,-1913,-4922,-1425,-62,-35,-43,1
181355,-1834,-5054,-1290,-61,-36,-46,1
181360,-1784,-5199,-1114,-59,-36,-49,1
181365,-1752,-5349,-901,-57,-39,-52,1
181370,-1721,-5499,-709,-55,-41,-55,1
181375,-1749,-5649,-523,-53,-43,-57,1
181380,-1813,-5797,-371,-51,-46,-60,1
181385,-1840,-5929,-306,-49,-45,-63,1
181390,-1876,-6060,-271,-47,-43,-66,1
181395,-1921,-6187,-219,-45,-42,-68,1
181400,-1975,-6302,-170,-43,-41,-71,1
181405,-2087,-6403,-121,-40,-39,-74,1
181410,-2224,-6486,-54,-38,-38,-77,1
181415,-2403,-6563,-6,-35,-34,-80,1
181420,-2640,-6630,32,-32,-29,-83,1
181425,-2820,-6683,33,-29,-22,-86,1
181430,-2945,-6735,27,-25,-15,-89,1
181435,-3082,-6787,-66,-22,-11,-91,1
181440,-3155,-6840,-122,-18,-6,-93,1
181445,-3251,-6895,-140,-14,2,-95,1
181450,-3390,-6946,-195,-11,9,-98,1
181455,-3527,-6996,-252,-7,18,-100,1
181460,-3794,-7067,-313,-3,28,-102,1
181465,-4296,-7163,-363,0,42,-104,1
181470,-4842,-7259,-338,4,66,-108,1
181475,-5228,-7339,-473,8,76,-109,1
181480,-5514,-7402,-726,14,80,-109,1
181485,-2387,-7597,1589,26,70,-111,1
181490,-4386,-7255,-978,9,174,-77,1
181495,-6100,-4968,-3178,1,-270,-21,1
181500,-7568,-4512,-1470,-9,-609,-5,1
181505,-8827,-1599,-2012,-26,-226,19,1
181510,-9906,-28,-378,-26,146,20,1
181515,-10076,1186,1037,-27,418,10,1
181520,-10270,505,700,-18,392,12,1
181525,-7275,-1907,-204,-9,185,10,1
181530,-4108,-3974,-489,-7,75,22,1
181535,-1334,-5747,-2759,-18,16,23,1
181540,1017,-6814,-1120,-15,-14,11,1
181545,243,-7054,589,-14,-84,11,1
181550,-2131,-6850,1549,-10,-147,14,1
181555,-4166,-6464,1916,-5,-123,20,1
181560,-5911,-6125,2004,2,-44,26,1
181565,-6626,-6044,1954,8,6,33,1
181570,-6311,-6139,825,8,32,36,1
181575,-5313,-6436,-202,8,7,40,1
181580,-3674,-6516,-1154,4,23,35,1
181585,-3357,-6683,-827,5,4,35,1
181590,-4195,-6630,-459,6,-21,36,1
181595,-5795,-6551,131,10,-3,42,1
181600,-7019,-6319,296,13,47,46,1
181605,-7371,-6152,167,15,100,51,1
181610,-6800,-6114,-168,16,122,53,1
181615,-5706,-6227,-579,15,112,55,1
181620,-4831,-6406,-477,14,90,54,1
181625,-4658,-6540,-168,14,60,54,1
181630,-5210,-6553,453,16,40,56,1
181635,-5799,-6436,653,18,36,58,1
181639,-6101,-6275,712,19,47,60,1
181645,-5914,-6129,432,19,50,62,1
181650,-5401,-6045,31,20,42,61,1
181655,-4918,-6049,-145,21,22,61,1
181660,-4741,-6079,-88,23,1,60,1
181664,-4723,-6106,78,25,-12,60,1
181669,-4802,-6123,321,27,-9,60,1
181675,-4852,-6132,251,29,-1,60,1
181680,-4858,-6164,-1,32,6,60,1
181685,-4684,-6211,-467,34,12,59,1
181690,-4549,-6255,-727,35,14,58,1
181695,-4407,-6271,-873,36,10,57,1
181700,-4389,-6279,-767,38,12,57,1
181705,-4400,-6274,-679,41,16,56,1
181710,-4406,-6288,-690,43,24,55,1
181715,-4333,-6319,-864,46,30,54,1
181720,-4182,-6356,-956,48,35,52,1
181724,-3986,-6384,-1029,49,38,50,1
181730,-3754,-6422,-986,51,41,49,1
181735,-3668,-6461,-945,52,40,48,1
181740,-3669,-6507,-900,54,36,47,1
181745,-3607,-6541,-860,56,35,45,1
181749,-3450,-6585,-818,58,38,44,1
181754,-3396,-6619,-984,59,34,43,1
181759,-3383,-6650,-971,61,23,41,1
181764,-3375,-6656,-930,62,14,39,1
181770,-3311,-6666,-769,64,11,36,1
181775,-3274,-6686,-729,66,11,34,1
181781,-3158,-6722,-739,68,10,32,1
181786,-3053,-6765,-900,70,9,30,1
181791,-2930,-6792,-1008,71,10,28,1
181796,-2732,-6774,-1134,72,13,26,1
181801,-2379,-6704,-1238,74,21,25,1
181806,-2162,-6617,-1401,76,27,23,1
181810,-1999,-6519,-1591,77,24,19,1
181814,-1871,-6388,-1934,78,26,17,1
181819,-1942,-6260,-2173,80,32,15,1
181824,-2161,-6121,-2277,82,35,12,1
181829,-2342,-5944,-2323,81,38,8,1
181834,-2695,-5785,-2066,82,44,4,1
181839,-2888,-5627,-1799,81,50,1,1
181844,-2876,-5501,-1730,82,63,-2,1
181849,-2683,-5428,-1581,83,72,-5,1
181854,-2388,-5395,-1654,84,72,-8,1
181859,-2031,-5395,-1809,84,67,-12,1
181864,-1814,-5410,-2020,84,58,-16,1
181869,-1698,-5417,-2302,84,48,-19,1
181874,-1672,-5422,-2377,84,42,-23,1
181879,-1730,-5402,-2442,82,39,-26,1
181884,-1833,-5364,-2493,81,39,-30,1
181890,-1869,-5352,-2454,81,42,-33,1
181894,-1947,-5358,-2513,80,46,-36,1
181899,-1934,-5395,-2748,79,49,-39,1
181904,-1926,-5473,-2876,79,52,-43,1
181909,-1907,-5582,-2945,78,51,-46,1
181914,-1939,-5701,-2996,76,51,-48,1
181920,-1963,-5832,-2974,75,51,-51,1
181925,-2032,-5977,-2986,74,52,-53,1
181931,-2141,-6128,-3136,73,51,-55,1
181936,-2287,-6290,-3311,71,46,-58,1
181940,-2447,-6452,-3473,69,41,-60,1
181945,-2622,-6611,-3559,66,39,-61,1
181950,-2761,-6780,-3543,64,39,-62,1
181955,-2868,-6971,-3512,62,40,-64,1
181959,-3008,-7176,-3613,60,37,-65,1
181964,-1838,-8491,-4711,59,35,-66,1
181969,764,-9618,-1699,62,112,-84,1
181974,-1685,-8174,-3796,33,72,-10,1
181979,-3784,-8056,-5593,20,-381,1,1
181985,-5583,-6857,-6978,13,-382,13,1
181991,-7126,-4300,-8321,-7,-142,22,1
181995,-7891,-3108,-8391,-3,33,7,1
182000,-7341,-2904,-6253,-12,158,5,1
182004,-6801,-3568,-4873,-15,110,14,1
182009,-5900,-5151,-2684,-9,-17,18,1
182014,-5218,-6696,-2524,-9,-84,15,1
182021,-3046,-7724,-3145,-6,-31,13,1
182027,-2098,-8252,-4613,-10,47,15,1
182032,-1029,-8238,-5593,-15,16,13,1
182037,-1562,-7882,-6355,-20,-23,16,1
182041,-2226,-7328,-6003,-23,-45,16,1
182046,-3436,-6888,-5479,-24,-12,18,1
182052,-4022,-6640,-4370,-24,14,16,0
182056,-4764,-6624,-3739,-22,38,19,0
182061,-5004,-6704,-3735,-23,37,18,0
182066,-5030,-6728,-4230,-25,42,19,0
182072,-4615,-6667,-4627,-28,43,20,0
182076,-4030,-6531,-4692,-31,44,20,0
182081,-3346,-6410,-4352,-33,33,18,0
182086,-3036,-6367,-3870,-33,10,16,0
182092,-3026,-6392,-3517,-34,-20,16,0
182097,-3305,-6426,-3303,-35,-42,16,0
182102,-3640,-6426,-3174,-37,-51,16,0
182108,-3900,-6376,-3061,-39,-52,16,0
182113,-4062,-6288,-2873,-40,-51,16,0
182118,-4059,-6180,-2717,-42,-53,15,0
182123,-3964,-6093,-2663,-42,-54,15,0
182129,-3904,-6052,-2632,-43,-58,14,0
182134,-3803,-6036,-2756,-44,-65,14,0
182139,-3764,-6046,-2815,-44,-65,14,0
182144,-3791,-6065,-2786,-45,-63,14,0
182149,-3785,-6071,-2752,-46,-59,13,0
182154,-3835,-6073,-2605,-46,-52,13,0
182160,-3898,-6072,-2508,-46,-47,13,0
182166,-3919,-6058,-2449,-47,-44,12,0
182171,-3957,-6037,-2417,-47,-39,12,0
182176,-3967,-6014,-2384,-47,-36,11,0
182181,-3926,-5980,-2379,-48,-33,11,0
182186,-3896,-5944,-2316,-48,-29,10,0
182191,-3893,-5912,-2234,-48,-29,9,0
182196,-3847,-5879,-2194,-48,-29,8,0
182201,-3889,-5850,-2108,-48,-27,7,0
182207,-3912,-5820,-2073,-48,-26,7,0
182212,-3912,-5795,-2050,-48,-22,6,0
182217,-3942,-5777,-1978,-47,-17,5,0
182222,-3925,-5761,-1924,-47,-14,4,0
182227,-3870,-5748,-1864,-47,-12,3,0
182232,-3861,-5739,-1792,-46,-10,3,0
182237,-3849,-5731,-1759,-46,-10,2,0
182242,-3859,-5714,-1760,-45,-8,1,0
182248,-3915,-5696,-1766,-45,-6,0,0
182253,-3978,-5674,-1799,-44,-3,0,0
182258,-4013,-5647,-1846,-43,3,-1,0
182263,-4071,-5628,-1867,-42,10,-2,0
182268,-4087,-5617,-1928,-41,17,-3,0
182274,-4106,-5616,-1999,-41,25,-4,0
182279,-4165,-5647,-2027,-40,32,-4,0
182285,-4191,-5712,-2034,-39,37,-5,0
182290,-4228,-5793,-1966,-39,41,-6,0
182295,-4263,-5893,-1863,-38,44,-7,0
182300,-4266,-5996,-1763,-37,44,-7,0
182305,-4274,-6099,-1654,-37,42,-8,0
182310,-4276,-6191,-1577,-36,36,-9,0
182315,-4275,-6257,-1521,-36,30,-10,0
182320,-4290,-6301,-1466,-35,23,-10,0
182325,-4332,-6328,-1424,-35,16,-11,0
182330,-4379,-6344,-1407,-34,9,-11,0
182335,-4449,-6352,-1390,-34,3,-12,0
182340,-4511,-6369,-1396,-33,-2,-12,0
182345,-4546,-6394,-1422,-33,-7,-13,0
182350,-4565,-6433,-1452,-32,-10,-13,0
182355,-4577,-6486,-1507,-32,-12,-13,0
182361,-4596,-6544,-1581,-31,-11,-13,0
182366,-4639,-6596,-1666,-31,-9,-13,0
182371,-4700,-6633,-1749,-30,-7,-13,0
182376,-4763,-6655,-1807,-30,-5,-12,0
182382,-4820,-6673,-1824,-29,-3,-12,0
182387,-4859,-6687,-1831,-28,-1,-12,0
182393,-4875,-6705,-1850,-28,0,-12,0
182398,-4895,-6731,-1879,-27,1,-11,0
182404,-4913,-6754,-1936,-27,0,-11,0
182409,-4932,-6767,-1991,-26,-1,-11,0
182415,-4965,-6773,-2018,-26,-2,-11,0
182420,-4993,-6774,-2039,-25,-2,-10,0
182426,-5012,-6780,-2068,-25,-2,-10,0
182431,-5011,-6791,-2101,-24,-2,-10,0
182437,-5000,-6804,-2154,-23,-4,-9,0
182442,-4965,-6820,-2214,-23,-6,-9,0
182448,-4944,-6829,-2250,-22,-8,-9,0
182454,-4921,-6833,-2275,-22,-11,-9,0
182458,-4894,-6836,-2292,-21,-14,-8,0
182462,-4884,-6847,-2302,-20,-16,-8,0
182467,-4862,-6857,-2340,-20,-19,-8,0
182471,-4839,-6866,-2381,-19,-22,-7,0
182475,-4840,-6863,-2416,-19,-24,-7,0
182480,-4846,-6845,-2450,-18,-26,-7,0
182484,-4871,-6822,-2466,-18,-27,-7,0
182489,-4917,-6795,-2477,-17,-27,-7,0
182493,-4953,-6766,-2513,-17,-26,-7,0
182498,-4979,-6733,-2546,-16,-23,-7,0
182502,-5001,-6692,-2578,-15,-21,-7,0
182506,-5005,-6637,-2618,-15,-18,-7,0
182511,-5012,-6574,-2633,-14,-15,-7,0
182515,-5038,-6500,-2645,-13,-13,-8,0
182520,-5051,-6424,-2676,-13,-9,-8,0
182524,-5065,-6347,-2697,-12,-5,-8,0
182529,-5067,-6269,-2729,-11,-1,-8,0
182533,-5044,-6185,-2755,-11,2,-8,0
182537,-5026,-6095,-2765,-10,4,-9,0
182541,-5000,-6001,-2781,-9,6,-9,0
182545,-4970,-5911,-2794,-8,7,-9,0
182550,-4950,-5828,-2786,-8,9,-9,0
182554,-4923,-5753,-2788,-7,10,-9,0
182558,-4890,-5684,-2793,-6,11,-9,0
182562,-4859,-5623,-2781,-6,11,-9,0
182566,-4817,-5569,-2776,-5,11,-9,0
182570,-4774,-5529,-2759,-4,10,-9,0
182575,-4739,-5496,-2737,-4,9,-9,0
182579,-4705,-5476,-2724,-3,8,-9,0
182583,-4687,-5461,-2711,-3,8,-9,0
182588,-4679,-5455,-2692,-2,7,-9,0
182593,-4670,-5452,-2685,-2,7,-9,0
182598,-4664,-5452,-2671,-1,8,-9,0
182603,-4664,-5454,-2663,-1,9,-9,0
182608,-4662,-5454,-2670,0,10,-8,0
182613,-4660,-5450,-2681,0,10,-8,0
182618,-4662,-5445,-2692,1,10,-8,0
182623,-4662,-5439,-2714,1,10,-8,0
182628,-4664,-5429,-2729,2,10,-8,0
182633,-4664,-5424,-2743,2,10,-7,0
182638,-4666,-5422,-2760,3,10,-7,0
182643,-4666,-5429,-2772,3,10,-7,0
182648,-4670,-5445,-2780,4,11,-6,0
182653,-4674,-5462,-2789,4,11,-6,0
182658,-4680,-5483,-2792,5,11,-6,0
182663,-4688,-5514,-2787,5,11,-6,0
182668,-4691,-5550,-2793,6,12,-5,0
182673,-4686,-5591,-2797,6,12,-5,0
182678,-4684,-5637,-2806,6,12,-5,0
182683,-4689,-5684,-2821,7,12,-4,0
182688,-4708,-5729,-2821,7,12,-4,0
182693,-4734,-5765,-2827,8,12,-4,0
182698,-4754,-5795,-2838,8,12,-4,0
182703,-4773,-5821,-2846,8,12,-4,0
182708,-4790,-5844,-2864,9,12,-3,0
182713,-4797,-5860,-2889,9,11,-3,0
182718,-4802,-5873,-2905,9,11,-3,0
182723,-4806,-5890,-2919,10,9,-3,0
182728,-4803,-5910,-2929,10,10,-3,0
182733,-4808,-5932,-2937,11,10,-3,0
182738,-4806,-5952,-2956,11,10,-3,0
182743,-4804,-5965,-2986,11,10,-2,0
182748,-4810,-5974,-3011,12,11,-2,0
182753,-4820,-5980,-3039,12,11,-2,0
182758,-4834,-5980,-3060,12,12,-2,0
182763,-4851,-5981,-3072,13,13,-2,0
182768,-4862,-5982,-3094,13,13,-2,0
182773,-4868,-5984,-3108,13,15,-1,0
182778,-4869,-5986,-3117,14,16,-1,0
182783,-4864,-5986,-3137,14,17,-1,0
182788,-4861,-5984,-3139,14,18,-1,0
182793,-4866,-5981,-3140,14,19,-1,0
182798,-4867,-5972,-3149,15,20,-1,0
182803,-4873,-5957,-3154,15,22,-1,0
182808,-4875,-5940,-3150,15,23,-1,0
182813,-4870,-5921,-3155,15,24,-1,0
182818,-4859,-5900,-3145,15,25,-1,0
182823,-4851,-5882,-3142,15,25,-1,0
182828,-4843,-5863,-3133,15,25,-1,0
182833,-4839,-5843,-3121,15,25,-1,0
182838,-4827,-5828,-3108,15,24,-1,0
182843,-4813,-5812,-3101,15,24,-1,0
182848,-4801,-5797,-3085,15,22,-1,0
182853,-4784,-5790,-3072,15,21,-1,0
182858,-4770,-5787,-3065,14,20,-1,0
182863,-4757,-5785,-3058,14,18,-2,0
182869,-4750,-5788,-3054,14,16,-2,0
182873,-4747,-5788,-3053,14,15,-2,0
182878,-4752,-5789,-3049,14,14,-2,0
182883,-4755,-5797,-3046,13,13,-2,0
182888,-4764,-5810,-3048,13,12,-2,0
182893,-4769,-5830,-3057,13,11,-2,0
182898,-4767,-5850,-3069,13,10,-2,0
182903,-4759,-5866,-3078,12,9,-2,0
182908,-4756,-5878,-3087,12,9,-2,0
182913,-4759,-5884,-3103,12,8,-2,0
182918,-4769,-5881,-3123,11,8,-2,0
182923,-4784,-5878,-3140,11,8,-2,0
182929,-4799,-5878,-3159,11,8,-2,0
182934,-4810,-5879,-3177,11,9,-2,0
182939,-4816,-5884,-3186,10,9,-2,0
182944,-4814,-5894,-3190,10,10,-2,0
182950,-4809,-5909,-3196,10,10,-2,1
182954,-4809,-5927,-3202,10,11,-2,1
182959,-4810,-5950,-3213,9,11,-2,1
182964,-4811,-5975,-3224,9,11,-2,1
182969,-4815,-5994,-3230,9,11,-2,1
182975,-4809,-6007,-3235,9,11,-2,1
182979,-4805,-6015,-3233,8,10,-2,1
182984,-4797,-6021,-3233,8,9,-2,1
182989,-4783,-6025,-3242,8,9,-2,1
182993,-4768,-6025,-3250,7,9,-2,1
182998,-4752,-6024,-3258,7,8,-2,1
183003,-4738,-6020,-3272,7,8,-1,1
183008,-4731,-6019,-3279,7,7,-1,1
183013,-4727,-6019,-3287,6,7,-1,1
183018,-4719,-6021,-3299,6,8,-1,1
183023,-4711,-6023,-3308,6,9,0,1
183028,-4696,-6024,-3328,6,9,0,1
183033,-4674,-6025,-3349,5,10,0,1
183038,-4658,-6028,-3353,5,10,0,1
183043,-4640,-6029,-3362,5,11,0,1
183048,-4624,-6029,-3368,5,11,1,1
183053,-4614,-6028,-3372,4,10,1,1
183058,-4599,-6030,-3376,4,10,1,1
183062,-4581,-6033,-3375,4,9,1,1
183068,-4561,-6039,-3367,4,8,2,1
183072,-4536,-6043,-3364,3,7,2,1
183077,-4514,-6050,-3356,3,6,2,1
183082,-4494,-6051,-3351,3,4,2,1
183088,-4477,-6052,-3356,3,3,2,1
183093,-4463,-6050,-3359,2,1,2,1
183097,-4454,-6048,-3368,2,0,2,1
183103,-4447,-6041,-3379,2,-1,3,1
183107,-4444,-6032,-3395,2,-1,3,1
183113,-4439,-6030,-3405,2,-2,3,1
183118,-4439,-6029,-3419,1,-2,3,1
183122,-4437,-6029,-3422,1,-2,3,1
183127,-4433,-6029,-3432,1,-2,3,1
183133,-4423,-6032,-3443,1,-2,3,1
183138,-4409,-6036,-3446,1,-2,3,1
183142,-4393,-6040,-3447,1,-2,3,1
183147,-4386,-6041,-3452,0,-2,3,1
183152,-4381,-6043,-3451,0,-2,2,1
183157,-4379,-6049,-3451,0,-2,2,1
183163,-4376,-6050,-3457,0,-2,2,1
183168,-4373,-6053,-3463,0,-2,2,1
183174,-4364,-6058,-3470,0,-2,2,1
183178,-4354,-6059,-3474,0,-2,2,1
183183,-4343,-6058,-3482,0,-2,2,1
183188,-4342,-6059,-3495,0,-2,2,1
183193,-4347,-6065,-3506,0,-2,2,1
183197,-4362,-6067,-3517,0,-1,1,1
183203,-4373,-6068,-3530,0,0,1,1
183208,-4380,-6066,-3539,0,1,1,1
183212,-4380,-6068,-3539,0,2,1,1
183217,-4371,-6069,-3541,0,3,1,1
183223,-4363,-6071,-3545,0,4,1,1
183228,-4358,-6075,-3540,0,4,0,1
183233,-4352,-6081,-3527,0,4,0,1
183238,-4344,-6084,-3512,0,4,0,1
183243,-4333,-6085,-3489,0,3,0,1
183248,-4316,-6084,-3468,-1,2,0,1
183254,-4296,-6083,-3451,-1,1,0,1
183258,-4281,-6084,-3438,-1,0,0,1
183263,-4269,-6086,-3436,-1,-1,-1,1
183269,-4262,-6084,-3434,-1,-2,-1,1
183274,-4261,-6082,-3427,-1,-3,-1,1
183279,-4261,-6079,-3426,-1,-2,-1,1
183286,-4267,-6073,-3422,-1,-2,-1,1
183291,-4268,-6069,-3420,-1,-2,-1,1
183297,-4264,-6066,-3422,-1,-1,-1,1
183303,-4264,-6061,-3419,-1,-1,-1,1
183308,-4263,-6060,-3413,-1,-1,-1,1
183313,-4260,-6058,-3409,-2,-1,-1,1
183318,-4260,-6056,-3398,-2,-1,-1,1
183324,-4259,-6053,-3393,-2,-1,-1,1
183330,-4258,-6051,-3385,-2,-1,-1,1
183335,-4257,-6049,-3377,-2,-1,-1,1
183340,-4253,-6050,-3375,-2,-1,-1,1
183346,-4252,-6054,-3365,-2,-1,-1,1
183351,-4250,-6054,-3357,-2,-1,-1,1
183357,-4244,-6055,-3347,-2,-2,-2,1
183363,-4240,-6057,-3340,-2,-3,-2,1
183369,-4238,-6064,-3334,-2,-3,-2,1
183373,-4239,-6069,-3330,-3,-4,-2,1
183378,-4244,-6074,-3328,-3,-4,-2,1
183383,-4248,-6074,-3322,-3,-4,-2,1
183389,-4245,-6072,-3322,-3,-4,-2,1
183395,-4245,-6070,-3321,-3,-4,-2,1
183400,-4245,-6070,-3316,-3,-4,-2,1
183405,-4246,-6070,-3314,-3,-3,-2,1
183410,-4252,-6071,-3309,-3,-3,-2,1
183416,-4252,-6071,-3305,-3,-3,-2,1
183421,-4253,-6069,-3301,-3,-3,-2,1
183426,-4255,-6067,-3292,-3,-3,-2,1
183431,-4259,-6064,-3282,-3,-3,-2,1
183436,-4261,-6066,-3276,-3,-3,-3,1
183441,-4260,-6067,-3266,-3,-4,-3,1
183446,-4259,-6070,-3253,-3,-5,-3,1
183452,-4259,-6074,-3236,-4,-5,-3,1
183457,-4262,-6080,-3225,-4,-6,-3,1
183464,-4264,-6086,-3223,-4,-6,-3,1
183469,-4266,-6090,-3224,-4,-7,-3,1
183475,-4271,-6096,-3224,-4,-7,-3,1
183481,-4279,-6097,-3220,-4,-7,-3,1
183485,-4286,-6098,-3219,-4,-7,-3,1
183490,-4295,-6100,-3226,-4,-7,-3,1
183496,-4304,-6098,-3232,-4,-6,-3,1
183501,-4312,-6096,-3232,-4,-6,-3,1
183507,-4320,-6093,-3230,-4,-5,-3,1
183513,-4320,-6090,-3229,-4,-5,-3,1
183517,-4317,-6090,-3225,-4,-5,-3,1
183523,-4314,-6097,-3223,-4,-4,-3,1
183529,-4314,-6105,-3216,-4,-4,-3,1
183536,-4316,-6117,-3216,-4,-4,-3,1
183541,-4321,-6127,-3212,-4,-4,-2,1
183546,-4322,-6133,-3205,-4,-4,-2,1
183551,-4324,-6130,-3200,-4,-3,-2,1
183556,-4325,-6129,-3189,-4,-3,-2,1
183562,-4327,-6127,-3181,-4,-4,-2,1
183568,-4330,-6122,-3177,-4,-4,-2,1
183573,-4334,-6121,-3172,-4,-4,-2,1
183579,-4341,-6120,-3165,-4,-4,-2,1
183584,-4346,-6120,-3162,-4,-4,-2,1
183589,-4350,-6120,-3153,-4,-4,-2,1
183594,-4349,-6118,-3149,-4,-4,-2,1
183599,-4354,-6117,-3146,-4,-4,-2,1
183605,-4354,-6121,-3139,-4,-4,-2,1
183610,-4354,-6123,-3135,-4,-4,-2,1
183616,-4361,-6123,-3131,-4,-5,-2,1
183622,-4369,-6126,-3125,-4,-5,-2,1
183627,-4377,-6127,-3122,-4,-5,-2,1
183633,-4382,-6126,-3119,-4,-5,-2,1
183637,-4384,-6129,-3117,-4,-5,-1,1
183642,-4383,-6135,-3118,-4,-5,-1,1
183647,-4386,-6139,-3121,-4,-5,-1,1
183654,-4385,-6144,-3119,-4,-5,-1,1
183659,-4384,-6147,-3119,-4,-4,-1,1
183665,-4384,-6149,-3119,-4,-4,-1,1
183669,-4382,-6153,-3117,-4,-4,-1,1
183675,-4380,-6153,-3116,-4,-4,-1,1
183680,-4379,-6153,-3116,-4,-4,-1,1
183686,-4377,-6150,-3118,-4,-4,-1,1
183691,-4377,-6145,-3121,-4,-4,-1,1
183696,-4375,-6143,-3118,-3,-4,-1,1
183701,-4372,-6140,-3117,-3,-4,-1,1
183706,-4374,-6141,-3127,-3,-4,-1,1
183711,-4382,-6142,-3134,-3,-4,-1,1
183716,-4391,-6143,-3139,-3,-4,-1,1
183721,-4399,-6145,-3144,-3,-4,-1,1
183727,-4404,-6144,-3148,-3,-3,-1,1
183732,-4407,-6141,-3149,-3,-3,-1,1
183736,-4410,-6139,-3151,-3,-2,-1,1
183741,-4411,-6139,-3150,-3,-2,-1,1
183745,-4412,-6141,-3147,-3,-1,-1,1
183750,-4409,-6142,-3142,-3,-1,-1,1
183754,-4405,-6142,-3131,-3,-1,-1,1
183758,-4402,-6140,-3123,-3,-1,-1,1
183763,-4401,-6138,-3117,-3,-1,-1,1
183767,-4402,-6137,-3115,-3,-1,-1,1
183772,-4399,-6136,-3110,-3,-2,-1,1
183776,-4398,-6135,-3109,-3,-2,-1,1
183780,-4395,-6130,-3112,-3,-2,-1,1
183785,-4390,-6128,-3117,-3,-2,-1,1
183789,-4388,-6123,-3124,-3,-2,-1,1
183793,-4384,-6117,-3126,-3,-2,-1,1
183798,-4383,-6111,-3130,-2,-2,-1,1
183802,-4383,-6110,-3132,-2,-1,-1,1
183806,-4382,-6108,-3138,-2,-1,-1,1
183811,-4377,-6103,-3144,-2,-1,-1,1
183815,-4372,-6100,-3151,-2,-1,-1,1
183819,-4364,-6100,-3152,-2,-1,-1,1
183824,-4354,-6099,-3151,-2,-1,-1,1
183828,-4352,-6101,-3144,-2,-1,-1,1
183832,-4350,-6105,-3141,-2,-2,-1,1
183837,-4350,-6105,-3141,-2,-2,-1,1
183841,-4350,-6101,-3142,-2,-2,-1,1
183845,-4351,-6098,-3146,-2,-3,-1,1
183850,-4350,-6100,-3153,-2,-3,-1,1
183854,-4350,-6102,-3164,-2,-3,-1,1
183858,-4352,-6110,-3173,-2,-3,-1,1
183863,-4356,-6118,-3181,-2,-3,-2,1
183867,-4360,-6121,-3189,-2,-2,-2,1
183871,-4368,-6116,-3199,-2,-2,-2,1
183876,-4376,-6112,-3210,-2,-2,-2,1
183880,-4384,-6110,-3219,-2,-2,-2,1
183885,-4384,-6106,-3220,-2,-1,-2,1
183889,-4383,-6100,-3224,-2,-1,-2,1
183893,-4379,-6101,-3227,-2,-1,-2,1
183897,-4375,-6101,-3230,-2,-1,-2,1
183902,-4369,-6100,-3233,-2,-1,-2,1
183906,-4366,-6101,-3228,-2,-1,-2,1
183910,-4365,-6103,-3226,-3,-1,-2,1
183915,-4363,-6103,-3219,-3,-1,-2,1
183919,-4365,-6102,-3214,-3,-2,-2,1
183923,-4363,-6102,-3212,-3,-2,-2,1
183928,-4363,-6101,-3212,-3,-2,-2,1
183932,-4365,-6100,-3211,-3,-2,-2,1
183936,-4371,-6100,-3216,-3,-3,-2,1
183941,-4377,-6098,-3217,-3,-3,-2,1
183945,-4384,-6098,-3216,-3,-3,-2,1
183950,-4393,-6094,-3219,-3,-3,-2,1
183954,-4401,-6087,-3221,-3,-3,-2,1
183958,-4403,-6084,-3227,-3,-3,-2,1
183963,-4406,-6078,-3231,-3,-4,-2,1
183967,-4411,-6072,-3236,-3,-3,-2,1
183971,-4418,-6065,-3236,-3,-3,-2,1
183976,-4425,-6059,-3243,-3,-3,-2,1
183981,-4428,-6052,-3245,-3,-2,-2,1
183986,-4428,-6052,-3246,-3,-2,-2,1
183991,-4428,-6052,-3247,-3,-2,-2,1
183996,-4425,-6052,-3249,-3,-1,-2,1
184001,-4421,-6050,-3248,-3,-1,-2,1
184006,-4419,-6046,-3247,-3,-1,-2,1
184011,-4419,-6046,-3244,-3,-1,-2,1
184016,-4422,-6050,-3237,-3,-1,-2,1
184021,-4421,-6052,-3231,-3,0,-1,1
184026,-4417,-6058,-3221,-3,0,-1,1
184031,-4411,-6060,-3221,-3,0,-1,1
184036,-4408,-6060,-3220,-3,0,-1,1
184041,-4406,-6058,-3219,-3,-1,-1,1
184046,-4408,-6052,-3221,-3,-1,-1,1
184051,-4416,-6047,-3214,-3,-1,-1,1
184056,-4419,-6043,-3214,-3,-2,-1,1
184061,-4419,-6035,-3215,-3,-2,-1,1
184066,-4419,-6034,-3214,-3,-2,-1,1
184071,-4418,-6035,-3216,-3,-2,-1,1
184076,-4420,-6037,-3218,-3,-2,-1,1
184081,-4426,-6037,-3215,-3,-2,-1,1
184086,-4434,-6036,-3209,-3,-2,-1,1
184091,-4441,-6039,-3206,-3,-2,-1,1
184096,-4441,-6039,-3205,-3,-1,0,1
184101,-4445,-6040,-3210,-3,-1,0,1
184106,-4449,-6039,-3211,-3,0,0,1
184111,-4456,-6038,-3209,-3,0,0,1
184116,-4461,-6035,-3209,-3,1,0,1
184121,-4467,-6030,-3211,-3,1,0,1
184126,-4471,-6023,-3211,-3,2,0,1
184131,-4472,-6018,-3206,-3,2,0,1
184136,-4475,-6012,-3196,-3,2,0,1
184141,-4476,-6007,-3188,-3,2,0,1
184146,-4481,-6004,-3182,-3,3,0,1
184151,-4487,-6003,-3177,-3,3,0,1
184156,-4498,-6005,-3175,-3,3,0,1
184162,-4511,-6008,-3172,-3,3,0,1
184167,-4525,-6010,-3166,-3,4,0,1
184172,-4539,-6011,-3156,-3,4,0,1
184176,-4551,-6012,-3148,-2,4,0,1
184181,-4557,-6013,-3138,-2,4,0,1
184186,-4562,-6009,-3132,-2,4,0,1
184191,-4565,-6002,-3120,-2,4,-1,1
184196,-4573,-5999,-3106,-2,4,-1,1
184201,-4578,-5992,-3093,-2,4,-1,1
184206,-4590,-5986,-3078,-2,4,-1,1
184211,-4607,-5981,-3069,-2,4,-1,1
184216,-4624,-5975,-3060,-2,4,-1,1
184221,-4639,-5965,-3041,-1,5,-1,1
184226,-4652,-5955,-3014,-1,5,0,1
184231,-4666,-5944,-2989,-1,5,0,1
184236,-4678,-5933,-2974,-1,5,0,1
184241,-4694,-5922,-2956,-1,4,0,1
184246,-4717,-5918,-2918,-1,4,0,1
184251,-4746,-5923,-2866,0,3,0,1
184256,-4773,-5930,-2808,0,4,0,1
184261,-4795,-5934,-2764,0,4,1,1
184266,-4808,-5936,-2738,0,3,1,1
184272,-4824,-5938,-2722,1,2,1,1
184277,-4841,-5946,-2701,1,1,2,1
184283,-4862,-5960,-2673,1,0,2,1
184288,-4879,-5980,-2648,2,-1,3,1
184293,-4905,-6001,-2638,2,-3,3,1
184297,-4939,-6026,-2641,3,-4,4,1
184302,-4977,-6052,-2643,3,-4,4,1
184306,-5010,-6075,-2639,4,-3,5,1
184311,-5037,-6094,-2639,5,-1,5,1
184316,-5062,-6107,-2645,5,0,6,1
184321,-5088,-6119,-2657,6,2,7,1
184326,-5119,-6127,-2672,7,4,8,1
184332,-5155,-6134,-2684,7,6,8,1
184336,-5192,-6136,-2690,8,10,9,1
184341,-5215,-6136,-2696,9,14,10,1
184346,-5230,-6141,-2695,9,17,11,1
184351,-5241,-6150,-2693,10,20,11,1
184356,-5250,-6158,-2690,11,22,12,1
184361,-5263,-6169,-2677,11,24,13,1
184366,-5277,-6174,-2656,12,26,14,1
184371,-5286,-6170,-2623,13,28,14,1
184376,-5294,-6154,-2594,13,29,15,1
184381,-5289,-6138,-2581,14,30,16,1
184386,-5277,-6122,-2573,14,30,16,1
184391,-5261,-6100,-2565,15,29,17,1
184396,-5246,-6076,-2550,16,28,17,1
184401,-5236,-6050,-2537,16,27,18,1
184406,-5232,-6025,-2524,17,25,18,1
184411,-5227,-6005,-2526,18,24,19,1
184416,-5223,-5989,-2540,18,23,19,1
184421,-5217,-5971,-2565,19,23,20,1
184426,-5214,-5952,-2588,19,23,20,1
184431,-5216,-5932,-2606,20,25,21,1
184436,-5218,-5920,-2627,20,27,21,1
184441,-5215,-5917,-2649,21,29,22,1
184445,-5204,-5915,-2683,22,32,22,1
184451,-5185,-5918,-2718,22,35,23,1
184456,-5157,-5922,-2743,23,37,23,1
184461,-5122,-5922,-2760,23,37,23,1
184466,-5080,-5922,-2776,23,37,24,1
184471,-5040,-5922,-2788,24,36,24,1
184476,-4997,-5923,-2806,24,34,25,1
184481,-4944,-5920,-2828,24,32,25,1
184485,-4892,-5914,-2864,25,28,25,1
184491,-4835,-5904,-2896,25,24,25,1
184496,-4782,-5894,-2936,25,20,26,1
184501,-4743,-5890,-2989,25,16,26,1
184506,-4714,-5895,-3057,25,13,26,1
184510,-4704,-5908,-3136,25,11,26,1
184516,-4705,-5929,-3225,25,11,27,1
184521,-4713,-5954,-3320,25,12,27,1
184525,-4727,-5977,-3433,24,14,27,1
184531,-4738,-5993,-3554,24,18,27,1
184537,-4746,-6000,-3693,24,23,27,1
184542,-4761,-6003,-3828,23,27,28,1
184548,-4783,-6005,-3962,23,30,28,1
184554,-4798,-6005,-4094,22,35,28,1
184558,-4793,-6005,-4214,21,40,28,1
184564,-4759,-5998,-4345,20,44,28,1
184568,-4718,-5987,-4467,19,48,28,1
184573,-4685,-5973,-4575,17,51,28,1
184578,-4643,-5962,-4699,16,54,28,1
184582,-4623,-5950,-4786,14,57,28,1
184586,-4640,-5932,-4841,13,57,28,1
184591,-4649,-5906,-4907,11,56,28,1
184596,-4659,-5881,-4973,9,55,28,1
184602,-4637,-5860,-5055,7,53,27,1
184607,-4575,-5840,-5141,4,50,27,1
184613,-4479,-5820,-5227,2,46,26,1
184618,-4364,-5803,-5301,0,41,25,1
184623,-4251,-5781,-5380,-3,37,24,1
184628,-4140,-5757,-5474,-5,32,23,1
184633,-4057,-5727,-5586,-8,28,23,1
184638,-3976,-5699,-5708,-10,26,22,1
184642,-3904,-5667,-5823,-13,25,21,1
184646,-3810,-5630,-5900,-16,24,20,1
184650,-3706,-5593,-5946,-18,22,19,1
184655,-3598,-5554,-5978,-21,19,18,1
184660,-3487,-5527,-6003,-24,16,17,1
184666,-3382,-5510,-6030,-26,12,16,1
184671,-3289,-5498,-6044,-29,7,14,1
184676,-3199,-5477,-6047,-32,1,13,1
184682,-3101,-5449,-6050,-35,-5,11,1
184688,-2998,-5417,-6047,-37,-11,10,1
184693,-2905,-5390,-6054,-40,-17,8,1
184698,-2824,-5367,-6069,-42,-23,7,1
184703,-2746,-5341,-6073,-45,-28,5,1
184708,-2655,-5311,-6064,-47,-32,4,1
184713,-2544,-5273,-6033,-49,-35,2,1
184717,-2427,-5231,-5986,-52,-40,0,1
184723,-2312,-5194,-5927,-54,-45,-2,1
184728,-2199,-5161,-5842,-56,-51,-4,1
184732,-2084,-5127,-5744,-58,-56,-6,1
184737,-2000,-5095,-5630,-60,-61,-7,1
184744,-1941,-5059,-5510,-62,-68,-9,1
184749,-1851,-5017,-5369,-63,-76,-11,1
184754,-1691,-4966,-5216,-65,-82,-13,1
184759,-1574,-4912,-5055,-67,-90,-14,1
184765,-1559,-4854,-4885,-68,-101,-17,1
184772,-1650,-4782,-4722,-70,-113,-20,1
184776,-1714,-4702,-4622,-71,-120,-23,1
184781,-1779,-4628,-4499,-71,-119,-25,1
184787,-1817,-4565,-4449,-73,-118,-26,1
184791,-1793,-4522,-4348,-73,-115,-28,1
184797,-1836,-4505,-4279,-75,-113,-30,1
184803,-1894,-4499,-4225,-75,-112,-32,1
184807,-1915,-4512,-4106,-75,-110,-35,1
184812,-1939,-4534,-3987,-76,-108,-37,1
184817,-1963,-4571,-3851,-76,-107,-39,1
184823,-1965,-4625,-3698,-76,-105,-42,1
184829,-1961,-4697,-3522,-76,-103,-44,1
184834,-1956,-4777,-3347,-76,-102,-47,1
184839,-1955,-4866,-3177,-76,-100,-49,1
184845,-1985,-4956,-3033,-76,-100,-52,1
184851,-2045,-5050,-2915,-74,-100,-55,1
184856,-2131,-5140,-2812,-73,-102,-57,1
184862,-1985,-5224,-2612,-72,-100,-60,1
184867,-2261,-5309,-2531,-72,-99,-62,1
184872,-2363,-5366,-2606,-73,-109,-64,1
184877,-2581,-5419,-2662,-71,-105,-66,1
184882,-2562,-5472,-2584,-70,-100,-69,1
184886,-2602,-5527,-2655,-69,-91,-71,1
184891,-2520,-5608,-2629,-67,-90,-74,1
184895,-2573,-5724,-2614,-65,-89,-76,1
184900,-2600,-5862,-2521,-63,-88,-78,1
184905,-2638,-6000,-2470,-61,-80,-81,1
184911,-2637,-6133,-2353,-59,-71,-83,1
184917,-2684,-6250,-2252,-57,-65,-85,1
184923,-2747,-6352,-2153,-54,-60,-87,1
184928,-2822,-6446,-2081,-52,-53,-90,1
184933,-2882,-6526,-2064,-49,-48,-92,1
184938,-2904,-6601,-2034,-46,-42,-94,1
184942,-2893,-6672,-1969,-42,-38,-95,1
184947,-2871,-6738,-1826,-39,-35,-97,1
184951,-2905,-6802,-1740,-36,-33,-99,1
184956,-2976,-6873,-1711,-33,-32,-101,0
184961,-3056,-6944,-1657,-29,-29,-103,0
184965,-3180,-7014,-1550,-26,-25,-105,0
184969,-3314,-7078,-1472,-23,-20,-106,0
184974,-3441,-7141,-1414,-19,-11,-108,0
184978,-3657,-7463,-1346,-15,0,-110,0
184982,-795,-8736,-509,-4,-19,-127,0
184987,-3021,-8382,-2776,-21,8,-87,0
184991,-4929,-8011,-4720,-28,-352,-34,0
184995,-6565,-7799,-4290,-47,-602,-14,0
185000,-7967,-4703,-3938,-62,-249,19,0
185004,-9169,-2780,-1036,-53,31,17,0
185008,-7867,-1023,1145,-52,296,1,0
185012,-6765,-909,1603,-38,366,-2,0
185016,-5365,-2230,1150,-28,242,-9,0
185020,-4431,-4251,-888,-26,85,-13,0
185025,-3521,-5984,-3048,-31,-25,-10,0
185030,-2245,-7464,-2486,-33,-50,-13,0
185035,-2015,-7985,-899,-35,-49,-12,0
185040,-2102,-7900,446,-29,-96,-12,0
185045,-2642,-7594,1566,-21,-100,-13,0
185050,-3872,-7349,1953,-13,-84,-11,0
185055,-4659,-7229,1480,-7,-73,-10,0
185060,-5035,-7262,792,-6,-55,-7,0
185065,-4605,-7293,-956,-7,-58,-6,0
185070,-4374,-7296,-1316,-9,-66,-5,0
185075,-4289,-7201,-1051,-8,-86,-4,0
185080,-4744,-7076,-365,-4,-70,-2,0
185085,-5152,-6941,105,2,-45,0,0
185090,-5533,-6855,138,8,-2,3,0
185095,-5707,-6816,-429,11,29,6,0
185100,-5608,-6801,-985,13,49,10,0
185105,-5371,-6781,-1322,13,58,13,0
185110,-5188,-6776,-973,15,68,14,0
185115,-5328,-6796,-386,17,74,17,0
185120,-5657,-6820,225,22,82,20,0
185125,-5822,-6832,205,25,99,24,0
185130,-5759,-6816,34,27,107,27,0
185135,-5517,-6749,-248,27,101,29,0
185140,-5413,-6688,-64,28,88,31,0
185145,-5429,-6624,163,29,75,33,0
185150,-5581,-6601,684,32,66,35,0
185155,-5707,-6588,811,35,63,37,0
185160,-5651,-6609,866,37,62,39,0
185165,-5495,-6630,661,39,55,41,0
185170,-5288,-6651,592,40,44,42,0
185175,-5117,-6663,495,41,33,43,0
185180,-5073,-6683,682,43,25,44,0
185185,-5088,-6704,760,46,21,45,0
185189,-5195,-6726,853,48,23,47,0
185195,-5197,-6737,716,51,25,48,0
185199,-5120,-6734,543,52,32,49,0
185205,-4903,-6730,357,54,36,50,0
185209,-4720,-6746,348,56,39,51,0
185215,-4661,-6789,415,58,38,52,0
185219,-4664,-6846,418,60,40,53,0
185224,-4586,-6906,427,63,46,54,0
185229,-4445,-6955,402,64,51,54,0
185234,-4363,-7007,305,66,50,55,0
185239,-4288,-7058,232,68,45,55,0
185245,-4241,-7106,231,70,43,56,0
185249,-4170,-7139,181,71,40,56,0
185254,-4189,-7171,250,73,36,55,0
185259,-4139,-7202,272,75,32,55,0
185264,-4087,-7240,238,77,32,55,0
185269,-4017,-7263,80,79,28,54,0
185274,-3953,-7271,-35,81,24,53,0
185279,-3917,-7256,-150,82,20,52,0
185284,-3928,-7231,-192,84,17,50,0
185289,-3927,-7208,-237,86,16,49,0
185294,-3901,-7202,-297,88,18,47,0
185299,-3839,-7215,-442,90,21,46,0
185304,-3844,-7224,-625,91,22,45,0
185309,-3881,-7207,-781,92,20,43,0
185314,-3849,-7177,-918,93,24,42,0
185319,-3726,-7151,-1027,94,33,40,0
185324,-3545,-7134,-1186,95,42,40,0
185329,-3190,-7128,-1427,97,51,39,0
185335,-2848,-7129,-1793,98,60,40,0
185339,-2887,-7141,-2103,100,60,37,0
185345,-2985,-7090,-2490,99,51,31,0
185350,-3306,-6983,-2912,99,51,28,0
185355,-3250,-6885,-2676,99,53,23,0
185359,-4037,-6795,-2507,96,62,19,0
185364,-4801,-6673,-2451,96,36,18,0
185369,-5330,-6569,-2118,98,47,17,0
185374,-4882,-6467,-2141,98,70,12,0
185379,-4208,-6433,-2276,97,89,7,0
185384,-3509,-6473,-2555,97,67,1,0
185390,-3295,-6510,-2833,95,47,-4,0
185395,-3368,-6476,-3040,95,33,-9,0
185399,-3752,-6367,-3285,94,39,-13,0
185404,-3949,-6239,-3595,93,48,-17,0
185409,-4124,-6152,-4024,92,63,-20,0
185414,-4094,-6091,-4626,91,71,-24,0
185419,-3977,-6073,-4925,90,79,-28,0
185424,-3880,-6073,-5047,87,82,-31,0
185429,-3960,-6093,-4950,85,86,-34,0
185434,-4002,-6135,-4744,84,89,-37,0
185439,-3966,-6188,-4679,82,97,-38,0
185444,-3583,-7644,-4049,81,109,-39,0
185449,-4575,-8199,-3811,80,169,-36,0
185454,-6262,-7146,-5606,56,9,1,0
185459,-7707,-6898,-7145,46,-151,5,0
185464,-8946,-5962,-8465,38,27,6,0
185469,-10008,-5276,-9427,27,113,10,0
185474,-8876,-5230,-7995,19,60,10,0
185479,-7852,-5718,-6781,12,38,21,0
185485,-6896,-6247,-4784,14,39,20,0
185490,-5063,-6813,-3967,13,52,14,0
185494,-3481,-7316,-4635,11,54,11,0
185499,-2931,-7618,-5986,6,19,14,0
185504,-3071,-7552,-6999,-3,-10,15,0
185509,-3628,-7258,-6962,-9,-4,17,0
185515,-4147,-6944,-6347,-13,0,17,0
185519,-4810,-6814,-5388,-14,4,18,0
185524,-5343,-6879,-5060,-15,6,20,0
185529,-5357,-6973,-5459,-18,16,20,0
185534,-5103,-6994,-6154,-22,27,22,0
185539,-4607,-6902,-6646,-27,17,23,0
185544,-4057,-6761,-6742,-31,12,23,0
185550,-3788,-6693,-6440,-34,7,23,0
185555,-3838,-6717,-6064,-36,-3,24,0
185560,-4093,-6771,-5850,-38,-7,25,0
185565,-4426,-6770,-5890,-40,-3,26,0
185570,-4573,-6695,-6087,-43,0,27,0
185574,-4501,-6552,-6202,-46,2,28,0
185579,-4299,-6404,-6243,-49,2,28,0
185584,-4010,-6309,-6157,-50,-2,28,0
185589,-3777,-6271,-6040,-52,-5,28,0
185594,-3721,-6263,-5981,-53,-7,28,0
185599,-3702,-6239,-5987,-55,-9,28,0
185605,-3711,-6166,-5933,-57,-6,27,0
185611,-3710,-6055,-5872,-59,-4,27,0
185616,-3614,-5938,-5769,-61,-3,26,0
185621,-3483,-5827,-5626,-62,-4,25,0
185626,-3340,-5735,-5563,-63,-5,24,0
185631,-3221,-5661,-5523,-65,-9,23,0
185636,-3047,-5578,-5443,-66,-12,20,0
185640,-2897,-5492,-5353,-67,-12,19,0
185646,-2840,-5419,-5211,-68,-15,18,0
185651,-2755,-5351,-5042,-69,-20,16,0
185657,-2609,-5290,-4953,-69,-20,14,0
185661,-2441,-5241,-4827,-70,-21,13,0
185665,-2209,-5201,-4689,-71,-24,11,0
185669,-2044,-5172,-4517,-72,-26,10,0
185674,-2060,-5140,-4313,-73,-34,7,0
185679,-2117,-5089,-4076,-73,-43,3,0
185685,-2072,-5028,-3917,-73,-45,1,0
185690,-2043,-4976,-3709,-74,-44,-1,0
185696,-1904,-4934,-3600,-74,-47,-3,0
185701,-1886,-4906,-3487,-75,-51,-5,0
185707,-1870,-4876,-3439,-75,-59,-8,0
185712,-1852,-4835,-3336,-75,-62,-11,0
185717,-1845,-4782,-3224,-75,-63,-13,0
185722,-1862,-4729,-3113,-75,-61,-16,0
185728,-1814,-4688,-2992,-75,-58,-18,0
185733,-1803,-4663,-2836,-75,-53,-21,0
185738,-1748,-4648,-2736,-75,-48,-23,0
185744,-1685,-4651,-2599,-74,-42,-26,0
185750,-1649,-4662,-2444,-74,-39,-28,0
185755,-1629,-4674,-2387,-74,-36,-31,0
185760,-1596,-4717,-2211,-72,-34,-34,0
185765,-1588,-4774,-1998,-71,-34,-36,0
185770,-1525,-4817,-1849,-72,-34,-38,0
185776,-1482,-4854,-1733,-71,-34,-41,0
185781,-1405,-4903,-1544,-69,-39,-44,0
185786,-1495,-4980,-1369,-68,-45,-46,0
185792,-1672,-5054,-1271,-69,-56,-48,0
185798,-1822,-5098,-1233,-69,-59,-51,0
185804,-1847,-5142,-1128,-67,-58,-53,0
185809,-1904,-5205,-959,-65,-60,-55,0
185814,-1921,-5294,-870,-65,-67,-58,0
185819,-1937,-5403,-801,-64,-73,-60,0
185824,-2014,-5523,-691,-62,-81,-62,0
185829,-2112,-5635,-569,-61,-86,-64,0
185835,-2225,-5736,-478,-60,-88,-67,0
185840,-2370,-5833,-448,-59,-88,-69,0
185845,-2522,-5929,-439,-58,-88,-71,0
185850,-2697,-6029,-425,-57,-86,-73,0
185855,-2908,-6125,-457,-55,-82,-76,1
185860,-3070,-6223,-503,-53,-74,-78,1
185866,-3145,-6337,-600,-51,-65,-79,1
185872,-3211,-6473,-669,-49,-60,-81,1
185878,-3268,-6638,-686,-47,-55,-83,1
185883,-3352,-6816,-712,-45,-48,-85,1
185888,-3484,-7011,-725,-43,-39,-87,1
185893,-3699,-7224,-743,-41,-30,-88,1
185898,-4071,-7447,-740,-39,-19,-90,1
185904,-4587,-7670,-706,-37,-2,-93,1
185909,-5097,-7887,-702,-35,19,-96,1
185915,-5485,-8090,-748,-31,29,-98,1
185919,-5842,-8290,-914,-27,28,-99,1
185925,-5503,-8531,-1041,-24,26,-98,1
185930,-5262,-8811,-1239,-22,36,-94,1
185935,-4847,-9893,-1278,-16,10,-99,1
185939,-6034,-10820,-2449,-21,56,-94,1
185944,-7512,-9520,-4439,-36,-158,-39,1
185950,-8779,-9752,-3845,-40,-397,-26,1
185956,-9865,-8074,-3218,-53,-205,-18,1
185961,-10796,-6621,-1200,-50,72,-3,1
185967,-11594,-5509,398,-50,197,-18,1
185971,-10125,-5876,155,-37,183,-14,1
185976,-7705,-7037,-98,-29,113,1,1
185980,-5269,-8371,-1993,-29,38,5,1
185984,-2177,-9348,-3192,-37,19,-6,1
185990,-679,-9962,-1618,-34,-25,-11,1
185996,-2045,-9924,118,-32,-126,-11,1
186001,-4093,-9530,1193,-26,-152,-3,1
186006,-5848,-8849,1794,-20,-88,3,1
186011,-6638,-8252,1839,-12,-5,9,1
186015,-6241,-7930,734,-10,15,15,1
186020,-5862,-8032,24,-7,-26,21,1
186025,-4000,-7987,-1487,-11,-18,17,1
186030,-3191,-8061,-988,-9,-18,18,1
186035,-3629,-7867,-486,-7,-53,18,1
186039,-5363,-7626,546,-1,-39,24,1
186044,-6690,-7215,675,4,13,28,1
186048,-7217,-6875,397,9,73,34,1
186053,-6704,-6665,-276,10,98,37,1
186057,-5910,-6657,-799,10,102,39,1
186062,-5250,-6734,-575,11,90,39,1
186067,-5164,-6768,-23,12,80,40,1
186072,-5572,-6713,595,15,80,42,1
186076,-6057,-6566,916,18,86,45,1
186080,-6419,-6384,916,21,96,48,1
186085,-6216,-6216,546,21,101,49,1
186089,-5774,-6118,236,21,97,50,1
186093,-5197,-6064,206,21,78,50,1
186098,-4976,-6055,571,22,60,51,1
186102,-4981,-6051,1010,24,45,51,1
186107,-5111,-6026,1255,27,42,52,1
186111,-4999,-5974,1196,29,40,53,1
186116,-4792,-5926,967,29,41,53,1
186119,-4492,-5888,609,30,31,53,1
186124,-4226,-5880,485,32,20,53,1
186128,-4077,-5881,457,33,10,53,1
186132,-4037,-5884,581,35,6,53,1
186136,-3948,-5889,669,37,9,53,1
186140,-3857,-5891,624,39,16,53,1
186144,-3678,-5893,361,41,20,53,1
186148,-3466,-5877,66,43,22,52,1
186153,-3296,-5839,-219,45,21,51,1
186158,-3223,-5791,-308,47,19,50,1
186163,-3149,-5741,-341,50,22,48,1
186168,-3059,-5713,-378,52,28,47,1
186173,-3092,-5706,-491,54,30,47,1
186178,-3065,-5706,-605,57,29,45,1
186183,-2929,-5702,-640,58,32,44,1
186188,-2769,-5680,-958,60,36,43,1
186193,-2675,-5664,-1080,61,31,43,1
186198,-2705,-5646,-1210,63,24,42,1
186203,-2622,-5624,-1209,65,24,40,1
186208,-2664,-5610,-1287,67,30,38,1
186213,-2693,-5609,-1390,68,31,35,1
186218,-2559,-5615,-1592,70,35,34,1
186223,-2342,-5622,-1803,71,39,33,1
186228,-2180,-5643,-1975,72,39,33,1
186233,-1945,-5674,-2178,74,35,31,1
186238,-1933,-5717,-2465,76,32,29,1
186243,-2094,-5749,-2737,78,25,26,1
186248,-2518,-5762,-2644,77,19,23,1
186253,-3044,-5693,-2621,74,20,19,1
186258,-3135,-5620,-2682,75,32,16,1
186263,-3299,-5570,-2782,75,47,15,1
186268,-3325,-5573,-2746,77,45,13,1
186273,-3217,-5633,-2648,78,50,11,1
186278,-2937,-5712,-2875,77,57,9,1
186283,-2692,-5827,-3035,77,59,6,1
186288,-2432,-5941,-3196,77,52,4,1
186293,-2303,-6046,-3275,76,48,2,1
186298,-2235,-6141,-3380,74,43,-1,1
186303,-2252,-6204,-3528,73,40,-3,1
186308,-2231,-6270,-3567,73,36,-6,1
186313,-2264,-6332,-3770,72,34,-8,1
186318,-2249,-6407,-4033,71,29,-11,1
186323,-2260,-6483,-4332,69,25,-15,1
186328,-2336,-6548,-4632,67,19,-18,1
186333,-2453,-6598,-4928,66,16,-21,1
186338,-2614,-6639,-5190,64,15,-25,1
186343,-2803,-6683,-5492,62,16,-28,1
186348,-2994,-6730,-5850,60,19,-31,1
186353,-3118,-6780,-6158,58,22,-33,1
186358,-3182,-6829,-6431,56,29,-35,1
186363,-3160,-6892,-6640,53,36,-37,1
186368,-3549,-8248,-7555,52,46,-39,1
186373,-3267,-8800,-7164,54,113,-44,1
186378,-5140,-7417,-8480,25,-6,0,1
186383,-6746,-7341,-9609,15,-220,3,1
186388,-8122,-6367,-10577,6,-65,6,1
186393,-9302,-5376,-11406,-10,60,10,1
186398,-8832,-5398,-10194,-13,33,8,1
186403,-7873,-5670,-8789,-21,0,17,1
186408,-7065,-6308,-6799,-17,15,19,1
186413,-5493,-7070,-5627,-14,40,14,1
186418,-3414,-7630,-6409,-15,61,7,1
186423,-2235,-7921,-7833,-19,49,10,1
186428,-1863,-7803,-8957,-28,12,10,1
186433,-2255,-7406,-9021,-36,-1,10,1
186438,-2694,-7002,-8292,-39,-12,7,1
186443,-3564,-6840,-7114,-38,-13,8,1
186448,-4361,-6892,-6755,-37,-15,10,1
186453,-4612,-6998,-7292,-39,-2,10,1
186458,-4233,-6998,-8212,-44,15,10,1
186463,-3713,-6892,-8675,-50,11,10,1
186468,-3185,-6719,-8569,-54,-3,9,1
186473,-2824,-6646,-7912,-56,-9,8,1
186478,-2801,-6726,-7382,-57,-13,7,1
186483,-2960,-6876,-7279,-58,-16,6,1
186488,-3202,-6955,-7525,-61,-14,6,1
186493,-3344,-6916,-7832,-65,-14,6,1
186498,-3334,-6779,-7871,-69,-18,6,1
186503,-3293,-6667,-7594,-72,-24,5,1
186508,-3150,-6664,-7238,-73,-33,4,1
186513,-3010,-6757,-6966,-74,-36,3,1
186518,-2931,-6882,-6910,-76,-40,2,1
186523,-2832,-6975,-6952,-79,-44,2,1
186528,-2723,-7000,-6873,-82,-45,0,1
186533,-2651,-6996,-6663,-84,-47,-1,1
186538,-2567,-7011,-6371,-86,-51,-2,1
186543,-2528,-7057,-6060,-87,-55,-3,1
186548,-2506,-7123,-5827,-88,-59,-4,1
186553,-2455,-7185,-5640,-90,-63,-6,1
186558,-2386,-7223,-5377,-92,-67,-7,1
186563,-2271,-7230,-5071,-94,-75,-8,1
186569,-2074,-7209,-4725,-95,-86,-9,1
186574,-1760,-7184,-4345,-96,-96,-10,1
186579,-1561,-7178,-4041,-98,-106,-11,1
186584,-1450,-7162,-3766,-98,-123,-14,1
186589,-1389,-7115,-3338,-99,-137,-16,1
186594,-1439,-7019,-3062,-100,-142,-17,1
186599,-1645,-6903,-2803,-100,-147,-19,1
186604,-2012,-6758,-2675,-100,-152,-20,1
186610,-2123,-6589,-2603,-99,-150,-23,1
186615,-2447,-6447,-2598,-98,-140,-24,1
186620,-2518,-6298,-2781,-98,-141,-26,1
186626,-2645,-6155,-2909,-97,-135,-28,1
186631,-2481,-5996,-3038,-97,-130,-30,1
186636,-2361,-5863,-3110,-96,-120,-33,1
186641,-2226,-5774,-2983,-94,-118,-36,1
186647,-2235,-5713,-2838,-93,-112,-38,1
186652,-2223,-5663,-2593,-91,-103,-40,1
186658,-2296,-5608,-2416,-89,-90,-43,1
186663,-2242,-5536,-2332,-87,-76,-45,1
186668,-2216,-5484,-2280,-84,-64,-47,1
186674,-2149,-5445,-2259,-82,-56,-50,1
186679,-2015,-5423,-2230,-80,-45,-53,1
186684,-1846,-5423,-2116,-78,-37,-55,1
186689,-1713,-5447,-1939,-75,-31,-58,1
186694,-1576,-5485,-1698,-73,-26,-61,1
186699,-1537,-5535,-1415,-70,-22,-63,1
186704,-1538,-5590,-1126,-67,-18,-65,1
186710,-1522,-5646,-846,-65,-13,-68,1
186715,-1531,-5713,-555,-62,-9,-70,1
186721,-1518,-5788,-288,-60,-8,-72,1
186726,-1463,-5877,-101,-57,-6,-75,1
186732,-1392,-5980,35,-54,-7,-77,1
186737,-1286,-6082,202,-50,-12,-79,1
186743,-1156,-6204,462,-47,-18,-81,1
186748,-1155,-6344,630,-44,-27,-82,1
186754,-1167,-6488,825,-41,-38,-84,1
186759,-1262,-6618,935,-39,-45,-86,1
186765,-1403,-6733,1107,-36,-53,-88,1
186770,-1568,-6837,1287,-33,-58,-89,1
186775,-1750,-6950,1453,-30,-62,-91,1
186780,-1964,-7075,1564,-27,-66,-92,1
186785,-2095,-7208,1606,-24,-66,-93,1
186790,-2243,-7357,1637,-21,-65,-94,1
186795,-2592,-7499,1798,-18,-62,-95,1
186800,-3040,-7622,1844,-15,-54,-96,1
186805,-3371,-7697,1819,-12,-47,-99,1
186809,-3565,-7747,1697,-8,-42,-99,1
186813,-3795,-7820,1539,-3,-38,-98,1
186819,-3970,-7914,1402,1,-36,-98,1
186823,-3901,-8038,1316,4,-27,-94,1
186828,-1005,-9230,2901,13,-33,-98,1
186833,-1761,-9127,147,-2,40,-75,1
186838,-3849,-7699,-2214,-8,-303,-24,1
186843,-5639,-7731,-163,-19,-475,-19,1
186848,-7174,-4812,-650,-37,-98,3,1
186853,-8489,-3017,1782,-32,96,15,1
186858,-8755,-2209,2102,-29,180,11,1
186863,-9160,-3097,877,-18,168,21,1
186868,-7137,-4994,455,-13,96,14,1
186873,-3778,-6621,-915,-17,97,20,1
186878,-899,-7799,-161,-15,60,19,1
186883,1049,-8096,1684,-13,-5,10,1
186888,-544,-8063,3783,-3,-59,13,1
186893,-2806,-7714,4849,9,-56,14,1
186897,-4659,-7322,5265,17,21,18,1
186901,-6256,-7043,3318,20,57,23,1
186907,-6860,-6911,2332,19,33,28,1
186911,-6027,-6830,2458,18,42,28,1
186915,-4775,-6968,3749,22,68,27,1
186919,-3832,-7254,4858,30,53,28,1
186924,-3056,-7495,5574,38,70,25,1
186929,-3009,-7620,5241,44,78,27,1
186933,-3318,-7530,4509,48,76,27,1
186937,-3528,-7332,4050,49,78,27,1
186941,-4172,-7144,3987,50,84,30,1
186946,-4708,-7046,4596,54,82,32,1
186950,-4960,-7024,5067,58,101,33,1
186954,-4761,-7115,5294,64,112,33,1
186959,-4205,-7252,4957,67,111,34,1
186964,-3623,-7400,4624,69,95,34,1
186969,-3458,-8064,4890,71,76,34,1
186974,-2266,-8154,5041,74,78,31,1
186978,-3155,-7828,3232,69,42,45,1
186983,-5044,-7935,1816,68,-48,47,1
186987,-6663,-7812,1614,64,-28,46,1
186992,-7672,-7462,1832,63,26,49,1
186997,-7748,-7148,2284,65,37,51,1
187002,-7637,-7186,2093,69,39,54,1
187007,-6726,-7286,1989,72,44,53,1
187012,-5685,-7505,2082,72,44,55,1
187017,-4720,-7553,1403,73,30,54,1
187022,-4159,-7597,1795,75,13,52,1
187027,-3791,-7699,2430,80,13,50,1
187032,-3602,-7737,2745,85,33,47,1
187037,-3516,-7966,2969,91,40,47,1
187042,-3763,-8149,1738,93,49,46,1
187047,-4038,-8103,1208,95,30,48,1
187052,-4250,-8154,723,93,29,48,1
187057,-4276,-7811,703,93,44,48,1
187062,-5044,-7757,396,94,34,51,1
187067,-4881,-7793,1312,97,41,47,1
187072,-4807,-7841,1370,99,72,48,1
187077,-4869,-7984,1085,102,59,48,1
187082,-4436,-8082,1060,102,51,46,1
187087,-3965,-8178,960,103,63,47,1
187092,-3559,-8173,700,105,56,45,1
187097,-3596,-8272,519,107,34,45,1
187102,-3411,-8398,546,108,38,42,1
187107,-3225,-8504,526,110,56,40,1
187113,-3016,-8628,466,113,62,39,1
187118,-2990,-8763,105,115,62,38,1
187122,-2782,-8855,-249,116,71,36,1
187127,-2647,-8904,-709,117,81,36,1
187132,-2373,-8940,-970,119,84,36,1
187137,-2063,-9145,-1389,120,89,36,1
187142,-1883,-9182,-1681,123,92,36,1
187147,-1924,-9214,-2125,124,89,35,1
187152,-1914,-9166,-2760,125,92,33,1
187157,-2464,-9148,-2946,125,89,30,1
187162,-3019,-9043,-3153,122,74,26,1
187167,-3745,-8941,-3162,119,75,25,1
187172,-4080,-8870,-3275,118,82,23,1
187177,-4424,-8828,-3121,118,89,23,1
187182,-4108,-9083,-2692,119,91,19,1
187188,-2937,-9128,-2439,118,107,16,1
187193,-2999,-9183,-3231,113,103,21,1
187198,-3011,-9225,-4108,108,65,19,1
187202,-3015,-9147,-4493,103,78,17,1
187207,-2777,-9000,-4640,98,92,14,1
187212,-2661,-8963,-4436,95,91,12,1
187217,-2629,-9001,-4571,92,86,10,1
187222,-2491,-9063,-4893,87,91,8,1
187227,-2305,-9292,-5533,81,92,6,1
187232,-1974,-9203,-5884,75,83,3,1
187237,-2274,-9161,-6382,67,65,3,1
187242,-2469,-8902,-6492,61,44,1,1
187247,-2661,-8785,-6750,55,38,1,1
187252,-3101,-8764,-7229,48,36,1,1
187257,-3107,-8641,-7692,42,28,0,1
187262,-3336,-8535,-8294,34,26,1,1
187267,-3592,-8513,-8856,28,25,-1,1
187272,-3521,-8315,-9168,21,29,-2,1
187277,-3616,-8343,-9346,15,34,-1,1
187282,-3720,-8233,-9682,10,38,-3,1
187287,-3796,-8266,-9876,4,43,-2,1
187292,-3607,-8179,-10014,-1,51,-4,1
187297,-3342,-8136,-10073,-6,57,-4,1
187302,-3061,-8116,-10120,-11,52,-5,1
187307,-2785,-8100,-10156,-16,50,-6,1
187312,-2538,-8065,-10192,-21,45,-6,1
187317,-2451,-8002,-10169,-26,37,-6,1
187322,-2416,-7917,-10142,-32,27,-5,1
187327,-2365,-7830,-10071,-37,20,-5,1
187332,-2325,-7762,-10048,-42,13,-4,1
187337,-2265,-7717,-10027,-47,4,-4,1
187342,-2125,-7685,-9997,-52,1,-3,1
187347,-2042,-7671,-9957,-57,-3,-2,1
187352,-1994,-7659,-9906,-62,-7,-2,1
187357,-1979,-7639,-9835,-67,-9,-2,1
187362,-2104,-7625,-9801,-72,-13,-2,1
187367,-2200,-7617,-9764,-77,-16,-2,1
187372,-2242,-7618,-9696,-82,-16,-2,1
187377,-2263,-7629,-9628,-86,-19,-2,1
187382,-2201,-7649,-9539,-91,-23,-3,1
187387,-2090,-7670,-9401,-95,-26,-4,1
187392,-1980,-7692,-9300,-99,-33,-5,1
187397,-1862,-7707,-9185,-102,-41,-6,1
187402,-1734,-7711,-9035,-106,-48,-7,1
187407,-1643,-7711,-8894,-110,-55,-8,1
187412,-1544,-7701,-8763,-113,-62,-9,1
187417,-1430,-7683,-8631,-115,-66,-10,1
187422,-1346,-7664,-8531,-118,-70,-11,1
187427,-1258,-7641,-8429,-120,-73,-12,1
187431,-1181,-7619,-8259,-123,-74,-13,1
187436,-1102,-7595,-8069,-124,-74,-15,1
187441,-1014,-7562,-7861,-126,-75,-16,1
187446,-957,-7522,-7620,-127,-77,-18,1
187451,-828,-7467,-7379,-129,-78,-20,1
187456,-691,-7419,-7050,-130,-79,-23,1
187461,-691,-7374,-6709,-131,-86,-24,1
187466,-687,-7308,-6317,-132,-93,-26,1
187471,-699,-7226,-5912,-133,-96,-28,1
187476,-732,-7126,-5488,-133,-101,-30,1
187481,-792,-7029,-5095,-134,-108,-33,1
187486,-813,-6942,-4705,-134,-111,-35,1
187491,-672,-6858,-4220,-134,-112,-37,1
187496,-712,-6805,-3718,-134,-113,-39,1
187501,-907,-6736,-3463,-133,-121,-41,1
187506,-1105,-6640,-3094,-131,-118,-42,1
187511,-1272,-6522,-2802,-131,-115,-44,1
187516,-1385,-6410,-2731,-131,-112,-45,1
187521,-1383,-6350,-2625,-128,-110,-47,1
187526,-1377,-6324,-2435,-126,-108,-48,1
187531,-1333,-6300,-2206,-125,-107,-51,1
187536,-1296,-6285,-1949,-123,-104,-53,1
187541,-1341,-6291,-1634,-120,-103,-54,1
187546,-1425,-6307,-1231,-117,-100,-56,1
187551,-1562,-6326,-883,-114,-95,-57,1
187556,-1636,-6337,-696,-110,-90,-59,1
187561,-1592,-6330,-558,-106,-86,-60,1
187566,-1533,-6338,-402,-102,-87,-61,1
187571,-1498,-6379,-161,-99,-89,-62,1
187576,-1427,-6433,-72,-95,-89,-64,1
187581,-1260,-6499,114,-92,-85,-65,1
187586,-1173,-6586,329,-88,-86,-66,1
187591,-1150,-6681,642,-85,-87,-68,1
187596,-1200,-6772,878,-81,-84,-69,1
187601,-1276,-6858,1086,-77,-81,-70,1
187606,-1393,-6918,1199,-73,-78,-71,1
187611,-1482,-6964,1316,-69,-74,-72,1
187616,-1594,-7012,1409,-66,-69,-74,1
187621,-1724,-7074,1562,-62,-66,-76,1
187626,-1875,-7148,1703,-59,-62,-78,1
187631,-2040,-7235,1866,-55,-57,-79,1
187636,-2211,-7329,1993,-52,-52,-81,1
187641,-2325,-7429,2113,-49,-47,-83,1
187646,-2432,-7539,2227,-46,-45,-85,1
187651,-2546,-7663,2367,-42,-45,-86,1
187656,-2643,-7784,2487,-39,-44,-88,1
187661,-2733,-7904,2576,-36,-41,-89,1
187666,-4166,-9115,2851,-32,-40,-90,1
187671,-1232,-9772,4106,-27,-69,-117,1
187676,-3396,-8677,1180,-38,-97,-49,1
187681,-5250,-8620,1080,-38,-399,-19,1
187686,-6840,-6895,871,-58,-243,-9,1
187691,-8203,-4596,2202,-59,29,10,1
187696,-8165,-3948,4227,-50,81,8,1
187701,-9339,-4403,3429,-43,137,10,1
187706,-8412,-5873,3861,-35,69,2,1
187711,-6679,-7374,1870,-36,58,3,1
187716,-4154,-8540,1044,-33,13,-1,1
187721,-1437,-9027,1397,-32,-53,-4,1
187726,-704,-9340,2967,-27,-98,-8,1
187731,-1772,-9613,4444,-17,-143,-10,1
187736,-3748,-9773,4773,-8,-131,-7,1
187741,-4931,-9761,4678,0,-96,-5,1
187746,-5902,-9692,2830,2,-67,0,1
187751,-6104,-9650,1975,3,-77,4,1
187756,-5684,-9591,1707,3,-58,5,1
187761,-5577,-9711,2499,8,-36,6,1
187766,-5468,-9818,3252,15,-24,8,1
187771,-5413,-9918,3878,22,30,10,1
187776,-5433,-9957,3653,28,57,13,1
187781,-5528,-9933,3146,31,76,17,1
187786,-5664,-9857,2874,33,85,20,1
187791,-5899,-9740,3065,34,90,24,1
187796,-6066,-9630,3725,36,95,27,1
187801,-6140,-9554,4335,40,105,30,1
187806,-6017,-9489,4578,44,107,33,1
187811,-5885,-9396,4438,47,104,35,1
187816,-5764,-9225,4181,48,95,37,1
187821,-5684,-8995,4191,49,85,38,1
187826,-5721,-8755,4385,51,79,39,1
187831,-5749,-8542,4698,55,77,41,1
187836,-5739,-8358,4779,58,79,43,1
187841,-5508,-8197,4728,62,82,44,0
187846,-5083,-8039,4486,64,82,45,0
187851,-4641,-7876,4325,67,76,45,0
187856,-4358,-7706,4218,69,68,45,0
187861,-4265,-7551,4270,73,66,46,0
187866,-4193,-7408,4326,76,69,46,0
187871,-4031,-7300,4341,80,76,45,0
187876,-3755,-7228,4229,84,80,45,0
187881,-3496,-7205,3885,86,83,46,0
187886,-3452,-7195,3544,88,74,47,0
187891,-3309,-7155,3504,91,73,47,0
187896,-3140,-7134,3596,93,81,47,0
187901,-2915,-7184,3697,97,85,47,0
187906,-2696,-7292,3565,100,87,47,0
187911,-2439,-7421,3353,103,86,46,0
187916,-2180,-7545,3097,105,84,46,0
187921,-2002,-7656,2989,107,78,46,0
187926,-1834,-7748,2978,109,75,44,0
187931,-1723,-7861,3001,111,74,44,0
187936,-1712,-8001,2932,114,69,43,0
187941,-1683,-8130,2748,116,67,42,0
187946,-1597,-8222,2496,117,66,40,0
187951,-1483,-8287,2274,119,64,39,0
187956,-1339,-8349,2106,120,61,38,0
187961,-1165,-8428,1924,122,59,36,0
187966,-941,-8500,1661,123,58,34,0
187972,-750,-8558,1339,125,58,34,0
187977,-719,-8604,1049,126,53,33,0
187983,-685,-8601,716,127,50,30,0
187987,-722,-8575,331,128,54,29,0
187991,-872,-8560,-72,130,56,27,0
187996,-1124,-8547,-388,130,54,24,0
188001,-1506,-8479,-514,128,53,19,0
188006,-1954,-8385,-648,127,57,17,0
188011,-2061,-8291,-910,127,69,14,0
188017,-2163,-8246,-992,126,81,13,0
188022,-1970,-8240,-1046,126,85,10,0
188028,-1795,-8269,-1251,125,92,8,0
188035,-1758,-9428,-1674,124,91,5,0
188040,278,-10325,-577,129,106,-7,0
188046,-2102,-10384,-1381,115,68,15,0
188051,-4141,-10115,-3524,109,-42,22,0
188056,-5502,-9178,-4222,106,31,25,0
188061,-6285,-8445,-5873,96,108,28,0
188067,-5949,-7940,-6503,91,76,28,0
188072,-5420,-7867,-6778,85,47,28,0
188077,-5180,-8148,-7291,81,37,25,0
188083,-4137,-8372,-6407,81,36,17,0
188088,-3459,-8478,-5600,78,37,15,0
188093,-2950,-8603,-5370,78,33,12,0
188099,-2719,-8677,-5735,77,38,7,0
188105,-2740,-8646,-6741,72,34,5,0
188110,-2696,-8626,-7309,69,29,1,0
188116,-3340,-8365,-8074,61,31,2,0
188120,-4250,-8084,-8400,58,14,1,0
188124,-4920,-7953,-8627,54,21,2,0
188129,-5527,-7552,-8905,50,39,3,0
188133,-5513,-7492,-9154,45,49,4,0
188137,-5573,-7312,-9591,40,60,4,0
188142,-5484,-7089,-9801,34,62,5,0
188146,-5085,-7063,-9572,30,60,2,0
188150,-4656,-7081,-9182,26,68,1,0
188154,-4268,-7068,-8890,22,70,0,0
188158,-4036,-7041,-8849,19,65,0,0
188163,-3681,-6971,-8957,15,61,-2,0
188168,-3656,-7379,-9077,10,64,-2,0
188172,-3279,-7045,-9007,5,57,-5,0
188177,-3561,-6990,-8762,1,52,-1,0
188182,-3635,-6970,-8854,-4,33,-4,0
188187,-3612,-6808,-8494,-7,40,-3,0
188191,-3595,-6668,-8449,-11,40,-2,0
188195,-3423,-6665,-8358,-14,29,-3,0
188201,-3073,-6728,-8621,-19,23,-3,0
188205,-2740,-6790,-8659,-23,18,-3,0
188210,-2394,-6839,-8725,-28,8,-4,0
188215,-2167,-6893,-8598,-32,1,-5,0
188220,-2022,-6950,-8622,-36,-5,-5,0
188225,-2082,-7027,-8651,-39,-11,-5,0
188230,-2270,-7088,-8849,-43,-17,-5,0
188235,-2377,-7117,-8982,-47,-18,-5,0
188240,-2488,-7145,-9057,-52,-15,-5,0
188245,-2495,-7200,-9051,-56,-18,-5,0
188250,-2432,-7288,-9029,-59,-17,-6,0
188255,-2363,-7423,-8999,-63,-17,-6,0
188260,-2303,-7579,-9042,-67,-20,-6,0
188265,-2184,-7721,-9034,-71,-23,-7,0
188270,-2124,-7849,-8955,-76,-27,-7,0
188275,-2067,-7965,-8834,-80,-34,-8,0
188280,-1991,-8084,-8703,-84,-39,-8,0
188285,-1977,-8214,-8580,-87,-45,-8,0
188290,-1929,-8336,-8522,-92,-50,-9,0
188295,-1853,-8448,-8453,-96,-53,-9,0
188300,-1806,-8556,-8358,-100,-56,-10,0
188305,-1729,-8660,-8246,-104,-60,-11,0
188310,-1677,-8761,-8093,-108,-62,-11,0
188315,-1662,-8870,-7952,-112,-65,-12,0
188320,-1621,-8985,-7833,-116,-67,-13,0
188326,-1586,-9100,-7672,-119,-68,-13,0
188332,-1549,-9205,-7504,-123,-69,-14,0
188338,-1469,-9302,-7319,-126,-71,-15,0
188343,-1375,-9393,-7082,-130,-73,-16,0
188347,-1267,-9477,-6847,-133,-77,-17,0
188351,-1137,-9548,-6600,-136,-81,-18,0
188356,-1015,-9602,-6303,-139,-86,-19,0
188360,-870,-9626,-5994,-141,-93,-20,0
188365,-722,-9620,-5681,-144,-101,-20,0
188370,-606,-9592,-5348,-146,-109,-21,0
188376,-488,-9536,-5036,-149,-117,-22,0
188381,-394,-9451,-4741,-151,-122,-23,0
188385,-276,-9344,-4412,-152,-131,-24,0
188390,-267,-9230,-4100,-154,-136,-24,0
188395,-450,-9124,-3903,-155,-140,-25,0
188400,-729,-8998,-3709,-156,-140,-26,0
188405,-873,-8831,-3585,-156,-131,-28,0
188410,-889,-8682,-3309,-155,-118,-30,0
188415,-1115,-8576,-3184,-155,-117,-31,0
188420,-1213,-8481,-3093,-154,-116,-33,0
188425,-1265,-8400,-2873,-154,-110,-34,0
188430,-1147,-8327,-2630,-154,-107,-36,0
188435,-1036,-8294,-2367,-154,-108,-39,0
188440,-904,-8299,-2023,-152,-114,-41,0
188445,-847,-8309,-1624,-150,-122,-43,0
188450,-821,-8289,-1275,-148,-131,-45,0
188455,-753,-8238,-990,-147,-138,-47,0
188460,-647,-8169,-713,-144,-146,-49,0
188465,-531,-8088,-449,-142,-156,-51,0
188470,-396,-8015,-187,-140,-165,-52,0
188475,-299,-7945,112,-137,-173,-54,0
188480,-316,-7892,429,-135,-180,-55,0
188485,-412,-7833,596,-132,-187,-57,0
188490,-532,-7779,774,-130,-187,-58,0
188495,-649,-7733,970,-127,-184,-60,0
188500,-698,-7697,1174,-124,-177,-61,0
188505,-729,-7673,1344,-120,-167,-63,0
188510,-742,-7677,1474,-117,-157,-65,0
188515,-744,-7704,1529,-113,-147,-67,0
188520,-689,-7733,1553,-109,-137,-69,0
188525,-610,-7753,1580,-105,-127,-71,0
188530,-547,-7773,1659,-101,-118,-73,0
188535,-515,-7808,1696,-97,-108,-75,0
188540,-499,-7836,1742,-92,-94,-77,0
188545,-572,-7863,1828,-88,-82,-80,0
188550,-678,-7893,1972,-84,-69,-82,0
188555,-816,-7918,2148,-79,-56,-85,0
188560,-951,-7939,2343,-74,-44,-88,0
188565,-1089,-7969,2530,-70,-35,-90,0
188570,-1223,-8012,2731,-65,-27,-93,0
188575,-1342,-8071,2934,-61,-22,-95,0
188580,-1426,-8154,3164,-56,-18,-98,0
188585,-1530,-8246,3392,-52,-16,-100,0
188590,-1644,-8335,3608,-48,-15,-102,0
188595,-1784,-8426,3797,-44,-13,-104,0
188600,-2027,-8511,3987,-39,-12,-105,0
188605,-2444,-8591,4149,-35,-15,-106,0
188610,-2823,-8654,4188,-31,-10,-109,0
188615,-2540,-9758,5929,-26,-22,-119,0
188620,-3469,-10291,2848,-29,18,-108,0
188625,-5313,-8194,101,-34,-290,-35,0
188630,-6894,-8176,1979,-43,-586,-17,0
188635,-8250,-5463,3066,-63,-199,3,0
188640,-9411,-3523,4968,-52,80,16,1
188645,-9491,-2869,5660,-46,168,4,1
188650,-9870,-4053,3697,-28,188,16,1
188655,-7987,-5814,2527,-22,130,11,1
188660,-4507,-7324,-173,-29,103,12,1
188665,-1524,-8352,331,-26,49,13,1
188670,677,-8587,1764,-25,-48,4,1
188675,-734,-8670,3852,-11,-77,8,1
188680,-2969,-8481,5502,5,-68,8,1
188685,-4885,-8106,5452,17,8,11,1
188690,-6417,-7847,3865,23,47,12,1
188695,-7703,-7673,1659,19,23,21,1
188700,-6996,-7582,1875,20,2,20,1
188705,-5404,-7633,3107,22,43,20,1
188710,-4821,-7927,4550,30,33,24,1
188715,-3931,-8149,5565,40,52,22,1
188720,-3912,-8321,5575,48,87,26,1
188725,-4062,-8241,4747,51,95,29,1
188730,-4604,-8101,4029,53,100,34,1
188735,-5274,-7884,3520,52,106,38,1
188740,-5735,-7733,4078,54,118,42,1
188745,-5761,-7665,4862,57,144,46,1
188750,-5641,-7740,5386,62,161,50,1
188755,-5098,-7845,5305,65,171,53,1
188760,-4720,-7936,4810,67,169,55,1
188765,-4574,-7932,4309,68,151,56,1
188770,-4791,-7874,4210,68,134,58,1
188775,-5100,-7782,4433,70,127,60,1
188780,-5477,-7752,4727,74,126,62,1
188785,-5593,-7781,4595,77,126,64,1
188790,-5360,-7859,4267,80,124,65,1
188795,-4847,-7938,3809,82,109,65,1
188800,-4391,-8019,3634,84,88,66,1
188805,-4131,-8081,3578,86,67,66,1
188810,-4148,-8143,3753,90,54,67,1
188815,-4228,-8208,3679,94,52,67,1
188820,-4292,-8298,3435,98,56,67,1
188825,-4288,-8409,3014,101,58,67,1
188830,-4119,-8542,2707,103,58,67,1
188835,-3778,-8731,2587,105,60,67,1
188840,-3574,-8983,2562,108,59,68,1
188845,-3440,-9271,2570,111,54,69,1
188850,-3226,-9557,2476,114,58,69,1
188855,-3011,-9834,2287,117,60,70,1
188859,-2742,-10089,2079,119,57,70,1
188865,-2541,-10335,1969,122,54,70,1
188869,-2416,-10577,1870,124,50,70,1
188875,-2409,-10808,1806,127,45,69,1
188879,-2471,-11011,1665,130,41,68,1
188885,-2536,-11176,1488,132,37,68,1
188889,-2590,-11294,1271,134,35,67,1
188894,-2589,-11371,1063,137,33,65,1
188899,-2549,-11420,882,139,33,63,1
188904,-2497,-11445,696,141,33,60,1
188910,-2441,-11426,458,144,34,58,1
188914,-2353,-11349,183,145,38,55,1
188920,-2124,-11218,-179,147,42,53,1
188925,-1819,-11054,-654,149,47,53,1
188929,-1620,-10925,-1034,152,40,53,1
188934,-1640,-10752,-1340,153,42,51,1
188939,-1737,-10552,-1789,154,63,47,1
188944,-2182,-10356,-1722,154,77,43,1
188949,-2682,-10064,-1778,150,83,39,1
188954,-3017,-9790,-1955,150,104,38,1
188959,-3178,-9532,-1988,150,123,38,1
188964,-2938,-9333,-1700,151,133,36,1
188970,-2397,-9195,-1664,149,145,34,1
188975,-1803,-9095,-1828,148,143,32,1
188980,-1365,-8965,-1972,147,131,29,1
188985,-1118,-8764,-2240,145,121,26,1
188989,-1053,-8519,-2453,143,113,23,1
188994,-1050,-8267,-2640,141,107,20,1
188999,-956,-8044,-2876,138,107,17,1
189004,-752,-7865,-3156,136,108,14,1
189009,-479,-7728,-3462,133,105,10,1
189014,-178,-7629,-3709,130,103,6,1
189019,-1,-7553,-3921,127,102,2,1
189024,93,-7492,-4109,124,101,-2,1
189029,140,-7450,-4324,121,103,-7,1
189034,109,-7429,-4645,117,105,-11,1
189039,99,-7436,-5028,114,105,-15,1
189044,92,-7480,-5441,110,105,-19,1
189049,36,-7548,-5816,106,100,-24,1
189054,-31,-7637,-6134,102,92,-29,1
189059,-120,-7773,-6422,98,84,-33,1
189064,-185,-7960,-6739,93,75,-38,1
189069,-201,-8161,-7107,89,66,-42,1
189074,-202,-8352,-7467,84,57,-47,1
189079,-244,-8517,-7814,79,44,-50,1
189084,-322,-8662,-8124,73,31,-54,1
189089,-457,-8905,-8439,68,18,-57,1
189094,1413,-9973,-8285,65,19,-65,1
189099,-1129,-9870,-8979,52,80,-42,1
189104,-3307,-9095,-10036,33,-152,-14,1
189110,-5175,-8527,-10943,30,-277,-13,1
189116,-6775,-7008,-11720,17,-66,-3,1
189122,-8052,-6627,-12386,6,-43,3,1
189127,-8302,-6753,-11594,-1,-77,11,1
189132,-7607,-7117,-11095,-5,-40,15,1
189137,-5986,-7803,-10299,-7,-5,14,1
189142,-3154,-8435,-10575,-11,16,7,1
189147,-937,-8877,-11066,-15,26,6,1
189152,15,-9019,-11825,-22,7,6,1
189158,-354,-8837,-12365,-31,-9,7,1
189163,-1613,-8402,-11789,-38,-9,7,1
189168,-2997,-7951,-11101,-42,0,7,1
189174,-4144,-7708,-10685,-44,18,8,1
189179,-4646,-7662,-10803,-48,33,10,1
189183,-4103,-7659,-11272,-54,46,9,1
189188,-3178,-7701,-11704,-61,47,9,1
189193,-2231,-7733,-11330,-67,30,8,1
189197,-1754,-7781,-10682,-72,20,7,1
189201,-1545,-7802,-10053,-76,6,5,1
189207,-1718,-7803,-9725,-79,1,6,1
189211,-2020,-7742,-9841,-84,-8,5,1
189217,-2320,-7621,-10063,-89,-16,6,1
189221,-2357,-7496,-9950,-95,-23,5,1
189227,-2328,-7438,-9613,-99,-28,5,1
189232,-2240,-7469,-9121,-103,-35,4,1
189237,-1990,-7552,-8711,-106,-34,3,1
189241,-1806,-7652,-8587,-109,-29,3,1
189247,-1659,-7718,-8628,-113,-32,3,1
189252,-1461,-7725,-8461,-117,-31,1,1
189257,-1391,-7710,-8177,-121,-31,1,1
189262,-1348,-7706,-7733,-124,-37,-1,1
189267,-1242,-7723,-7248,-126,-37,-2,1
189273,-1175,-7761,-6895,-129,-36,-3,1
189278,-1051,-7807,-6733,-131,-39,-5,1
189283,-918,-7850,-6526,-133,-42,-7,1
189289,-841,-7880,-6282,-136,-47,-8,1
189294,-784,-7903,-5949,-138,-51,-10,1
189300,-763,-7925,-5511,-139,-54,-13,1
189305,-605,-7947,-5089,-140,-55,-15,1
189309,-513,-7995,-4725,-142,-49,-16,1
189314,-555,-8033,-4554,-144,-46,-19,1
189320,-625,-8049,-4481,-143,-54,-23,1
189324,-715,-8024,-4429,-143,-63,-26,1
189329,-582,-8015,-4087,-142,-63,-30,1
189335,-735,-8039,-3847,-143,-65,-31,1
189340,-780,-8039,-3761,-144,-70,-34,1
189345,-797,-8045,-3357,-141,-68,-36,1
189350,-611,-8049,-3089,-142,-64,-39,1
189356,-539,-8091,-2925,-141,-64,-42,1
189361,-467,-8145,-2546,-139,-70,-45,1
189367,-484,-8178,-2257,-139,-69,-47,1
189373,-532,-8184,-2179,-139,-67,-50,1
189379,-585,-8206,-2010,-135,-66,-52,1
189385,-694,-8238,-1811,-134,-64,-55,1
189391,-810,-8270,-1675,-133,-57,-58,1
189397,-850,-8305,-1461,-132,-48,-61,1
189402,-880,-8341,-1253,-129,-43,-64,1
189408,-917,-8389,-1080,-126,-39,-66,1
189414,-926,-8464,-954,-123,-35,-69,1
189419,-913,-8548,-867,-120,-30,-72,1
189424,-908,-8635,-725,-117,-28,-74,1
189429,-902,-8731,-440,-114,-27,-77,1
189436,-993,-8831,-198,-111,-26,-79,1
189441,-1149,-8914,45,-108,-26,-82,1
189447,-1305,-8973,294,-105,-25,-84,1
189451,-1487,-9030,563,-102,-24,-86,1
189457,-1644,-9094,882,-98,-25,-87,1
189461,-1706,-9165,1169,-95,-26,-89,1
189467,-1726,-9249,1341,-90,-31,-90,1
189473,-1657,-9339,1500,-87,-38,-91,1
189479,-1684,-9448,1621,-83,-45,-91,1
189484,-1674,-9541,1629,-80,-56,-93,1
189490,-1601,-9640,1789,-77,-59,-94,1
189495,-1648,-9742,1999,-74,-67,-94,1
189500,-1855,-9840,2312,-70,-75,-94,1
189506,-2156,-9903,2499,-66,-80,-95,1
189511,-2510,-9931,2570,-62,-76,-94,1
189517,-2865,-9930,2533,-58,-69,-94,1
189521,-3155,-9901,2479,-54,-64,-94,1
189527,-3365,-9867,2611,-51,-61,-94,1
189533,-3593,-9831,2734,-47,-62,-94,1
189539,-3915,-9805,2981,-42,-57,-93,1
189544,-4135,-9740,2875,-37,-51,-92,1
189549,-4200,-9676,2849,-33,-39,-92,1
189555,-4289,-9614,2740,-29,-40,-90,1
189560,-4487,-9565,2836,-26,-44,-89,1
189565,-4685,-9500,3015,-22,-44,-87,1
189571,-4859,-9433,3298,-18,-39,-85,1
189576,-4979,-9351,3505,-14,-38,-82,1
189581,-5132,-9274,3592,-10,-40,-79,1
189585,-5374,-9201,3565,-7,-45,-76,1
189590,-6814,-10227,2365,-4,-60,-72,1
189596,-4877,-10390,2504,-2,-25,-75,1
189600,-6521,-8929,-193,-24,-145,-29,1
189605,-7929,-8460,-130,-21,-308,-20,1
189611,-9137,-7637,-8,-31,-125,-23,1
189617,-10172,-6835,38,-30,11,-11,1
189622,-11059,-6609,405,-22,13,-4,1
189627,-9859,-7037,229,-19,60,9,1
189632,-8031,-7624,83,-17,66,17,1
189637,-5542,-8248,-1142,-18,43,17,1
189641,-3490,-8844,60,-12,28,13,1
189646,-3114,-9083,1291,-9,5,11,1
189651,-4790,-9050,2706,0,-6,16,1
189656,-6446,-8675,3117,9,9,23,1
189660,-7865,-8264,2601,16,51,28,1
189664,-7942,-8103,1394,19,65,32,1
189667,-7324,-8223,568,19,46,36,1
189671,-6870,-8449,684,21,23,38,1
189675,-6380,-8516,1536,24,11,39,1
189679,-6411,-8486,2634,31,28,41,1
189682,-6829,-8400,3024,38,34,45,1
189687,-7384,-8325,2710,44,52,50,1
189692,-7642,-8212,1891,46,66,54,1
189696,-7660,-8100,1325,48,72,59,1
189700,-7419,-7977,1182,48,71,62,1
189703,-7248,-7921,1755,51,76,65,1
189708,-7204,-7912,2356,54,79,69,1
189712,-7231,-7913,2730,57,89,73,1
189715,-7199,-7871,2636,60,96,77,1
189719,-7144,-7798,2241,61,98,81,1
189723,-7032,-7707,1920,62,97,84,1
189727,-6986,-7634,1894,63,94,87,1
189730,-6984,-7599,2194,64,93,90,1
189734,-6967,-7606,2451,66,95,93,1
189738,-6844,-7657,2608,68,98,95,1
189742,-6555,-7697,2488,70,98,98,1
189745,-6215,-7726,2383,71,94,100,1
189749,-5906,-7727,2246,72,86,101,1
189753,-5749,-7723,2224,73,77,102,1
189758,-5646,-7724,2297,75,70,103,1
189763,-5524,-7751,2397,77,68,105,1
189768,-5326,-7801,2392,79,66,106,1
189773,-4974,-7869,2340,82,64,106,1
189778,-4493,-7927,2107,84,57,107,1
189783,-4061,-7954,1946,86,47,107,1
189788,-3758,-7967,1845,88,37,106,1
189793,-3651,-7982,1825,91,33,104,1
189798,-3628,-8012,1748,95,33,103,1
189803,-3486,-8065,1832,98,35,101,1
189808,-3386,-8131,1389,100,41,100,1
189813,-3422,-8200,1058,103,32,100,1
189818,-3406,-8246,856,105,29,99,1
189823,-3288,-8293,836,107,40,96,1
189828,-2984,-8381,890,111,49,94,1
189833,-2690,-8503,746,113,54,92,1
189838,-2420,-8615,550,116,55,89,1
189843,-2146,-8671,213,118,56,87,1
189848,-1769,-8675,-129,121,57,84,1
189853,-1404,-8661,-482,123,50,83,1
189858,-1290,-8679,-609,127,38,79,1
189863,-1526,-8690,-584,127,42,74,1
189868,-1757,-8702,-510,128,61,70,1
189873,-1912,-8667,-436,128,71,65,1
189878,-2200,-8643,-347,130,69,62,1
189883,-2220,-8637,-279,131,76,59,1
189888,-1928,-8656,-343,132,87,56,1
189893,-1415,-8704,-583,133,90,52,1
189898,-937,-8756,-960,133,84,48,1
189903,-561,-8788,-1310,134,77,44,1
189908,-399,-8785,-1623,133,71,41,1
189913,-358,-8754,-1855,133,69,37,1
189918,-288,-8732,-2055,133,71,34,1
189923,-192,-8719,-2249,132,75,30,1
189928,-29,-8732,-2351,132,76,27,1
189933,178,-8777,-2439,131,77,23,1
189938,407,-8854,-2632,130,77,20,1
189943,616,-8927,-2989,129,73,16,1
189948,745,-8958,-3383,128,64,12,1
189953,784,-8957,-3715,127,53,7,1
189958,744,-8939,-4034,126,44,3,1
189963,694,-8933,-4305,124,40,-2,1
189968,668,-8945,-4532,122,41,-6,1
189973,697,-8974,-4796,119,46,-11,1
189978,787,-9031,-5080,117,51,-15,1
189983,841,-9121,-5431,114,55,-19,1
189988,797,-9221,-5857,111,56,-23,1
189993,683,-9310,-6260,108,55,-28,1
189998,478,-9389,-6643,105,53,-31,1
190003,242,-9463,-6999,101,49,-35,1
190008,1978,-10443,-7316,99,48,-36,1
190013,2843,-10702,-5817,97,124,-41,1
190018,97,-9656,-7326,61,29,11,1
190023,-2256,-9628,-8619,61,-215,10,1
190028,-4274,-8415,-9149,58,-27,12,1
190033,-5484,-7130,-10182,31,68,23,1
190038,-5959,-7581,-10311,33,-44,18,1
190043,-5221,-8087,-9638,27,-94,16,1
190048,-3764,-8917,-8382,20,-19,18,1
190053,-2194,-9934,-7051,20,8,17,1
190058,-47,-10601,-7104,20,-8,8,1
190063,1171,-10955,-7958,19,7,8,1
190068,1392,-10985,-9162,10,-12,8,1
190073,768,-10667,-9982,3,-40,4,1
190078,-301,-10169,-9981,-3,-47,2,1
190083,-1683,-9788,-9276,-3,-39,2,1
190088,-2809,-9596,-9225,-3,-24,2,1
190093,-3123,-9495,-9585,-4,2,1,1
190098,-2632,-9358,-10556,-8,29,-1,1
190103,-1864,-9186,-11202,-14,35,-2,1
190108,-1295,-8942,-11243,-20,34,-4,1
190113,-962,-8727,-10674,-22,39,-6,1
190118,-1083,-8555,-10023,-24,44,-7,1
190123,-1432,-8391,-9717,-25,45,-8,1
190128,-1755,-8145,-10080,-29,49,-9,1
190133,-1929,-7817,-10385,-34,49,-11,1
190138,-1816,-7463,-10461,-40,41,-12,1
190143,-1690,-7218,-10118,-45,32,-14,1
190148,-1498,-7091,-9489,-48,22,-16,1
190153,-1288,-7051,-8985,-51,21,-17,1
190158,-1116,-7039,-8857,-55,17,-19,1
190163,-943,-6966,-8847,-60,10,-20,1
190168,-783,-6848,-8905,-65,4,-21,1
190173,-743,-6745,-8743,-70,-6,-23,1
190178,-762,-6675,-8319,-74,-18,-24,1
190183,-785,-6659,-7940,-78,-22,-25,1
190189,-852,-6692,-7701,-81,-26,-27,1
190194,-773,-6721,-7588,-85,-30,-28,1
190199,-657,-6751,-7630,-89,-32,-30,1
190205,-604,-6798,-7584,-93,-40,-31,1
190211,-551,-6854,-7342,-97,-48,-33,1
190216,-599,-6930,-7027,-100,-50,-34,1
190222,-700,-7026,-6710,-103,-53,-36,1
190228,-729,-7129,-6462,-105,-54,-37,1
190233,-736,-7237,-6359,-108,-52,-38,1
190239,-701,-7354,-6322,-111,-55,-40,1
190244,-648,-7474,-6174,-113,-59,-41,1
190249,-650,-7589,-5953,-116,-63,-43,1
190254,-682,-7702,-5679,-118,-66,-44,1
190259,-726,-7816,-5389,-119,-67,-45,1
190264,-781,-7926,-5167,-121,-67,-47,1
190269,-796,-8032,-5017,-123,-66,-48,1
190274,-819,-8123,-4846,-124,-68,-49,1
190280,-854,-8193,-4692,-126,-70,-51,1
190285,-874,-8257,-4492,-127,-73,-52,1
190290,-916,-8323,-4216,-128,-75,-54,1
190295,-910,-8389,-3925,-129,-74,-55,1
190300,-884,-8455,-3638,-130,-70,-56,1
190306,-903,-8512,-3365,-131,-68,-57,1
190311,-896,-8554,-3069,-132,-67,-58,1
190316,-962,-8686,-2743,-133,-60,-59,1
190321,-1155,-8652,-2549,-134,-57,-61,1
190327,-1289,-8554,-2560,-131,-64,-64,1
190331,-1377,-8474,-2344,-128,-70,-66,1
190335,-1383,-8436,-2136,-129,-69,-67,1
190340,-1460,-8408,-1911,-129,-64,-70,1
190345,-1816,-8396,-1933,-130,-71,-71,1
190349,-2049,-8353,-1696,-129,-68,-72,1
190354,-2322,-8297,-1298,-129,-57,-73,1
190359,-2414,-8214,-894,-129,-43,-77,1
190364,-2469,-8147,-751,-126,-37,-80,1
190369,-2428,-8128,-693,-122,-41,-81,1
190374,-2370,-8125,-834,-119,-46,-82,1
190380,-2030,-8112,-807,-116,-47,-84,1
190385,-1778,-8139,-682,-113,-52,-84,1
190390,-1639,-8190,-440,-110,-63,-85,1
190396,-1493,-8229,-307,-108,-67,-86,1
190401,-1307,-8261,-66,-105,-65,-87,1
190406,-1206,-8281,212,-102,-69,-87,1
190411,-1252,-8310,538,-98,-73,-87,1
190415,-1334,-8329,768,-94,-71,-87,1
190421,-1436,-8339,1012,-90,-66,-87,1
190426,-1618,-8322,1210,-86,-64,-87,1
190431,-1792,-8286,1429,-82,-61,-88,1
190435,-1969,-8247,1661,-78,-55,-88,1
190441,-2172,-8219,1908,-73,-53,-89,1
190445,-2370,-8195,2137,-68,-51,-90,1
190450,-2553,-8181,2327,-64,-49,-90,1
190455,-2684,-8175,2468,-58,-48,-91,1
190461,-2752,-8187,2594,-54,-47,-91,1
190466,-2774,-8210,2714,-49,-47,-91,1
190472,-2821,-8232,2875,-44,-50,-91,1
190477,-2941,-8250,3063,-39,-53,-91,1
190481,-3220,-8267,3209,-34,-56,-90,1
190487,-3411,-8268,3276,-30,-56,-91,1
190492,-3577,-8283,3318,-25,-53,-91,1
190497,-3780,-8311,3292,-21,-56,-90,1
190502,-3976,-8345,3309,-17,-56,-89,1
190507,-4123,-8381,3315,-13,-53,-89,1
190512,-4266,-8425,3324,-9,-52,-87,1
190517,-4416,-8476,3279,-5,-52,-86,1
190522,-5381,-9605,2673,0,-52,-84,1
190528,-3030,-9702,4631,12,-54,-92,1
190533,-4937,-8735,1630,-25,-106,-38,1
190538,-6571,-8891,-943,-24,-404,-22,1
190543,-7973,-8078,-533,-44,-375,-32,1
190548,-9174,-6279,-677,-54,-111,-17,1
190553,-10204,-5740,1760,-46,-73,-11,1
190558,-11086,-5711,1700,-42,0,-19,1
190563,-10702,-6315,370,-24,99,-18,1
190568,-7659,-7753,189,-16,106,-7,1
190573,-4226,-8564,-2178,-27,41,1,1
190578,-1910,-9179,-2727,-29,-43,-3,1
190584,-1040,-9493,-861,-27,-115,-13,1
190589,-3231,-9732,1602,-21,-128,-7,1
190594,-5109,-9500,2569,-11,-126,0,1
190598,-6719,-9147,2594,3,-37,3,1
190603,-7018,-8830,1598,8,18,7,1
190607,-6532,-8973,659,11,-4,10,1
190612,-5363,-9210,-1481,3,-27,11,1
190616,-5081,-9495,-1326,5,-62,13,1
190621,-4774,-9388,-296,6,-69,11,1
190625,-5688,-9322,1154,11,-53,16,1
190630,-6250,-9130,2194,17,-43,19,1
190635,-6826,-9038,2220,21,-7,25,1
190640,-6658,-8945,1358,25,8,29,1
190644,-6291,-8915,436,25,18,32,0
190647,-5811,-8822,-394,24,8,35,0
190651,-5782,-8683,-362,24,-1,37,0
190655,-6020,-8483,316,25,2,40,0
190659,-6494,-8281,832,27,13,45,0
190663,-6730,-8094,1121,30,28,50,0
190667,-6555,-7962,936,32,46,53,0
190672,-6140,-7883,240,32,52,56,0
190677,-5653,-7841,-257,34,46,58,0
190682,-5446,-7755,-622,33,39,60,0
190687,-5553,-7647,-560,34,34,62,0
190692,-5747,-7518,-279,36,37,64,0
190697,-5863,-7405,-140,37,44,66,0
190702,-5729,-7353,-217,39,51,68,0
190707,-5432,-7340,-623,40,52,69,0
190712,-5094,-7334,-1051,41,46,70,0
190717,-4787,-7319,-1304,41,39,70,0
190722,-4697,-7287,-1361,42,31,70,0
190727,-4672,-7247,-1190,44,25,70,0
190732,-4667,-7209,-1008,45,25,70,0
190737,-4622,-7172,-998,47,24,71,0
190742,-4493,-7168,-1134,49,25,71,0
190747,-4257,-7170,-1373,50,24,70,0
190752,-3960,-7182,-1454,52,22,69,0
190757,-3780,-7198,-1488,52,17,69,0
190762,-3737,-7234,-1538,54,14,69,0
190767,-3650,-7258,-1559,56,18,69,0
190772,-3503,-7235,-1586,58,27,69,0
190777,-3333,-7202,-1677,59,30,68,0
190782,-3101,-7189,-1727,61,31,68,0
190787,-2851,-7286,-1895,63,34,69,0
190792,-2474,-7307,-2086,66,35,70,0
190797,-2342,-7073,-1889,66,38,70,0
190802,-2411,-6821,-1686,66,31,67,0
190807,-2612,-6633,-1218,68,33,65,0
190812,-2803,-6558,-1229,71,44,64,0
190817,-3075,-6567,-1556,72,48,63,0
190823,-3207,-6555,-1648,73,44,62,0
190827,-2820,-6541,-1469,74,55,60,0
190832,-2714,-6554,-1779,74,61,61,0
190837,-2632,-6579,-1641,75,45,62,0
190842,-2480,-6556,-1646,75,44,60,0
190847,-2217,-6542,-1397,77,52,59,0
190852,-2227,-6549,-1442,78,48,58,0
190857,-2119,-6569,-1417,79,42,56,0
190862,-2163,-6577,-1580,80,44,55,0
190867,-2102,-6569,-1604,81,43,54,0
190872,-2043,-6536,-1642,81,44,54,0
190877,-1978,-6520,-1568,82,43,52,0
190882,-1973,-6518,-1602,83,40,49,0
190887,-1889,-6525,-1691,84,38,47,0
190892,-1953,-6532,-1806,85,36,47,0
190897,-1955,-6514,-1829,86,30,45,0
190902,-2001,-6483,-1878,86,30,43,0
190907,-2008,-6460,-1836,87,28,40,0
190912,-2076,-6455,-1789,86,24,38,0
190917,-2096,-6462,-1830,86,24,35,0
190922,-2074,-6471,-2009,86,28,33,0
190927,-2004,-6487,-2247,88,30,32,0
190932,-1937,-6514,-2451,89,31,30,0
190937,-1862,-6542,-2699,88,32,28,0
190942,-1787,-6557,-2955,87,37,26,0
190947,-1788,-6589,-3118,86,42,23,0
190952,-1775,-6639,-3260,85,46,21,0
190957,-1762,-6711,-3341,84,54,19,0
190962,-1730,-6774,-3454,83,59,17,0
190967,-1686,-6851,-3252,83,63,15,0
190972,-1526,-6915,-3259,82,67,12,0
190977,-1416,-7001,-3374,81,67,9,0
190982,-1290,-7063,-3746,79,61,6,0
190987,-1269,-7085,-4028,77,55,3,0
190992,-1294,-7071,-4267,75,48,-1,0
190997,-1355,-7059,-4399,73,43,-4,0
191001,-1384,-7072,-4532,72,39,-7,0
191006,-1389,-7117,-4757,71,35,-11,0
191011,-1331,-7175,-5064,69,31,-14,0
191017,-1269,-7235,-5381,67,26,-18,0
191023,-1229,-7282,-5654,65,21,-21,0
191028,-1216,-7322,-5847,63,18,-24,0
191033,-1261,-7354,-5994,61,16,-27,0
191038,-1326,-7381,-6187,58,15,-30,0
191043,-1397,-7399,-6454,56,17,-32,0
191047,-1487,-7418,-6775,54,19,-35,0
191051,-1572,-7437,-7093,51,22,-37,0
191056,-1688,-7451,-7365,48,26,-39,0
191061,-1829,-7462,-7555,45,32,-41,0
191066,-1985,-7482,-7707,42,37,-42,0
191071,-2186,-7534,-7886,39,39,-43,0
191076,-2470,-7595,-8071,35,40,-44,0
191081,-2570,-7661,-8076,32,42,-46,0
191086,-2224,-8907,-7689,30,49,-47,0
191091,-985,-9351,-7746,28,102,-53,0
191096,-3184,-7736,-8979,10,-13,-6,0
191101,-5069,-7407,-10037,3,-197,-2,0
191106,-6685,-6457,-10846,-4,-28,0,0
191111,-8070,-5984,-11221,-12,91,9,0
191116,-7901,-6172,-9825,-14,42,12,0
191121,-6903,-6673,-8669,-19,28,18,0
191126,-5216,-7292,-7634,-20,48,16,0
191131,-3393,-7975,-7105,-21,49,16,0
191136,-1293,-8412,-7527,-26,23,9,0
191141,-385,-8619,-8043,-30,6,10,0
191146,-496,-8559,-8479,-37,-28,10,0
191151,-1367,-8301,-8512,-43,-41,10,0
191156,-2533,-7993,-7810,-46,-37,9,0
191161,-3446,-7795,-7303,-47,-26,10,0
191166,-4080,-7777,-7232,-47,-11,12,0
191171,-4060,-7824,-7737,-50,-2,11,0
191176,-3560,-7830,-8283,-54,9,10,0
191181,-3066,-7800,-8452,-59,10,10,0
191186,-2654,-7713,-8076,-62,2,8,0
191191,-2480,-7655,-7559,-63,1,7,0
191196,-2618,-7665,-7240,-64,-3,6,0
191201,-2923,-7685,-7182,-65,-9,5,0
191206,-3195,-7642,-7346,-68,-8,4,0
191211,-3338,-7535,-7440,-71,-6,3,0
191216,-3342,-7386,-7268,-73,-10,2,0
191221,-3278,-7255,-6975,-75,-14,1,0
191226,-3121,-7189,-6724,-76,-19,0,0
191231,-2976,-7180,-6531,-77,-24,-2,0
191236,-2924,-7195,-6506,-79,-29,-3,0
191241,-2873,-7194,-6473,-81,-33,-4,0
191246,-2871,-7154,-6284,-82,-34,-5,0
191251,-2899,-7081,-6035,-84,-37,-6,0
191256,-2879,-7010,-5783,-85,-38,-8,0
191261,-2876,-6947,-5558,-85,-39,-9,0
191266,-2854,-6882,-5473,-86,-42,-10,0
191271,-2798,-6811,-5382,-87,-44,-12,0
191276,-2720,-6714,-5195,-88,-46,-14,0
191281,-2470,-6596,-4996,-89,-49,-15,0
191286,-2216,-6491,-4733,-90,-49,-15,0
191291,-2124,-6398,-4455,-90,-52,-17,0
191296,-2051,-6291,-4247,-91,-58,-20,0
191301,-2083,-6168,-3995,-91,-60,-22,0
191306,-2159,-6029,-3652,-92,-58,-24,0
191311,-2157,-5872,-3521,-92,-55,-25,0
191316,-2267,-5736,-3382,-91,-54,-28,0
191321,-2366,-5599,-3297,-91,-58,-30,0
191326,-2323,-5464,-3301,-91,-54,-32,0
191331,-2132,-5365,-3164,-89,-48,-35,0
191336,-2082,-5312,-2985,-88,-49,-37,0
191341,-2038,-5272,-2974,-88,-54,-39,0
191346,-2022,-5245,-2901,-87,-51,-41,0
191352,-1932,-5234,-2693,-86,-46,-43,0
191357,-1861,-5229,-2624,-86,-41,-46,0
191362,-1774,-5243,-2534,-84,-40,-48,0
191368,-1729,-5292,-2352,-82,-37,-51,0
191372,-1691,-5350,-2235,-80,-34,-53,0
191378,-1629,-5413,-2203,-78,-31,-55,0
191383,-1572,-5499,-2091,-76,-29,-58,0
191388,-1521,-5602,-2017,-74,-30,-60,0
191393,-1477,-5711,-1892,-72,-30,-63,0
191399,-1464,-5833,-1702,-70,-30,-65,0
191404,-1512,-5955,-1506,-68,-32,-68,0
191409,-1588,-6064,-1280,-66,-33,-71,0
191414,-1698,-6154,-1074,-64,-34,-73,0
191420,-1819,-6231,-908,-61,-35,-76,0
191425,-1925,-6303,-778,-59,-36,-78,0
191430,-1994,-6374,-688,-56,-36,-80,0
191436,-2002,-6447,-600,-54,-38,-83,0
191441,-1962,-6521,-517,-51,-41,-85,1
191446,-1862,-6595,-496,-49,-43,-87,1
191451,-1712,-6683,-496,-46,-45,-88,1
191456,-1599,-6774,-447,-43,-50,-88,1
191462,-1513,-6849,-302,-40,-54,-90,1
191466,-1503,-6918,-213,-37,-55,-91,1
191471,-1582,-6989,-170,-35,-57,-93,1
191476,-1770,-7048,-112,-33,-58,-94,1
191481,-2034,-7094,-37,-30,-57,-95,1
191487,-2277,-7119,64,-28,-52,-97,1
191492,-2540,-7143,160,-26,-46,-98,1
191497,-2841,-7180,268,-23,-42,-99,1
191502,-3227,-7218,373,-21,-34,-100,1
191508,-3711,-7247,516,-19,-24,-103,1
191513,-4020,-7250,480,-16,-24,-105,1
191519,-4261,-7265,320,-12,-20,-104,1
191524,-4038,-7319,252,-9,-15,-102,1
191529,-3806,-7441,411,-7,-9,-99,1
191535,-3727,-7628,323,-5,-19,-97,1
191540,-1010,-8878,-1055,-2,-33,-97,1
191545,1474,-9950,-550,1,-3,-110,1
191550,-1077,-8477,-2812,-26,-136,-51,1
191555,-3263,-8922,-3031,-31,-458,-33,1
191560,-5136,-7210,-2554,-49,-351,-23,1
191565,-6743,-4951,-1330,-55,-80,-7,1
191570,-8119,-3474,1199,-52,96,-11,1
191575,-9300,-3736,1433,-43,158,-8,1
191580,-7217,-5000,549,-32,93,-13,1
191584,-4826,-6626,-607,-28,74,2,1
191589,-1798,-8019,-2860,-38,36,0,1
191594,799,-8884,-1247,-35,2,-11,1
191598,168,-9088,679,-34,-66,-13,1
191603,-2196,-8892,2451,-25,-98,-8,1
191608,-4222,-8289,2947,-17,-48,-3,1
191613,-5959,-7783,2964,-7,42,3,1
191618,-6077,-7569,2289,-3,63,10,1
191623,-6572,-7804,780,-4,39,18,1
191629,-5730,-7930,-1053,-10,8,18,1
191635,-4516,-8012,-437,-9,11,15,1
191640,-4214,-8036,884,-7,-4,14,1
191644,-5259,-8059,2118,-1,-16,18,1
191648,-6567,-7948,2847,6,13,21,1
191652,-7493,-7779,2527,10,52,27,1
191656,-7723,-7604,1867,12,68,32,1
191659,-7242,-7541,1014,10,67,35,1
191663,-6696,-7589,937,9,56,37,1
191667,-6524,-7637,1527,10,36,39,1
191671,-6701,-7623,2053,12,36,41,1
191676,-7160,-7523,2523,15,43,45,1
191681,-7641,-7360,2422,18,53,49,1
191686,-7735,-7212,1999,19,63,52,1
191691,-7605,-7124,1531,19,66,55,1
191696,-7273,-7095,1410,19,61,57,1
191701,-7049,-7094,1565,20,58,59,1
191706,-7035,-7081,1925,23,56,60,1
191711,-7163,-7044,2084,26,62,63,1
191716,-7195,-6983,1864,28,68,65,1
191721,-7060,-6928,1483,29,72,67,1
191726,-6804,-6898,1135,29,71,68,1
191731,-6612,-6894,958,30,65,70,1
191736,-6508,-6913,1072,32,61,72,1
191741,-6419,-6939,1266,34,63,73,1
191746,-6275,-6990,1384,37,68,75,1
191751,-6013,-7062,1283,40,72,76,1
191756,-5753,-7137,972,41,72,77,1
191761,-5517,-7228,685,44,68,78,1
191766,-5327,-7311,453,45,65,78,1
191771,-5230,-7390,358,47,63,79,1
191776,-5112,-7461,364,49,62,80,1
191780,-5049,-7527,326,51,63,81,1
191785,-4935,-7604,228,54,65,81,1
191790,-4728,-7679,70,56,67,82,1
191795,-4426,-7745,-58,58,68,81,1
191800,-4203,-7806,-129,60,65,82,1
191805,-4010,-7863,-217,62,61,81,1
191811,-3901,-7916,-286,64,61,81,1
191815,-3717,-7955,-400,67,61,80,1
191820,-3578,-7987,-475,69,62,80,1
191825,-3360,-8033,-563,70,63,79,1
191830,-3183,-8078,-673,72,63,79,1
191836,-2958,-8126,-757,74,61,78,1
191840,-2683,-8157,-850,75,59,78,1
191845,-2356,-8184,-930,77,59,77,1
191850,-2054,-8200,-1326,78,51,77,1
191855,-1844,-8250,-1501,80,38,77,1
191861,-1699,-8223,-1702,80,38,76,1
191865,-1501,-8208,-1691,82,46,74,1
191871,-1401,-8209,-1834,83,47,71,1
191876,-1435,-8217,-2109,85,38,69,1
191881,-1610,-8213,-2280,86,29,67,1
191886,-1904,-8154,-2511,85,22,64,1
191892,-2238,-8079,-2313,85,20,61,1
191897,-2401,-7985,-2180,85,21,59,1
191902,-2206,-7940,-2230,86,28,56,1
191906,-1910,-7960,-2296,88,30,53,1
191912,-1482,-8007,-2407,89,24,50,1
191917,-1155,-8035,-2691,89,21,47,1
191921,-939,-8035,-2938,89,16,43,1
191925,-910,-7996,-3180,89,13,40,1
191930,-918,-7912,-3457,88,16,38,1
191935,-923,-7823,-3692,88,24,35,1
191940,-846,-7740,-3990,87,32,32,1
191945,-697,-7675,-4296,87,40,29,1
191950,-469,-7635,-4529,86,44,26,1
191955,-284,-7615,-4736,85,46,23,1
191960,-139,-7591,-4835,84,44,20,1
191965,20,-7589,-4798,83,43,17,1
191970,167,-7609,-4856,81,42,14,1
191975,342,-7654,-4962,80,39,11,1
191980,535,-7702,-5168,78,33,8,1
191985,683,-7743,-5375,76,27,5,1
191990,757,-7768,-5530,74,19,1,1
191995,761,-7783,-5633,72,12,-2,1
192000,711,-7797,-5736,70,7,-5,1
192005,635,-7818,-5876,68,4,-8,1
192010,575,-7847,-6082,66,2,-12,1
192015,499,-7883,-6328,64,1,-15,1
192020,400,-7916,-6571,62,-1,-19,1
192025,281,-7945,-6779,60,-1,-22,1
192030,122,-7970,-6947,57,-2,-25,1
192035,-38,-7992,-7111,55,-1,-28,1
192040,-181,-8009,-7286,53,-1,-31,1
192045,-505,-9205,-7647,51,-1,-34,1
192050,1341,-9274,-4954,57,36,-48,1
192055,-1190,-8168,-6586,33,35,-11,1
192060,-3360,-7640,-7985,18,-195,-1,1
192065,-5220,-6946,-9185,13,-157,1,1
192070,-6814,-5796,-10213,-4,-16,7,1
192075,-6311,-5360,-10275,-4,-15,6,1
192080,-6952,-5265,-9458,-11,-27,14,1
192085,-6476,-5653,-9335,-10,-44,11,1
192090,-5321,-6373,-7938,-7,-2,10,1
192095,-3789,-7046,-8183,-9,41,7,1
192100,-2201,-7613,-7867,-7,44,6,1
192105,-1194,-7830,-8730,-12,38,4,1
192110,-659,-7785,-8775,-14,39,1,1
192115,-878,-7575,-9258,-18,34,0,1
192120,-1618,-7349,-8830,-19,22,-3,1
192125,-2301,-7145,-8637,-21,27,-3,1
192130,-3102,-7066,-8367,-21,41,-2,1
192135,-3316,-7031,-8703,-23,45,-2,1
192140,-3132,-7035,-8865,-26,55,-3,1
192145,-2636,-7032,-9116,-29,55,-4,1
192150,-2044,-7061,-8844,-32,48,-5,1
192155,-1627,-7126,-8497,-35,43,-5,1
192160,-1358,-7215,-8176,-36,36,-6,1
192165,-1376,-7279,-8088,-39,28,-7,1
192170,-1630,-7270,-8127,-42,19,-6,1
192175,-1804,-7158,-8249,-45,11,-7,1
192181,-1916,-7018,-8204,-49,8,-7,1
192186,-1955,-6914,-8068,-52,-3,-7,1
192191,-1852,-6869,-7878,-54,-11,-8,1
192197,-1723,-6886,-7786,-57,-14,-8,1
192203,-1606,-6916,-7772,-59,-23,-8,1
192208,-1498,-6916,-7808,-62,-28,-9,1
192214,-1462,-6897,-7779,-65,-33,-9,1
192220,-1526,-6885,-7689,-68,-38,-9,1
192226,-1579,-6894,-7556,-70,-41,-9,1
192230,-1656,-6929,-7448,-73,-40,-9,1
192234,-1687,-6983,-7396,-75,-41,-10,1
192238,-1651,-7028,-7368,-77,-41,-11,1
192243,-1606,-7063,-7314,-79,-40,-11,1
192247,-1557,-7094,-7227,-81,-41,-12,1
192252,-1495,-7121,-7080,-83,-42,-13,1
192256,-1454,-7144,-6906,-85,-41,-14,1
192260,-1455,-7151,-6732,-87,-42,-15,1
192265,-1414,-7126,-6558,-87,-43,-16,1
192270,-1322,-7083,-6378,-89,-41,-18,1
192275,-1253,-7027,-6175,-91,-43,-19,1
192280,-1174,-6962,-5942,-92,-46,-20,1
192285,-1101,-6907,-5653,-94,-47,-22,1
192290,-1050,-6858,-5368,-95,-49,-23,1
192295,-975,-6816,-5072,-96,-53,-25,1
192300,-894,-6779,-4748,-97,-57,-27,1
192305,-797,-6736,-4440,-99,-64,-29,1
192310,-657,-6696,-4080,-100,-69,-31,1
192315,-509,-6677,-3672,-101,-75,-32,1
192320,-393,-6681,-3345,-102,-82,-34,1
192325,-398,-6713,-3007,-103,-90,-36,1
192330,-487,-6750,-2679,-103,-99,-38,1
192335,-623,-6771,-2469,-104,-103,-40,1
192340,-727,-6799,-2271,-104,-106,-42,1
192345,-579,-6857,-1942,-103,-112,-46,1
192350,-732,-6964,-1733,-103,-120,-47,1
192355,-777,-7063,-1669,-103,-135,-50,1
192360,-879,-7146,-1496,-103,-143,-51,1
192365,-761,-7190,-1406,-103,-151,-54,1
192370,-729,-7250,-1344,-103,-159,-57,1
192375,-717,-7352,-1221,-101,-172,-60,1
192380,-829,-7475,-1185,-100,-177,-62,1
192385,-969,-7606,-1140,-98,-176,-65,1
192390,-1104,-7729,-1081,-97,-170,-67,1
192395,-1142,-7854,-1031,-95,-161,-70,1
192400,-1208,-8006,-946,-93,-152,-73,1
192405,-1220,-8177,-843,-90,-142,-76,1
192410,-1227,-8359,-720,-88,-131,-79,1
192415,-1260,-8533,-490,-85,-121,-82,1
192420,-1379,-8686,-338,-83,-112,-85,1
192425,-1432,-8782,-290,-80,-101,-89,1
192430,-1503,-8844,-240,-76,-91,-92,1
192435,-1531,-8874,-127,-73,-84,-95,1
192440,-1561,-8891,58,-69,-74,-98,1
192445,-1621,-8883,220,-65,-66,-102,1
192450,-1656,-8838,344,-61,-56,-105,1
192455,-1770,-8765,466,-57,-46,-107,1
192460,-1946,-8671,659,-52,-37,-110,1
192465,-2107,-8564,791,-48,-26,-112,1
192470,-2172,-8454,931,-43,-14,-114,1
192475,-2221,-8356,1087,-39,-8,-116,1
192480,-2208,-8279,1302,-35,-3,-118,1
192485,-2320,-8222,1649,-30,2,-118,1
192490,-2698,-8162,1865,-26,5,-119,1
192495,-3152,-8054,2171,-23,18,-123,1
192500,-3446,-7911,2256,-19,17,-124,1
192505,-3659,-7813,2290,-13,8,-122,1
192510,-3473,-7778,2274,-9,5,-118,1
192515,-3036,-9007,2131,-7,0,-113,1
192520,-3074,-10060,4167,5,-18,-121,1
192525,-4975,-9366,1232,-31,-32,-71,1
192530,-6604,-9184,-1284,-32,-439,-41,1
192536,-8001,-7995,163,-49,-486,-36,1
192542,-9198,-5717,947,-61,-97,-15,1
192547,-10224,-4624,3151,-57,46,-11,1
192553,-11104,-4429,3142,-48,145,-10,1
192558,-9522,-5385,1989,-34,154,-9,1
192562,-5822,-6956,622,-29,144,5,1
192567,-2652,-8302,-1807,-39,124,5,1
192571,67,-9290,-275,-37,18,-6,1
192576,131,-9774,2103,-36,-56,-10,1
192581,-2228,-9660,4143,-28,-104,-1,1
192586,-4249,-8965,5064,-14,-44,1,1
192590,-5982,-8311,5242,-3,56,8,1
192595,-7468,-8092,3810,-1,58,16,1
192600,-8576,-8206,2003,-3,21,24,1
192605,-6730,-8226,1261,-6,34,21,1
192609,-5170,-8508,2055,-7,45,21,1
192614,-3966,-8801,3340,-2,-8,18,1
192620,-4285,-9079,4992,7,9,18,1
192624,-5242,-9010,5092,14,24,22,1
192629,-6414,-8709,4478,20,52,27,1
192634,-6748,-8331,3338,22,62,30,1
192639,-6820,-8102,2368,20,69,33,1
192644,-6691,-8021,2476,20,52,36,1
192649,-6604,-8015,3263,22,58,38,1
192654,-6602,-7990,3931,25,64,42,1
192659,-6241,-7895,4399,30,85,43,1
192664,-5995,-7834,4198,34,91,45,1
192670,-5954,-7782,3660,36,82,47,1
192675,-6057,-7704,3232,37,75,49,1
192680,-6165,-7590,3215,38,77,50,1
192685,-6344,-7490,3428,40,77,53,1
192690,-6448,-7422,3624,43,82,55,1
192695,-6469,-7402,3582,46,88,57,1
192701,-6243,-7409,3236,48,91,58,1
192705,-5920,-7433,2817,50,88,59,1
192709,-5676,-7427,2610,51,78,60,1
192714,-5683,-7413,2640,53,71,61,1
192719,-5887,-7402,2782,56,69,62,1
192724,-6029,-7385,2730,59,74,64,1
192729,-5922,-7392,2536,61,82,65,1
192734,-5685,-7419,2077,63,85,66,1
192739,-5439,-7454,1743,64,78,67,1
192744,-5312,-7478,1616,65,73,68,1
192749,-5243,-7500,1688,67,73,69,1
192754,-5176,-7520,1762,69,76,70,1
192759,-5063,-7539,1740,71,80,71,1
192764,-4939,-7560,1521,72,82,73,1
192769,-4920,-7573,1239,73,80,74,1
192774,-4794,-7562,1018,74,79,75,1
192779,-4633,-7555,1001,75,82,76,1
192784,-4504,-7566,1005,76,80,77,1
192789,-4385,-7605,1020,78,78,77,1
192794,-4353,-7641,930,79,77,78,1
192799,-4241,-7659,782,80,76,79,1
192804,-4110,-7667,609,80,74,80,1
192809,-3974,-7684,536,81,70,80,1
192814,-3986,-7728,509,82,64,81,1
192819,-3965,-7775,500,83,59,81,1
192824,-3931,-7829,473,85,60,81,1
192829,-3784,-7881,378,86,57,81,1
192834,-3643,-7963,266,87,55,81,1
192839,-3538,-8054,84,88,50,81,1
192844,-3465,-8159,-24,89,47,81,1
192849,-3318,-8272,-119,90,45,81,1
192854,-3091,-8369,-183,91,47,82,1
192859,-2859,-8436,-284,93,44,83,1
192864,-2709,-8507,-402,94,40,82,1
192869,-2575,-8478,-536,95,36,82,1
192874,-2633,-8408,-569,96,32,81,1
192879,-2811,-8344,-566,97,30,79,1
192885,-2899,-8327,-536,98,38,77,1
192890,-2961,-8368,-832,99,48,77,1
192896,-3066,-8442,-1135,100,48,77,1
192900,-2935,-8507,-1253,100,51,76,1
192905,-2631,-8573,-1350,100,63,76,1
192909,-2209,-8647,-1474,101,67,77,1
192914,-1817,-8732,-1657,102,66,78,1
192919,-1545,-8800,-1932,103,62,76,1
192924,-1595,-8825,-2151,104,55,73,1
192929,-1882,-8766,-2308,103,47,68,1
192934,-2097,-8679,-2244,103,46,65,1
192939,-2640,-8624,-2243,101,46,62,1
192944,-3108,-8605,-2060,100,37,61,1
192949,-3380,-8613,-1845,101,48,60,1
192954,-2988,-8692,-1769,102,60,57,1
192959,-2305,-8845,-1882,103,68,54,1
192964,-1616,-9027,-2270,103,60,49,1
192969,-1227,-9163,-2824,102,51,45,1
192974,-1122,-9222,-3269,102,46,41,1
192979,-1256,-9203,-3546,101,50,38,1
192984,-1342,-9157,-3695,99,59,34,1
192989,-1336,-9138,-3901,98,71,30,1
192994,-1122,-9152,-4112,97,79,25,1
192999,-736,-9182,-4354,96,85,20,1
193004,-350,-9210,-4627,95,84,15,1
193009,-110,-9218,-4925,93,78,9,1
193014,-16,-9195,-5214,91,71,3,1
193019,-29,-9156,-5504,89,66,-2,1
193024,16,-9108,-5870,87,63,-7,1
193029,150,-9072,-6242,85,60,-13,1
193034,401,-9056,-6589,83,55,-18,1
193039,698,-9045,-6925,80,49,-24,1
193044,926,-9030,-7191,77,43,-29,1
193049,1049,-9013,-7413,74,38,-34,1
193054,1080,-8987,-7685,71,37,-38,1
193059,1020,-8938,-7996,67,38,-42,1
193064,938,-8858,-8371,63,38,-46,1
193069,822,-9191,-8762,59,39,-50,1
193074,3044,-10073,-6035,60,58,-67,1
193079,270,-9683,-7513,43,83,-39,1
193084,-2108,-9397,-8780,21,-199,-13,1
193089,-4147,-8380,-9866,11,-171,-5,1
193094,-5894,-6713,-10797,-8,35,6,1
193099,-6303,-6247,-10900,-14,13,10,1
193104,-6757,-6357,-10342,-19,6,16,1
193109,-5553,-7102,-9207,-19,18,13,1
193114,-3059,-8006,-8512,-20,51,9,1
193119,-737,-8761,-8486,-24,61,5,1
193124,1142,-9092,-8979,-29,24,0,1
193129,1824,-9097,-9498,-36,3,-4,1
193134,1219,-8896,-9892,-42,-26,-6,1
193139,54,-8578,-9677,-47,-45,-7,1
193144,-1099,-8291,-9114,-49,-32,-6,1
193149,-2022,-8166,-9231,-52,-19,-3,1
193154,-2006,-8145,-9612,-54,-8,-3,1
193159,-1230,-8149,-10139,-60,10,-5,1
193164,-513,-8210,-10409,-65,5,-6,1
193169,-115,-8279,-10060,-70,-10,-7,1
193174,104,-8304,-9384,-72,-8,-10,1
193178,-153,-8333,-9021,-74,-3,-10,1
193183,-521,-8319,-8997,-75,-10,-10,1
193188,-742,-8214,-9204,-79,-7,-10,1
193193,-802,-8076,-9453,-83,-8,-11,1
193198,-842,-7968,-9322,-86,-21,-12,1
193203,-800,-7906,-8854,-89,-30,-13,1
193208,-822,-7904,-8390,-90,-31,-14,1
193213,-800,-7919,-8055,-91,-34,-15,1
193218,-798,-7910,-7986,-93,-33,-15,1
193223,-806,-7859,-8036,-96,-35,-16,1
193228,-786,-7763,-7940,-99,-38,-17,1
193233,-798,-7655,-7640,-101,-41,-18,1
193238,-848,-7566,-7288,-102,-44,-19,1
193243,-879,-7487,-6921,-103,-46,-20,1
193248,-847,-7416,-6691,-103,-45,-22,1
193253,-780,-7345,-6599,-105,-44,-23,1
193258,-736,-7251,-6445,-106,-49,-24,1
193263,-708,-7136,-6204,-107,-53,-25,1
193268,-753,-7030,-5895,-108,-55,-26,1
193273,-823,-6934,-5548,-109,-59,-28,1
193279,-816,-6853,-5269,-109,-59,-29,1
193285,-787,-6786,-5106,-109,-56,-30,1
193291,-703,-6731,-4905,-109,-58,-33,1
193295,-574,-6678,-4656,-110,-60,-34,1
193301,-543,-6628,-4411,-111,-60,-35,1
193305,-695,-6581,-4159,-110,-64,-37,1
193310,-844,-6532,-3886,-109,-65,-39,1
193315,-966,-6482,-3603,-110,-60,-40,1
193320,-1002,-6426,-3437,-110,-55,-41,1
193325,-1009,-6397,-3256,-108,-54,-44,1
193330,-999,-6388,-3056,-107,-56,-46,1
193334,-1014,-6397,-2916,-106,-57,-48,1
193339,-970,-6411,-2744,-105,-58,-50,1
193345,-1055,-6446,-2556,-104,-59,-52,1
193351,-1198,-6481,-2485,-103,-65,-53,1
193357,-1372,-6508,-2370,-103,-64,-55,1
193362,-1397,-6523,-2182,-102,-62,-57,1
193367,-1318,-6542,-2046,-100,-59,-59,1
193372,-1306,-6599,-1840,-97,-64,-61,1
193377,-1355,-6648,-1690,-96,-70,-63,1
193382,-1451,-6699,-1560,-94,-69,-66,1
193387,-1624,-6750,-1399,-92,-69,-67,1
193394,-1794,-6786,-1191,-91,-69,-69,1
193399,-1941,-6824,-962,-88,-66,-72,1
193403,-2110,-6883,-713,-86,-65,-73,1
193407,-2241,-6942,-505,-84,-64,-76,1
193412,-2300,-6994,-390,-81,-60,-78,1
193416,-2298,-7037,-356,-78,-60,-79,1
193422,-2183,-7083,-201,-74,-63,-80,1
193426,-2130,-7149,-109,-71,-66,-80,1
193432,-2137,-7221,46,-68,-72,-81,1
193438,-2149,-7286,36,-65,-74,-83,0
193442,-2165,-7342,63,-63,-75,-84,0
193447,-2221,-7386,172,-60,-77,-85,0
193451,-2298,-7437,333,-57,-79,-86,0
193455,-2413,-7501,493,-53,-77,-87,0
193460,-2586,-7573,628,-50,-77,-87,0
193464,-2716,-7641,694,-46,-75,-88,0
193468,-2867,-7703,708,-43,-74,-88,0
193473,-2994,-7763,747,-40,-76,-89,0
193478,-3138,-7824,827,-37,-76,-89,0
193483,-3476,-7885,1017,-34,-78,-91,0
193488,-3861,-7909,1068,-32,-86,-93,0
193493,-4119,-7927,1040,-28,-81,-92,0
193498,-4465,-7970,781,-24,-80,-92,0
193503,-4433,-8011,437,-21,-91,-93,0
193508,-4096,-8094,307,-19,-88,-90,0
193513,-4102,-8209,240,-19,-94,-86,0
193518,-3859,-8323,257,-16,-108,-87,0
193523,-3977,-8453,296,-15,-104,-86,0
193528,-3801,-9585,89,-12,-110,-86,0
193533,-2475,-10284,1659,-4,-106,-100,0
193538,-4461,-9228,-918,-32,-104,-52,0
193543,-6164,-8711,-3126,-28,-360,-25,0
193548,-7623,-7883,-2512,-34,-397,-25,0
193553,-8874,-6568,-2339,-46,-169,-13,0
193558,-9947,-5829,-501,-48,-56,-18,0
193563,-9441,-5973,-800,-42,-9,-15,0
193568,-7331,-6777,-1046,-30,45,10,0
193573,-5905,-8015,-1456,-30,29,18,0
193578,-2722,-8792,-3102,-36,31,7,0
193583,-319,-9560,-2719,-36,30,3,0
193588,-705,-9664,-1662,-36,-95,-1,0
193593,-2944,-9445,-452,-33,-112,6,0
193598,-4863,-8770,248,-29,-49,8,0
193603,-5780,-8226,615,-23,43,15,0
193608,-6671,-8167,1186,-17,38,24,0
193613,-6660,-8319,456,-17,14,29,0
193618,-6403,-8594,660,-15,41,30,0
193623,-5055,-8625,-907,-18,25,28,0
193628,-3988,-8605,-529,-18,24,24,0
193633,-3874,-8486,-56,-16,-17,22,0
193638,-4823,-8342,1031,-11,-17,22,0
193643,-5813,-8129,1796,-6,3,25,0
193648,-6312,-7876,1540,-2,41,27,0
193653,-6228,-7697,1121,3,50,28,0
193658,-5649,-7532,235,2,41,28,0
193663,-5130,-7430,385,3,29,27,0
193668,-4865,-7273,788,5,15,26,0
193673,-5143,-7117,1684,10,15,26,0
193678,-5543,-6912,1972,16,23,27,0
193683,-5742,-6711,1779,20,42,28,0
193688,-5496,-6520,1331,23,51,28,0
193693,-5170,-6381,1132,24,49,29,0
193698,-4983,-6274,1245,26,40,28,0
193703,-4973,-6217,1783,29,41,28,0
