millis,ax,ay,az,gx,gy,gz,label
456299,608,-8301,-34,-1,0,0,0
456304,602,-8300,-36,-1,0,0,0
456309,598,-8298,-39,-1,-1,0,0
456314,592,-8294,-40,-1,-1,0,0
456319,579,-8294,-39,-1,-1,0,0
456324,568,-8295,-33,-1,-1,0,0
456329,556,-8293,-24,-1,-1,0,0
456334,547,-8294,-14,-1,-1,0,0
456339,534,-8296,-12,-1,-1,0,0
456344,521,-8297,-15,-1,-1,0,0
456349,515,-8299,-19,-1,-1,0,0
456354,516,-8296,-19,-1,0,0,0
456359,521,-8297,-26,-1,0,0,0
456364,524,-8299,-32,-1,0,0,0
456369,525,-8301,-39,-1,-1,0,0
456374,522,-8301,-41,-1,0,0,0
456379,521,-8299,-41,-1,0,0,0
456384,519,-8297,-46,-1,0,0,0
456389,512,-8299,-50,-1,0,0,0
456394,507,-8301,-47,-1,0,0,0
456399,506,-8303,-42,-1,-1,0,0
456404,507,-8304,-37,-1,-1,0,0
456409,513,-8304,-32,-1,-1,0,0
456414,519,-8304,-33,-1,-1,0,0
456419,522,-8301,-32,-1,-1,0,0
456424,522,-8299,-30,-1,-1,0,0
456429,524,-8298,-28,-1,-1,0,0
456434,527,-8298,-28,-1,-1,0,0
456439,526,-8298,-35,-1,-1,0,0
456444,525,-8300,-40,0,-1,0,0
456449,531,-8301,-43,0,-1,0,0
456454,533,-8302,-47,0,-1,0,0
456459,535,-8304,-54,0,-1,0,0
456464,538,-8303,-57,0,-1,0,0
456469,542,-8302,-65,0,-1,0,0
456474,547,-8300,-73,0,-1,0,0
456479,552,-8304,-80,0,-1,0,0
456484,557,-8302,-89,0,-1,0,0
456489,562,-8302,-90,0,-1,0,0
456494,566,-8303,-87,0,-1,0,0
456499,570,-8304,-84,0,-1,0,0
456504,570,-8304,-82,0,-2,0,0
456509,567,-8303,-74,0,-2,0,0
456514,564,-8304,-64,0,-2,0,0
456519,562,-8304,-53,0,-2,0,0
456524,555,-8304,-43,0,-2,0,0
456529,550,-8304,-41,0,-2,0,0
456534,539,-8304,-37,0,-2,0,0
456539,531,-8301,-30,0,-2,0,0
456544,527,-8300,-31,0,-2,0,0
456549,524,-8300,-31,0,-2,0,0
456554,521,-8299,-30,0,-2,0,0
456559,521,-8300,-23,0,-2,0,0
456564,525,-8298,-13,0,-2,0,0
456569,526,-8301,-5,0,-2,0,0
456574,528,-8305,5,0,-2,0,0
456579,531,-8306,10,0,-3,0,0
456584,529,-8304,19,0,-3,0,0
456589,526,-8304,25,0,-3,0,0
456594,523,-8304,35,0,-3,0,0
456599,523,-8305,39,0,-3,0,0
456604,528,-8307,43,0,-3,0,0
456609,530,-8308,54,0,-3,0,0
456614,527,-8309,56,0,-4,0,0
456619,521,-8310,54,0,-3,0,0
456624,517,-8308,51,0,-3,0,0
456629,511,-8306,58,0,-2,0,0
456634,505,-8308,68,0,-2,0,0
456639,500,-8307,79,0,-2,0,0
456645,502,-8307,92,0,-2,0,0
456650,503,-8305,109,0,-2,0,0
456654,505,-8305,122,0,-1,0,0
456659,507,-8302,137,0,-1,-1,0
456665,507,-8300,152,0,-2,-1,0
456670,505,-8301,159,0,-2,0,0
456675,502,-8300,167,0,-2,-1,0
456679,500,-8299,166,0,-2,0,0
456685,499,-8301,164,0,-2,-1,0
456689,500,-8303,164,0,-2,-1,0
456695,501,-8304,161,0,-3,0,0
456700,503,-8306,163,0,-3,0,0
456704,506,-8304,165,0,-3,-1,0
456710,510,-8304,168,0,-3,-1,0
456714,514,-8311,174,0,-3,-1,0
456719,514,-8314,176,-1,-4,0,0
456725,510,-8315,175,-1,-4,-1,0
456729,506,-8316,171,-1,-3,-1,0
456734,505,-8317,169,-1,-3,-1,0
456740,508,-8313,169,-1,-2,-1,0
456744,514,-8312,168,-1,-2,-1,0
456750,517,-8312,171,-1,-2,-1,0
456754,517,-8312,168,-1,-2,-1,0
456760,516,-8310,168,-1,-1,-1,0
456765,519,-8309,170,-1,-1,-1,0
456769,521,-8306,176,-1,-1,-1,0
456775,515,-8306,175,-1,-2,-1,0
456780,513,-8307,179,-1,-1,-1,0
456784,507,-8306,182,-1,-1,-1,0
456790,501,-8307,182,-1,-1,-1,0
456795,495,-8306,180,-1,-1,-1,0
456799,491,-8302,181,-1,-1,-1,0
456805,488,-8300,190,-1,0,-1,0
456810,493,-8302,190,-1,0,-1,0
456815,498,-8301,190,-1,0,-1,0
456820,497,-8301,190,-1,-1,-1,0
456825,499,-8300,191,-1,0,-1,0
456830,505,-8298,192,-1,0,-1,0
456835,509,-8297,188,-1,0,-1,0
456840,511,-8298,180,-2,0,-1,0
456845,513,-8299,172,-2,0,-1,0
456850,515,-8302,159,-2,0,-1,0
456855,514,-8303,145,-2,0,-1,0
456860,516,-8306,130,-2,1,-1,0
456865,518,-8308,119,-2,1,-1,0
456870,516,-8307,109,-2,1,-1,0
456875,519,-8306,102,-2,0,-1,0
456880,522,-8306,88,-2,0,-1,0
456885,522,-8305,80,-2,0,-1,0
456890,524,-8304,71,-2,0,-1,0
456895,527,-8303,58,-2,0,-1,0
456900,532,-8303,47,-2,0,-1,0
456905,535,-8302,34,-2,0,-1,0
456910,533,-8300,16,-2,0,-1,0
456915,534,-8301,2,-1,0,-1,0
456920,542,-8302,-2,-1,1,-1,0
456925,549,-8302,-15,-1,1,-1,0
456930,558,-8301,-31,-1,0,-1,0
456935,568,-8303,-47,-1,0,-1,0
456940,577,-8300,-60,-1,0,-1,0
456945,588,-8302,-77,-1,0,-1,0
456950,600,-8302,-89,-1,-1,-1,0
456955,612,-8305,-94,-1,-1,-1,0
456960,620,-8304,-91,-1,-2,-1,0
456965,621,-8304,-95,-1,-2,-1,0
456970,615,-8304,-95,-1,-2,-1,0
456975,607,-8304,-103,-1,-2,-1,0
456980,593,-8304,-113,-1,-1,-1,0
456985,577,-8304,-120,-1,-1,-1,0
456990,563,-8302,-128,-1,0,-1,0
456995,552,-8300,-136,-1,0,-1,0
457000,550,-8303,-147,-1,0,-1,0
457005,558,-8303,-160,-1,0,-1,0
457010,568,-8302,-173,-1,1,-1,0
457015,587,-8301,-186,-1,1,-1,0
457020,608,-8300,-203,-1,0,-1,0
457025,627,-8298,-213,0,0,-1,0
457030,639,-8296,-223,0,-1,-1,0
457035,645,-8296,-230,0,-1,0,0
457040,645,-8295,-232,0,-1,0,0
457045,641,-8296,-230,0,-1,0,0
457050,638,-8294,-220,0,-2,0,0
457055,631,-8294,-209,0,-2,0,0
457060,622,-8295,-195,0,-2,-1,0
457065,617,-8294,-176,0,-2,0,0
457070,605,-8293,-154,0,-2,0,0
457075,591,-8295,-145,0,-2,0,0
457080,573,-8294,-141,0,-1,-1,0
457085,552,-8298,-137,0,-1,-1,0
457090,530,-8300,-138,0,0,-1,0
457095,506,-8303,-137,0,0,-1,0
457100,483,-8304,-135,0,0,-1,0
457105,459,-8305,-128,0,0,-1,0
457110,440,-8307,-124,0,-1,-1,0
457115,420,-8308,-121,0,-1,-1,0
457120,405,-8310,-118,0,0,-1,0
457125,391,-8310,-116,0,-1,-1,0
457130,374,-8311,-109,0,-1,-1,0
457135,359,-8313,-106,0,-2,-1,0
457140,342,-8315,-96,0,-2,-1,0
457145,328,-8317,-86,0,-2,-1,0
457150,313,-8317,-72,0,-2,-1,0
457155,301,-8316,-50,1,-2,-1,0
457160,293,-8315,-28,1,-2,-1,0
457165,287,-8314,-2,0,-2,-1,0
457170,278,-8314,31,0,-3,-2,0
457175,266,-8312,62,0,-3,-2,0
457180,254,-8309,88,0,-3,-2,0
457185,245,-8307,113,0,-3,-2,0
457190,241,-8305,134,0,-4,-2,0
457195,242,-8305,150,0,-4,-2,0
457200,255,-8309,162,0,-3,-2,0
457205,274,-8311,170,0,-3,-2,0
457210,298,-8312,166,0,-2,-2,0
457215,327,-8313,160,0,-1,-2,0
457220,357,-8314,153,0,0,-2,0
457225,384,-8315,148,0,0,-2,0
457230,407,-8315,145,0,0,-2,0
457235,429,-8314,145,0,1,-2,0
457240,449,-8315,145,0,1,-2,0
457245,473,-8314,143,0,2,-2,0
457250,502,-8312,149,0,2,-2,0
457255,531,-8311,151,0,2,-2,0
457260,562,-8310,155,0,2,-2,0
457265,587,-8310,157,0,3,-2,0
457270,613,-8310,154,0,4,-2,0
457275,639,-8309,141,0,5,-2,0
457280,669,-8311,123,0,6,-2,0
457285,700,-8311,102,0,6,-2,0
457290,726,-8311,80,0,7,-2,0
457295,755,-8309,57,0,7,-2,0
457300,783,-8309,45,0,7,-2,0
457305,807,-8307,44,0,6,-2,0
457310,828,-8304,44,0,6,-2,0
457315,846,-8301,46,0,5,-2,0
457320,862,-8301,49,0,5,-1,0
457325,873,-8305,46,0,4,-1,0
457330,875,-8305,47,0,3,-1,0
457335,879,-8305,48,0,2,-1,0
457340,884,-8306,54,0,-1,-1,0
457345,888,-8305,56,0,-3,-1,0
457350,892,-8304,57,0,-6,-1,0
457355,886,-8303,70,0,-8,-1,0
457360,876,-8299,80,0,-9,-1,0
457365,858,-8297,85,0,-9,-1,0
457370,831,-8296,91,0,-7,-1,0
457375,803,-8295,101,0,-3,-1,0
457380,777,-8298,112,-1,1,-1,0
457385,754,-8298,129,-1,5,-1,0
457390,737,-8301,145,-1,7,-1,0
457395,726,-8302,158,-1,8,-1,0
457400,717,-8302,155,-1,9,-1,0
457405,715,-8303,153,-1,8,-1,0
457410,712,-8302,153,-1,7,-1,0
457415,707,-8301,151,-1,7,-1,0
457420,698,-8302,146,-1,6,-1,0
457425,690,-8305,140,-1,7,-1,0
457430,681,-8304,134,-1,8,-1,0
457435,677,-8304,122,-1,9,0,0
457440,676,-8305,111,-1,10,-1,0
457445,678,-8306,101,-1,11,-1,0
457450,682,-8306,94,-1,10,-1,0
457455,683,-8306,83,-1,9,0,0
457460,681,-8309,66,-1,11,0,0
457465,677,-8310,52,-1,13,0,0
457470,669,-8311,36,-1,13,0,0
457475,666,-8313,23,-1,12,-1,0
457480,660,-8312,18,-1,10,-1,0
457485,648,-8312,20,-1,9,-1,0
457490,634,-8309,24,-1,7,-1,0
457495,623,-8307,34,-1,5,0,0
457500,623,-8307,43,-1,3,-1,0
457505,634,-8308,54,-1,-1,-1,0
457510,645,-8306,70,-1,-7,-1,0
457515,653,-8308,81,-1,-14,-1,0
457520,661,-8311,105,-1,-21,-1,0
457525,663,-8308,134,-1,-29,-1,0
457530,659,-8309,180,-1,-36,-1,0
457535,647,-8308,227,-1,-42,-1,0
457540,625,-8306,263,-1,-46,-1,0
457545,590,-8300,299,-1,-47,-1,0
457550,542,-8301,320,-1,-46,-1,0
457555,477,-8300,331,-1,-42,-1,0
457560,412,-8300,324,-1,-35,-1,0
457565,358,-8301,302,-1,-27,-1,0
457570,324,-8301,261,-1,-22,-1,0
457575,312,-8303,216,-1,-20,-2,0
457580,316,-8304,190,-1,-21,-2,0
457585,341,-8307,172,-1,-24,-2,0
457590,388,-8308,171,-2,-27,-2,0
457595,451,-8306,174,-2,-29,-2,0
457600,516,-8309,185,-2,-31,-2,0
457605,565,-8310,189,-1,-31,-2,0
457610,598,-8310,184,-1,-29,-2,0
457615,614,-8310,172,-1,-27,-2,0
457620,603,-8310,152,-1,-24,-2,0
457625,577,-8313,134,-2,-21,-2,0
457630,535,-8318,125,-2,-18,-2,0
457635,483,-8317,135,-2,-13,-2,0
457640,425,-8316,164,-2,-7,-2,0
457645,377,-8316,195,-2,-1,-2,0
457650,340,-8315,227,-2,5,-2,0
457655,314,-8315,251,-2,9,-2,0
457660,306,-8315,260,-3,11,-2,0
457665,306,-8312,249,-3,12,-2,0
457670,319,-8311,235,-3,12,-2,0
457675,343,-8310,203,-3,13,-2,0
457680,369,-8311,168,-3,13,-2,0
457685,400,-8309,131,-3,13,-2,0
457690,427,-8308,87,-3,13,-3,0
457695,450,-8304,44,-3,13,-3,0
457700,474,-8301,3,-3,13,-3,0
457705,497,-8299,-33,-3,14,-2,0
457710,518,-8303,-63,-3,15,-2,0
457715,537,-8303,-80,-3,17,-2,0
457720,553,-8302,-86,-3,19,-3,0
457725,567,-8303,-81,-3,21,-3,0
457730,574,-8303,-74,-3,22,-3,0
457735,577,-8301,-71,-3,23,-3,0
457740,577,-8300,-78,-3,24,-3,0
457745,580,-8298,-84,-3,26,-3,0
457750,585,-8299,-94,-2,28,-2,0
457755,598,-8297,-110,-2,28,-3,0
457760,613,-8295,-134,-2,27,-3,0
457765,635,-8294,-176,-2,27,-3,0
457770,677,-8294,-235,-2,25,-3,0
457775,733,-8291,-310,-2,19,-3,0
457780,785,-8289,-387,-1,12,-2,0
457785,825,-8291,-466,-1,6,-2,0
457790,855,-8294,-528,-1,3,-2,0
457795,864,-8298,-562,-1,3,-3,0
457800,864,-8300,-573,-1,4,-3,0
457805,852,-8299,-561,-1,4,-3,0
457810,823,-8297,-523,-1,4,-3,0
457815,789,-8295,-470,-1,3,-3,0
457820,763,-8297,-413,0,4,-2,0
457825,752,-8298,-371,0,4,-2,0
457830,745,-8297,-333,0,7,-2,0
457835,787,-8302,-319,0,8,-2,0
457840,847,-8304,-261,0,4,-2,0
457845,859,-8307,-240,0,0,-2,0
457850,873,-8310,-205,0,-3,-2,0
457855,898,-8306,-145,0,-5,-2,0
457860,893,-8306,-123,0,-7,-2,0
457865,908,-8302,-98,0,-9,-2,0
457870,944,-8298,-89,0,-13,-2,0
457875,980,-8297,-94,0,-17,-2,0
457880,1003,-8297,-97,0,-21,-2,0
457885,1043,-8296,-88,0,-25,-2,0
457890,1065,-8296,-85,0,-28,-2,0
457895,1052,-8295,-79,0,-31,-2,0
457900,1050,-8295,-75,1,-32,-2,0
457905,1033,-8294,-80,1,-34,-2,0
457910,1003,-8292,-91,1,-34,-1,0
457915,982,-8292,-98,1,-34,-1,0
457920,949,-8292,-102,1,-32,-1,0
457925,912,-8290,-102,0,-27,-1,0
457930,879,-8292,-97,0,-21,-1,0
457935,836,-8292,-84,0,-15,-1,0
457940,793,-8292,-62,0,-10,-1,0
457945,753,-8294,-33,0,-6,-1,0
457950,718,-8297,-1,0,-3,-1,0
457955,687,-8298,33,0,-1,-1,0
457960,666,-8296,80,0,-1,-1,0
457965,656,-8293,125,0,-1,-1,0
457970,648,-8292,170,0,-2,-1,0
457975,653,-8290,206,0,-3,-2,0
457980,657,-8290,231,0,-4,-2,0
457985,657,-8290,234,0,-4,-2,0
457990,669,-8295,232,0,-4,-2,0
457995,686,-8296,216,-1,-2,-1,0
458000,713,-8296,188,-1,0,-1,0
458005,763,-8295,163,-1,1,-1,0
458010,820,-8294,141,-1,2,-1,0
458015,882,-8295,115,-1,2,-1,0
458020,953,-8293,88,-1,3,-1,0
458025,1023,-8290,59,-1,2,-1,0
458030,1076,-8291,24,-1,1,-1,0
458035,1120,-8290,-8,-1,0,-1,0
458040,1146,-8289,-45,-1,-2,-1,0
458045,1152,-8290,-77,-1,-3,0,0
458050,1144,-8289,-103,-1,-3,0,0
458055,1130,-8286,-126,-1,-3,0,0
458060,1117,-8288,-141,0,-2,0,0
458065,1110,-8290,-159,0,-1,0,0
458070,1110,-8289,-172,0,-1,0,0
458075,1109,-8289,-176,0,0,0,0
458080,1104,-8290,-180,0,-1,1,0
458085,1093,-8291,-180,0,-1,0,0
458090,1074,-8293,-169,0,-1,0,0
458095,1056,-8291,-152,0,-1,1,0
458100,1023,-8292,-122,0,-2,1,0
458105,967,-8295,-87,0,-3,1,0
458110,892,-8297,-47,0,-4,0,0
458115,816,-8298,-9,0,-5,0,0
458120,750,-8298,29,0,-6,0,0
458125,709,-8298,62,0,-8,0,0
458130,689,-8298,86,0,-12,0,0
458135,687,-8298,103,0,-16,1,0
458140,700,-8297,121,0,-19,0,0
458145,713,-8295,133,0,-22,0,0
458150,717,-8297,146,0,-24,0,0
458155,704,-8297,156,0,-26,-1,0
458160,670,-8298,166,0,-29,-1,0
458165,633,-8298,164,0,-32,-1,0
458170,610,-8299,159,0,-35,0,0
458175,614,-8302,136,0,-38,0,0
458180,641,-8302,96,0,-41,0,0
458185,688,-8305,40,0,-41,0,0
458190,738,-8306,-27,0,-40,0,0
458195,784,-8306,-88,0,-38,0,0
458200,824,-8303,-144,0,-36,-1,0
458205,848,-8299,-190,0,-35,0,0
458210,859,-8299,-222,0,-34,0,0
458215,870,-8299,-242,0,-33,0,0
458220,879,-8300,-253,0,-31,0,0
458225,888,-8299,-254,0,-28,0,0
458230,889,-8300,-255,0,-25,0,0
458235,882,-8302,-253,0,-21,0,0
458240,864,-8303,-250,0,-19,0,0
458245,839,-8303,-236,0,-18,0,0
458250,814,-8303,-219,0,-17,0,0
458255,789,-8304,-193,0,-17,1,0
458260,775,-8304,-167,0,-15,1,0
458265,754,-8303,-134,0,-13,1,0
458270,716,-8304,-119,0,-11,0,0
458275,674,-8303,-102,0,-11,0,0
458280,616,-8306,-84,0,-12,0,0
458285,562,-8307,-65,0,-16,0,0
458290,520,-8309,-42,0,-19,0,0
458295,495,-8308,-14,0,-22,0,0
458300,500,-8306,10,0,-23,0,0
458305,514,-8307,24,0,-22,0,0
458310,532,-8306,24,0,-20,0,0
458315,542,-8302,8,0,-17,-1,0
458320,542,-8300,-20,0,-16,-1,0
458325,545,-8300,-50,0,-16,-1,0
458330,547,-8301,-72,0,-17,0,0
458335,555,-8301,-85,0,-17,0,0
458340,567,-8299,-86,0,-14,0,0
458345,589,-8296,-87,0,-10,0,0
458350,620,-8296,-83,0,-4,0,0
458355,656,-8299,-89,0,1,0,0
458360,712,-8301,-96,0,4,0,0
458365,767,-8300,-91,0,4,0,0
458370,822,-8300,-91,0,2,0,0
458375,878,-8299,-85,0,1,0,0
458381,933,-8296,-80,0,1,0,0
458385,983,-8293,-84,0,1,0,0
458391,1020,-8292,-80,0,0,0,0
458395,1033,-8294,-81,0,-2,0,0
458401,1018,-8297,-71,0,-4,0,0
458405,977,-8298,-47,0,-5,0,0
458410,914,-8297,-17,0,-4,1,0
458415,833,-8295,25,0,-4,0,0
458421,745,-8296,64,0,-3,0,0
458425,669,-8298,92,0,-2,0,0
458430,614,-8300,110,0,-3,0,0
458435,591,-8300,106,0,-5,1,0
458440,599,-8305,81,0,-6,1,0
458446,623,-8303,48,0,-6,1,0
458450,652,-8302,14,0,-4,1,0
458455,680,-8301,-23,0,0,0,0
458461,695,-8298,-48,0,2,0,0
458465,683,-8297,-68,0,4,0,0
458471,658,-8299,-88,0,3,0,0
458475,633,-8300,-108,0,2,0,0
458481,605,-8300,-128,0,0,0,0
458486,594,-8301,-145,0,-1,1,0
458491,595,-8303,-166,0,1,0,0
458495,604,-8305,-186,0,3,0,0
458501,627,-8306,-200,0,6,0,0
458505,659,-8305,-219,1,8,0,0
458511,687,-8303,-233,1,10,0,0
458516,703,-8301,-239,1,13,0,0
458521,721,-8301,-242,1,16,1,0
458525,736,-8300,-245,1,20,0,0
458531,735,-8300,-253,1,22,0,0
458535,711,-8300,-276,1,20,0,0
458541,658,-8299,-310,1,14,-1,0
458546,605,-8299,-341,2,6,-1,0
458551,545,-8298,-366,2,-2,0,0
458555,486,-8300,-389,2,-7,0,0
458561,453,-8301,-389,1,-7,1,0
458566,439,-8301,-378,1,0,0,0
458571,447,-8305,-348,2,10,0,0
458575,461,-8305,-311,2,20,0,0
458581,469,-8307,-279,2,30,-1,0
458586,481,-8309,-245,2,36,-1,0
458591,488,-8310,-219,2,40,0,0
458596,503,-8309,-201,2,40,0,0
458601,522,-8308,-179,2,40,0,0
458606,547,-8306,-160,2,39,0,0
458611,573,-8306,-145,2,37,0,0
458616,595,-8305,-132,2,35,0,0
458621,621,-8303,-121,2,30,0,0
458626,647,-8297,-99,2,23,0,0
458631,674,-8297,-75,2,13,0,0
458636,706,-8295,-53,2,3,0,0
458641,733,-8294,-31,2,-8,0,0
458646,758,-8294,-22,3,-17,0,0
458651,779,-8297,-28,3,-25,0,0
458656,791,-8296,-32,3,-33,-1,0
458661,800,-8299,-47,3,-40,-1,0
458666,794,-8302,-61,3,-46,-1,0
458671,787,-8302,-61,3,-51,-1,0
458676,784,-8303,-47,3,-55,0,0
458681,774,-8302,-27,3,-57,-1,0
458686,764,-8301,-11,3,-57,-1,0
458691,745,-8304,-5,3,-56,-1,0
458696,725,-8306,-12,4,-55,-1,0
458701,692,-8307,-21,4,-55,-1,0
458706,657,-8305,-21,3,-54,-1,0
458711,635,-8306,-10,3,-53,-1,0
458716,620,-8304,23,3,-47,0,0
458721,618,-8302,67,3,-39,0,0
458726,620,-8301,108,3,-28,0,0
458731,621,-8304,150,3,-15,-1,0
458736,633,-8304,182,3,-2,-1,0
458741,648,-8304,206,3,8,-1,0
458746,663,-8305,230,2,13,-1,0
458751,669,-8308,249,2,16,0,0
458756,663,-8308,269,2,17,0,0
458761,652,-8307,292,2,19,0,0
458766,629,-8306,311,2,21,-1,0
458771,597,-8306,316,2,24,-1,0
458776,560,-8307,311,2,26,-1,0
458781,532,-8308,295,2,28,-1,0
458786,522,-8305,281,2,29,0,0
458791,532,-8305,271,1,30,0,0
458796,572,-8305,270,1,31,0,0
458801,622,-8301,280,1,33,0,0
458806,680,-8299,300,1,36,0,0
458811,737,-8297,315,1,40,0,0
458816,778,-8296,324,1,42,0,0
458821,813,-8295,332,1,43,0,0
458826,832,-8295,328,1,43,0,0
458831,843,-8295,329,1,41,0,0
458836,849,-8293,334,1,37,0,0
458841,851,-8298,335,1,33,0,0
458846,853,-8297,334,1,29,0,0
458851,854,-8294,335,1,25,0,0
458856,851,-8294,333,1,21,0,0
458861,845,-8295,327,1,17,0,0
458866,837,-8294,310,1,12,0,0
458871,823,-8293,293,1,8,0,0
458876,797,-8296,269,1,3,0,0
458881,743,-8299,235,1,0,0,0
458886,634,-8305,215,1,-1,0,0
458891,434,-8310,228,1,1,-1,0
458896,195,-8313,255,1,5,-2,0
458901,-10,-8316,319,0,8,-3,0
458906,-97,-8311,369,1,6,-2,0
458911,-94,-8308,295,1,-6,-1,0
458916,-112,-8313,318,2,-16,0,0
458921,-34,-8314,294,2,-14,0,0
458926,166,-8311,185,1,-8,0,0
458931,418,-8307,176,1,-3,-1,0
458936,663,-8302,125,1,-3,-1,0
458941,846,-8300,103,1,-5,-2,0
458946,948,-8304,158,1,-5,-2,0
458951,984,-8303,191,1,-3,-2,0
458956,980,-8302,267,0,-4,-2,0
458961,936,-8300,357,0,-5,-2,0
458966,871,-8299,425,0,-7,-1,0
458971,814,-8299,504,1,-9,-1,0
458976,773,-8297,548,1,-10,0,0
458981,759,-8299,570,1,-11,0,0
458986,772,-8297,589,0,-10,0,0
458991,806,-8295,581,0,-10,-1,0
458996,835,-8295,584,0,-9,-1,0
459001,855,-8296,591,0,-8,-1,0
459006,862,-8295,577,0,-6,-1,0
459011,848,-8294,559,0,-3,-1,0
459016,842,-8295,533,0,-1,-1,0
459021,844,-8299,509,0,0,-1,0
459026,836,-8300,508,-1,-2,-1,0
459031,829,-8301,497,-1,-3,0,0
459036,822,-8301,496,-1,-3,0,0
459041,815,-8301,506,-1,-4,0,0
459046,811,-8298,509,-1,-3,0,0
459051,804,-8301,509,-1,-3,0,0
459056,803,-8302,509,-1,-5,0,0
459061,807,-8307,511,-1,-9,0,0
459066,807,-8307,519,-1,-14,0,0
459071,802,-8305,534,-1,-20,0,0
459076,790,-8300,553,-1,-24,0,0
459081,775,-8297,575,-1,-27,0,0
459086,760,-8295,583,-1,-28,0,0
459091,748,-8297,572,-1,-29,0,0
459096,736,-8299,539,-1,-29,0,0
459101,715,-8303,494,-1,-29,0,0
459106,692,-8305,446,-2,-28,0,0
459111,670,-8306,394,-2,-27,0,0
459116,641,-8308,346,-2,-25,0,0
459121,613,-8307,309,-2,-21,0,0
459126,593,-8303,286,-2,-17,0,0
459131,580,-8301,264,-2,-12,0,0
459136,579,-8300,233,-2,-7,0,0
459141,584,-8298,198,-2,-3,-1,0
459146,593,-8298,168,-2,-1,-1,0
459151,607,-8300,139,-2,-1,-1,0
459156,617,-8301,105,-2,-1,-1,0
459161,621,-8302,81,-2,-1,0,0
459166,627,-8300,60,-2,-1,-1,0
459171,632,-8293,47,-2,0,-1,0
459176,616,-8291,-23,-1,1,-1,0
459181,592,-8295,-108,0,2,-1,0
459186,577,-8302,-157,0,0,-1,0
459191,550,-8305,-226,-1,-2,-1,0
459196,519,-8304,-254,-1,-1,0,0
459201,515,-8301,-239,-1,3,0,0
459206,531,-8299,-200,-1,8,0,0
459211,530,-8299,-139,-1,17,-1,0
459216,523,-8297,-99,-1,27,-1,0
459221,510,-8299,-81,0,37,-1,0
459226,487,-8304,-77,0,44,-1,0
459231,454,-8305,-82,-1,48,-1,0
459236,431,-8306,-87,-1,50,-1,0
459241,425,-8306,-87,-1,51,-1,0
459246,437,-8308,-71,-1,51,-1,0
459251,491,-8307,-34,-1,50,-1,0
459256,576,-8305,1,-1,48,-1,0
459261,660,-8303,37,-1,44,-1,0
459266,746,-8300,64,0,39,-1,0
459271,815,-8300,84,0,34,-1,0
459276,867,-8303,105,0,28,-1,0
459281,905,-8301,116,0,21,-1,0
459286,923,-8301,133,0,14,-1,0
459291,926,-8299,158,0,6,-1,0
459296,897,-8299,165,0,0,-1,0
459301,853,-8301,162,0,-2,-1,0
459306,840,-8304,163,0,-1,-1,0
459311,856,-8302,165,0,0,0,0
459316,878,-8302,171,0,-1,0,0
459321,909,-8302,192,0,0,0,0
459326,957,-8300,219,0,0,0,0
459331,1003,-8297,257,0,0,0,0
459336,1033,-8296,290,0,-1,0,0
459341,1063,-8295,316,0,0,0,0
459346,1091,-8293,343,0,0,0,0
459351,1117,-8293,367,0,-1,0,0
459356,1145,-8294,387,-1,0,1,0
459361,1180,-8295,400,-1,0,1,0
459366,1212,-8296,415,-1,0,1,0
459371,1228,-8297,423,-1,-1,1,0
459376,1239,-8295,414,-1,-1,1,0
459381,1232,-8292,392,-1,-1,1,0
459386,1217,-8291,343,0,-1,1,0
459391,1193,-8290,276,0,-1,2,0
459396,1167,-8290,189,0,-1,2,0
459401,1130,-8287,85,0,-1,2,0
459406,1077,-8291,-31,0,0,2,0
459411,972,-8300,-112,0,2,2,0
459416,849,-8307,-177,0,4,1,0
459421,694,-8311,-219,0,9,1,0
459426,519,-8314,-212,-1,17,1,0
459431,347,-8314,-190,-1,27,1,0
459436,192,-8313,-139,0,40,1,0
459441,75,-8310,-84,0,54,1,0
459446,-3,-8309,-37,0,67,1,0
459451,-33,-8312,18,0,77,1,0
459456,-25,-8312,78,-1,85,0,0
459461,21,-8312,154,-1,88,0,0
459466,98,-8310,251,-1,86,0,0
459471,190,-8306,355,-1,80,0,0
459476,293,-8304,460,-1,71,0,0
459481,398,-8302,558,-1,60,0,0
459486,497,-8300,629,-1,47,0,0
459491,581,-8296,671,-1,32,0,0
459496,645,-8295,674,-1,17,0,0
459501,678,-8293,638,-1,2,0,0
459506,665,-8294,565,-1,-8,0,0
459511,635,-8299,472,-1,-11,0,0
459516,610,-8301,376,-1,-10,0,0
459521,601,-8303,275,-1,-7,0,0
459526,616,-8306,186,-1,-4,0,0
459531,650,-8304,114,-1,-1,0,0
459536,696,-8305,56,-1,1,0,0
459541,748,-8304,27,-1,2,0,0
459546,800,-8303,9,0,2,0,0
459551,841,-8301,-1,0,1,0,0
459556,853,-8298,-4,0,1,0,0
459561,842,-8297,-4,0,1,0,0
459566,805,-8298,-2,0,3,0,0
459571,745,-8300,11,0,5,0,0
459576,675,-8300,29,0,8,0,0
459581,607,-8301,48,0,12,0,0
459586,552,-8303,80,0,15,0,0
459591,519,-8302,117,0,19,0,0
459596,504,-8302,169,0,22,0,0
459601,510,-8306,222,-1,25,0,0
459606,536,-8305,278,-1,27,0,0
459611,573,-8302,331,-1,28,0,0
459616,609,-8298,375,-1,29,0,0
459621,642,-8295,409,-1,28,0,0
459626,671,-8296,426,-1,27,0,0
459631,685,-8297,433,-1,25,0,0
459636,693,-8300,416,-1,23,0,0
459641,698,-8303,384,-1,19,0,0
459646,699,-8305,342,-1,16,0,0
459651,699,-8304,299,-1,12,0,0
459656,702,-8305,262,-1,8,0,0
459661,702,-8303,228,-1,6,0,0
459666,703,-8302,206,-1,3,0,0
459671,704,-8301,197,-1,1,0,0
459676,697,-8299,190,-1,0,0,0
459681,682,-8298,188,-1,0,0,0
459686,664,-8299,189,-1,1,0,0
459691,645,-8298,189,-1,2,0,0
459696,621,-8298,194,-1,4,0,0
459701,595,-8300,200,-1,4,0,0
459706,565,-8303,200,-1,4,0,0
459711,539,-8305,191,-1,4,0,0
459716,521,-8308,175,-1,5,0,0
459721,513,-8307,156,-1,6,0,0
459726,528,-8305,136,-1,6,0,0
459731,559,-8304,113,-1,7,0,0
459736,598,-8302,86,0,8,0,0
459741,639,-8300,66,0,8,0,0
459746,684,-8300,47,0,8,0,0
459751,718,-8300,44,0,8,0,0
459756,738,-8299,46,0,6,0,0
459761,746,-8300,60,0,3,0,0
459766,730,-8298,95,0,0,0,0
459771,694,-8297,137,0,-4,0,0
459776,652,-8297,191,0,-8,0,0
459781,624,-8295,247,0,-14,0,0
459786,606,-8297,301,0,-23,0,0
459791,588,-8298,340,0,-32,0,0
459796,567,-8300,361,0,-41,0,0
459801,550,-8301,357,0,-45,0,0
459806,545,-8303,332,0,-47,0,0
459811,550,-8304,292,0,-45,0,0
459816,558,-8304,241,0,-42,0,0
459821,564,-8305,192,0,-37,-1,0
459826,563,-8306,154,0,-32,-1,0
459831,556,-8306,127,0,-26,-1,0
459836,544,-8307,114,0,-20,-1,0
459841,523,-8305,123,0,-15,-1,0
459846,500,-8306,140,0,-10,-1,0
459851,478,-8306,171,-1,-6,-1,0
459856,465,-8307,202,-1,-2,-1,0
459861,463,-8309,237,-1,0,-1,0
459866,474,-8314,269,-1,1,-1,0
459871,490,-8312,308,-1,2,-1,0
459876,508,-8310,344,-1,2,-1,0
459881,528,-8308,365,-1,2,-1,0
459886,553,-8307,375,-1,3,-1,0
459891,571,-8307,377,-1,4,-1,0
459896,584,-8304,363,-1,4,-1,0
459901,592,-8300,341,-1,4,-1,0
459906,588,-8299,320,-1,3,-1,0
459911,579,-8303,301,-1,2,-1,0
459916,564,-8302,283,-1,1,-1,0
459921,552,-8306,266,-1,0,-1,0
459926,551,-8309,258,-1,-1,-1,0
459931,562,-8308,250,-1,-1,-1,0
459936,578,-8307,242,-1,-1,-1,0
459941,598,-8305,233,-1,-2,-1,0
459946,619,-8308,220,-1,-2,-1,0
459951,643,-8307,188,-1,-2,-1,0
459956,655,-8309,152,-1,-2,-1,0
459961,663,-8306,118,-1,-3,-1,0
459966,662,-8305,82,-1,-4,-1,0
459971,655,-8303,48,-1,-5,-1,0
459976,643,-8304,17,-1,-6,-1,0
459981,631,-8302,-12,0,-7,-1,0
459986,625,-8303,-32,0,-8,-1,0
459991,624,-8308,-40,0,-9,-1,0
459996,631,-8307,-39,0,-10,-1,0
460001,644,-8307,-31,0,-10,-1,0
460006,659,-8307,-19,0,-11,-1,0
460011,669,-8307,-7,0,-12,-1,0
460016,671,-8303,6,0,-13,-1,0
460021,669,-8300,24,0,-13,-1,0
460026,659,-8300,34,0,-12,-1,0
460031,646,-8300,45,0,-11,-1,0
460036,632,-8302,45,0,-9,-1,0
460041,615,-8302,42,0,-8,-1,0
460046,599,-8304,41,0,-7,-1,0
460051,587,-8304,38,0,-5,-1,0
460056,583,-8300,38,0,-5,-1,0
460061,588,-8299,37,0,-4,-1,0
460066,600,-8300,40,0,-4,-1,0
460071,617,-8300,42,0,-4,-1,0
460076,639,-8300,40,0,-5,-1,0
460081,662,-8302,36,1,-5,-1,0
460086,682,-8303,32,1,-6,-1,0
460091,699,-8305,31,1,-6,-1,0
460096,714,-8305,32,1,-7,-1,0
460101,725,-8303,37,1,-7,-1,0
460106,734,-8300,53,1,-6,-1,0
460111,737,-8301,72,1,-6,-1,0
460116,741,-8301,104,1,-5,-1,0
460121,748,-8300,138,1,-4,-1,0
460126,751,-8303,177,1,-4,-1,0
460131,755,-8306,219,1,-5,-1,0
460136,757,-8307,250,1,-5,-1,0
460141,756,-8309,280,1,-7,-1,0
460146,754,-8309,301,0,-8,-1,0
460151,750,-8308,313,0,-9,-1,0
460156,744,-8304,324,0,-11,0,0
460161,741,-8302,331,0,-12,0,0
460166,742,-8302,334,0,-13,0,0
460171,747,-8297,338,0,-14,0,0
460177,761,-8300,339,0,-15,0,0
460182,776,-8301,340,0,-16,0,0
460186,792,-8303,339,0,-17,0,0
460191,801,-8302,337,0,-18,0,0
460196,806,-8302,331,0,-18,0,0
460201,804,-8301,325,0,-18,0,0
460206,800,-8300,320,0,-19,0,0
460211,795,-8299,310,0,-19,0,0
460217,790,-8299,305,0,-21,0,0
460222,785,-8297,303,0,-22,0,0
460226,779,-8295,300,0,-23,0,0
460231,772,-8295,296,0,-24,0,0
460237,770,-8296,282,0,-24,0,0
460241,777,-8298,261,0,-24,0,0
460247,791,-8299,232,0,-23,0,0
460252,807,-8299,205,0,-23,0,0
460257,826,-8298,181,0,-24,0,0
460262,844,-8298,153,0,-25,0,0
460266,856,-8297,133,0,-26,0,0
460271,862,-8299,119,1,-28,0,0
460277,859,-8297,111,1,-29,1,0
460281,856,-8297,108,1,-31,1,0
460286,845,-8299,111,1,-32,1,0
460292,827,-8301,117,1,-33,1,0
460296,811,-8300,129,1,-33,1,0
460302,798,-8298,153,1,-34,1,0
460307,786,-8299,183,1,-35,1,0
460312,776,-8298,220,1,-36,1,0
460316,757,-8296,260,1,-38,1,0
460322,734,-8293,294,1,-40,1,0
460327,710,-8292,317,1,-42,1,0
460332,692,-8296,328,1,-43,1,0
460336,670,-8297,327,1,-44,1,0
460342,649,-8299,314,1,-44,1,0
460346,632,-8298,300,1,-44,1,0
460351,618,-8298,286,1,-44,1,0
460357,607,-8304,278,1,-44,1,0
460362,601,-8306,284,0,-44,1,0
460367,596,-8303,297,0,-44,0,0
460372,592,-8303,307,0,-45,0,0
460377,592,-8304,315,1,-45,0,0
460381,589,-8302,316,1,-46,0,0
460387,580,-8303,310,1,-47,0,0
460392,569,-8303,294,1,-47,0,0
460397,553,-8303,280,0,-46,0,0
460402,532,-8302,267,0,-45,0,0
460407,512,-8304,262,0,-44,0,0
460412,497,-8305,262,0,-41,0,0
460417,489,-8306,268,0,-39,0,0
460422,492,-8307,281,0,-38,0,0
460427,507,-8306,301,0,-37,0,0
460432,524,-8307,323,0,-37,0,0
460437,546,-8308,342,0,-37,0,0
460442,560,-8306,356,0,-38,0,0
460447,566,-8304,371,0,-37,0,0
460452,565,-8304,385,0,-36,0,0
460457,560,-8302,391,0,-34,0,0
460462,552,-8303,388,0,-32,0,0
460467,546,-8303,384,0,-29,0,0
460472,550,-8303,379,0,-26,0,0
460477,559,-8307,369,0,-24,0,0
460482,585,-8307,356,0,-23,0,0
460487,615,-8307,351,0,-24,0,0
460492,640,-8306,343,0,-26,0,0
460497,659,-8302,340,0,-28,0,0
460502,668,-8302,341,0,-29,0,0
460507,676,-8303,343,0,-28,0,0
460512,685,-8308,343,0,-27,0,0
460517,699,-8309,341,0,-27,0,0
460522,710,-8308,332,0,-27,0,0
460527,721,-8307,316,0,-27,0,0
460532,726,-8308,305,0,-25,0,0
460537,728,-8309,290,-1,-23,0,0
460542,727,-8310,277,-1,-20,0,0
460547,723,-8310,267,-1,-16,0,0
460552,711,-8308,259,-1,-13,0,0
460557,693,-8306,256,-1,-10,0,0
460562,677,-8303,253,-1,-8,0,0
460567,663,-8301,246,-1,-7,1,0
460572,653,-8301,237,-1,-6,0,0
460577,649,-8299,228,-1,-7,1,0
460582,653,-8297,223,-1,-7,1,0
460587,665,-8298,213,-1,-7,1,0
460592,685,-8299,202,-1,-7,1,0
460597,704,-8300,190,-1,-7,1,0
460602,727,-8299,186,-1,-7,1,0
460607,742,-8299,187,-1,-7,1,0
460612,752,-8297,188,-1,-7,1,0
460617,748,-8295,189,-1,-6,1,0
460622,735,-8294,191,-1,-6,1,0
460627,711,-8292,192,0,-6,1,0
460632,687,-8294,198,0,-5,1,0
460637,658,-8295,197,0,-5,1,0
460642,636,-8295,191,0,-4,1,0
460647,618,-8294,186,0,-3,1,0
460652,609,-8295,183,0,-2,1,0
460657,607,-8296,182,0,-2,1,0
460662,602,-8298,186,-1,-2,1,0
460667,605,-8298,195,-1,-1,1,0
460672,609,-8299,193,0,0,1,0
460677,613,-8298,202,0,0,1,0
460682,613,-8300,207,0,0,1,0
460687,612,-8301,213,-1,0,1,0
460692,604,-8300,217,0,0,1,0
460697,599,-8300,213,0,1,1,0
460702,587,-8301,213,-1,1,1,0
460707,573,-8303,207,0,2,1,0
460712,560,-8303,202,-1,3,1,0
460717,542,-8302,202,-1,4,1,0
460722,521,-8304,197,-1,5,1,0
460727,497,-8302,194,-1,7,1,0
460732,470,-8300,188,-1,9,1,0
460737,444,-8302,180,-1,11,0,0
460742,417,-8301,175,-1,14,0,0
460747,395,-8299,169,-1,17,0,0
460752,381,-8295,159,-1,20,0,0
460757,372,-8294,153,-1,23,0,0
460762,365,-8297,142,-1,26,0,0
460767,366,-8298,127,0,28,0,0
460772,372,-8299,118,-1,29,0,0
460777,387,-8299,115,-1,30,0,0
460782,412,-8301,119,-1,28,0,0
460787,434,-8302,134,-1,26,0,0
460792,460,-8300,165,-1,22,0,0
460797,492,-8299,202,-1,17,0,0
460802,521,-8297,238,0,12,0,0
460807,537,-8298,270,0,7,0,0
460812,549,-8301,298,0,4,0,0
460817,564,-8301,321,0,1,0,0
460822,582,-8304,331,0,-1,0,0
460827,601,-8304,331,0,-4,0,0
460832,614,-8306,317,0,-6,0,0
460837,623,-8308,295,0,-8,0,0
460842,636,-8310,263,0,-8,0,0
460847,646,-8312,236,0,-8,0,0
460852,649,-8311,220,0,-9,0,0
460857,640,-8309,203,0,-9,0,0
460862,623,-8309,201,0,-7,0,0
460867,600,-8310,210,-1,-5,0,0
460872,581,-8309,226,-1,-2,0,0
460877,569,-8309,249,-1,0,0,0
460882,566,-8307,270,0,1,0,0
460887,563,-8307,284,0,1,0,0
460892,570,-8307,280,0,1,0,0
460897,574,-8305,266,0,1,0,0
460902,579,-8308,246,0,2,0,0
460907,581,-8312,222,0,3,0,0
460912,576,-8312,206,0,4,0,0
460917,568,-8312,188,0,5,0,0
460922,553,-8313,174,-1,7,0,0
460927,534,-8312,178,0,8,0,0
460932,524,-8312,184,0,8,0,0
460937,519,-8311,198,0,7,0,0
460942,513,-8310,227,-1,5,0,0
460947,505,-8307,261,-1,2,0,0
460952,491,-8306,299,-1,0,0,0
460957,476,-8305,342,-1,-2,0,0
460962,456,-8303,373,-1,-3,0,0
460967,438,-8302,395,-1,-3,0,0
460972,424,-8301,405,-1,-3,0,0
460977,417,-8301,405,-1,-3,0,0
460982,424,-8303,391,-1,-4,0,0
460987,437,-8306,373,-1,-5,0,0
460992,456,-8308,357,-1,-5,0,0
460997,490,-8309,351,-1,-6,0,0
461002,533,-8311,350,-1,-7,0,0
461007,576,-8312,361,-1,-11,0,0
461012,608,-8309,369,-1,-15,0,0
461017,619,-8306,364,-1,-18,0,0
461022,610,-8305,346,-1,-20,0,0
461027,587,-8304,312,-1,-20,0,0
461032,558,-8304,275,-1,-18,0,0
461037,515,-8309,241,-1,-17,0,0
461042,457,-8312,224,-1,-14,-1,0
461047,398,-8313,237,-1,-8,0,0
461052,362,-8310,281,-2,-1,0,0
461057,371,-8307,360,-2,5,0,0
461062,400,-8303,454,-2,7,0,0
461067,438,-8303,538,-2,7,0,0
461072,472,-8302,597,-2,6,0,0
461077,498,-8302,614,-2,7,0,0
461082,507,-8300,577,-1,10,0,0
461087,505,-8299,494,-1,17,0,0
461092,498,-8304,385,-1,25,-1,0
461097,490,-8308,253,-2,34,-1,0
461102,482,-8312,129,-2,41,-1,0
461107,476,-8313,21,-2,46,-1,0
461112,474,-8312,-58,-2,49,-1,0
461117,486,-8312,-106,-2,47,-1,0
461122,500,-8311,-125,-2,41,-1,0
461127,519,-8310,-115,-2,32,-1,0
461132,533,-8307,-91,-1,21,-1,0
461137,544,-8303,-56,-1,10,-1,0
461142,549,-8298,-24,-1,1,-1,0
461147,550,-8298,6,-1,-6,-1,0
461152,544,-8299,28,0,-9,-1,0
461157,549,-8299,47,0,-10,-1,0
461162,562,-8300,66,0,-11,-1,0
461167,579,-8301,90,0,-12,-1,0
461172,595,-8301,118,-1,-13,-1,0
461177,614,-8301,147,-1,-13,-1,0
461182,633,-8301,176,0,-13,-1,0
461187,660,-8301,189,0,-12,0,0
461192,693,-8300,183,0,-10,0,0
461197,727,-8300,165,0,-8,0,0
461202,760,-8299,124,0,-6,0,0
461207,789,-8300,79,0,-4,0,0
461212,811,-8300,41,0,-3,0,0
461217,815,-8298,13,0,-1,0,0
461222,805,-8295,6,0,1,0,0
461227,794,-8297,21,0,3,0,0
461232,791,-8298,56,0,4,0,0
461237,798,-8299,100,0,2,0,0
461242,808,-8298,143,0,0,0,0
461247,814,-8300,178,0,-3,1,0
461252,815,-8300,208,0,-5,1,0
461257,814,-8300,233,0,-6,1,0
461262,804,-8302,254,0,-6,1,0
461267,775,-8304,268,0,-6,0,0
461272,734,-8315,269,0,-5,0,0
461277,685,-8332,268,0,-3,0,0
461282,658,-8353,246,0,-2,0,0
461287,661,-8369,221,0,-1,0,0
461292,675,-8374,209,0,-3,0,0
461297,691,-8367,215,0,-5,0,0
461302,699,-8345,231,0,-8,0,0
461307,688,-8317,250,0,-10,0,0
461312,657,-8279,250,0,-13,0,0
461317,611,-8241,248,0,-14,0,0
461322,558,-8204,240,0,-13,0,0
461327,516,-8174,238,-1,-11,0,0
461332,489,-8152,234,-1,-8,0,0
461337,475,-8140,227,-1,-6,0,0
461342,493,-8460,229,-1,-4,0,0
461347,532,-8434,199,-1,-5,-1,0
461352,439,-8366,257,-1,-10,0,0
461357,384,-8341,231,-1,-7,0,0
461362,451,-8353,186,-1,-1,0,0
461367,443,-8352,221,-1,-1,0,0
461372,420,-8340,246,-1,-6,0,0
461377,408,-8335,269,-1,-7,0,0
461382,420,-8328,257,0,-8,0,0
461387,414,-8332,239,0,-8,0,0
461392,401,-8329,257,0,-9,0,0
461397,412,-8324,233,0,-9,0,0
461402,415,-8323,219,0,-8,0,0
461407,421,-8322,203,0,-8,0,0
461412,430,-8321,176,0,-7,0,0
461417,420,-8320,173,0,-7,0,0
461422,414,-8319,175,0,-7,0,0
461427,409,-8315,174,0,-6,0,0
461432,395,-8312,186,0,-5,0,0
461437,391,-8310,196,0,-5,0,0
461442,388,-8309,205,0,-3,0,0
461447,377,-8308,215,0,-2,0,0
461452,381,-8306,217,0,0,0,0
461457,387,-8306,224,0,2,0,0
461462,394,-8304,221,0,2,0,0
461467,415,-8302,217,0,2,0,0
461472,427,-8303,219,0,1,0,0
461477,432,-8305,210,0,-1,0,0
461482,450,-8313,209,0,-2,0,0
461487,462,-8325,205,0,-3,0,0
461492,459,-8340,202,0,-5,0,0
461497,457,-8365,202,0,-5,0,0
461502,452,-8393,206,0,-5,0,0
461507,449,-8425,198,-1,-4,0,0
461512,465,-8458,191,-1,-3,0,0
461517,484,-8487,198,-1,-3,0,0
461522,502,-8512,199,-1,-4,0,0
461527,523,-8528,198,-1,-5,0,0
461532,537,-8536,190,-1,-6,0,0
461537,547,-8539,169,-1,-7,0,0
461542,556,-8533,144,-1,-8,0,0
461547,558,-8516,116,-1,-8,0,0
461552,557,-8496,89,0,-7,0,0
461557,561,-8473,79,0,-6,0,0
461562,559,-8451,73,0,-5,0,0
461567,553,-8431,68,0,-5,0,0
461572,549,-8415,66,0,-3,1,0
461577,545,-8410,65,0,-1,1,0
461582,545,-8413,61,0,1,1,0
461587,557,-8421,60,0,2,1,0
461592,573,-8431,72,0,3,1,0
461597,594,-8437,92,0,2,1,0
461602,617,-8445,123,0,0,1,0
461607,627,-8444,145,0,-1,1,0
461612,631,-8449,158,0,-2,1,0
461617,630,-8449,164,0,-3,1,0
461622,618,-8442,166,0,-4,1,0
461627,601,-8430,160,0,-4,1,0
461632,594,-8415,158,0,-3,1,0
461637,589,-8393,156,0,-2,1,0
461642,594,-8364,155,0,-2,1,0
461647,597,-8330,161,0,-2,1,0
461652,588,-8295,165,0,-3,1,0
461657,575,-8260,164,0,-2,1,0
461662,562,-8225,163,0,-2,1,0
461667,552,-8197,165,0,-1,1,0
461672,544,-8175,170,0,-1,1,0
461677,537,-8159,186,0,-1,1,0
461682,530,-8150,200,0,-1,1,0
461687,525,-8145,213,0,-1,1,0
461692,518,-8147,216,0,-1,1,0
461697,506,-8157,213,0,-1,1,0
461702,496,-8170,206,0,0,1,0
461707,495,-8184,202,-1,0,0,0
461712,501,-8194,206,-1,0,0,0
461717,516,-8200,212,-1,-1,0,0
461722,530,-8201,225,-1,-2,0,0
461727,538,-8193,232,-1,-3,0,0
461732,542,-8179,240,-1,-4,0,0
461737,538,-8161,243,-1,-5,0,0
461742,523,-8139,246,-1,-5,0,0
461747,506,-8117,243,-1,-5,0,0
461752,491,-8096,236,-1,-4,0,0
461757,481,-8083,232,-1,-3,0,0
461762,476,-8076,229,-1,-2,0,0
461767,476,-8073,231,-1,-1,-1,0
461772,476,-8072,236,-1,-1,-1,0
461777,470,-8078,236,-1,-1,-1,0
461782,467,-8087,229,-1,0,-1,0
461787,472,-8098,225,-1,0,-1,0
461792,475,-8102,219,-1,-1,-1,0
461797,478,-8103,219,-1,-1,-1,0
461802,477,-8096,220,-1,-1,-1,0
461807,472,-8089,224,-1,-1,-2,0
461812,470,-8083,220,-1,0,-2,0
461817,464,-8082,210,-1,0,-2,0
461822,458,-8082,203,-1,0,-2,0
461827,458,-8087,198,-1,1,-2,0
461832,461,-8099,191,-1,1,-2,0
461837,471,-8118,194,-1,1,-2,0
461842,484,-8140,201,-1,0,-2,0
461847,494,-8165,212,-2,-2,-2,0
461852,499,-8190,223,-2,-2,-3,0
461857,501,-8212,234,-2,-2,-3,0
461862,500,-8227,235,-2,-2,-3,0
461867,499,-8239,231,-2,-2,-3,0
461872,505,-8251,222,-2,-2,-3,0
461877,513,-8265,211,-2,-1,-3,0
461882,527,-8275,195,-2,-1,-3,0
461887,540,-8284,181,-2,-1,-3,0
461892,548,-8293,176,-2,-1,-3,0
461897,552,-8305,170,-2,-1,-3,0
461902,554,-8319,164,-2,-1,-3,0
461907,559,-8335,160,-2,-2,-3,0
461912,570,-8348,165,-2,-2,-3,0
461917,574,-8364,182,-2,-2,-3,0
461922,576,-8375,194,-2,-2,-3,0
461927,573,-8389,207,-2,-2,-3,0
461933,577,-8402,205,-2,-1,-3,0
461937,578,-8417,199,-2,-1,-3,0
461942,585,-8433,192,-2,-1,-3,0
461948,599,-8442,192,-2,-2,-3,0
461952,614,-8449,199,-2,-2,-3,0
461957,629,-8447,210,-2,-3,-3,0
461962,633,-8442,218,-2,-4,-3,0
461967,624,-8429,223,-2,-5,-3,0
461972,608,-8415,223,-2,-5,-2,0
461977,589,-8397,213,-2,-4,-2,0
461982,571,-8380,204,-2,-4,-2,0
461988,561,-8366,191,-2,-3,-2,0
461992,557,-8350,183,-2,-2,-2,0
461997,558,-8342,176,-2,-2,-2,0
462002,561,-8337,168,-2,-3,-2,0
462008,558,-8333,169,-2,-3,-2,0
462013,550,-8327,166,-2,-4,-2,0
462017,542,-8316,167,-2,-4,-2,0
462022,535,-8300,166,-2,-4,-2,0
462027,531,-8280,168,-2,-4,-2,0
462032,530,-8254,172,-2,-4,-2,0
462038,529,-8230,179,-2,-4,-2,0
462043,530,-8211,182,-2,-4,-2,0
462047,527,-8200,178,-2,-4,-2,0
462053,519,-8195,172,-1,-4,-2,0
462058,510,-8190,161,-1,-4,-2,0
462063,506,-8185,145,-1,-4,-2,0
462067,505,-8180,133,-1,-4,-2,0
462072,505,-8178,129,-1,-3,-2,0
462077,509,-8177,130,-1,-2,-1,0
462083,515,-8179,140,-1,-2,-1,0
462088,522,-8181,163,-1,-2,-1,0
462093,522,-8181,191,-1,-3,-1,0
462098,517,-8183,212,-1,-3,-1,0
462103,514,-8186,221,-1,-3,-1,0
462108,517,-8196,227,-1,-2,-1,0
462112,523,-8209,231,-1,-2,-1,0
462118,529,-8227,236,-1,-2,-1,0
462123,574,-8945,293,-1,-2,-1,0
462128,654,-8923,241,-2,-7,-1,0
462133,585,-8749,457,-1,-17,0,0
462138,514,-8588,418,-1,-11,0,0
462143,518,-8452,459,-1,0,0,0
462148,543,-8673,318,-1,1,0,0
462153,531,-8582,327,-2,-7,0,0
462158,463,-8488,398,-1,-6,0,0
462163,471,-8529,301,-1,3,0,0
462168,531,-8462,368,-1,3,0,0
462173,554,-8483,354,-1,0,0,0
462178,570,-8441,307,-1,-5,0,0
462183,558,-8426,307,0,-5,0,0
462188,537,-8408,242,-1,-3,0,0
462193,534,-8388,217,-1,-2,0,0
462198,522,-8377,193,-1,-1,0,0
462203,519,-8367,164,-1,-1,0,0
462208,516,-8361,158,-1,-1,0,0
462213,502,-8351,134,-1,0,0,0
462218,502,-8341,124,-1,0,0,0
462223,504,-8334,138,-1,1,0,0
462228,511,-8328,135,-1,0,0,0
462233,531,-8324,123,0,-1,0,0
462238,544,-8322,119,0,-1,0,0
462243,555,-8319,109,0,-2,0,0
462248,576,-8314,90,0,-2,0,0
462253,592,-8312,68,0,-2,0,0
462258,595,-8312,51,0,-2,0,0
462263,601,-8309,36,0,-3,0,0
462268,602,-8308,32,0,-2,0,0
462273,594,-8309,17,0,-2,0,0
462278,598,-8311,15,0,-2,0,0
462283,593,-8314,23,0,-1,0,0
462288,588,-8315,24,0,-1,0,0
462293,592,-8311,33,0,0,0,0
462298,593,-8308,46,0,0,0,0
462303,599,-8307,58,0,-1,0,0
462308,608,-8304,81,0,-1,0,0
462313,614,-8303,96,0,-2,0,0
462318,626,-8300,100,0,-3,0,0
462323,626,-8301,115,0,-3,0,0
462328,629,-8302,119,0,-3,0,0
462333,635,-8303,125,0,-3,0,0
462338,629,-8305,132,0,-3,0,0
462343,620,-8305,136,0,-3,0,0
462348,604,-8304,138,0,-3,0,0
462353,585,-8305,140,0,-2,0,0
462358,573,-8305,140,0,-2,0,0
462363,561,-8304,141,0,-1,0,0
462368,553,-8303,148,0,-2,0,0
462373,553,-8301,147,0,-2,0,0
462378,549,-8300,143,0,-2,0,0
462383,550,-8298,143,0,-2,0,0
462388,556,-8298,145,0,-1,0,0
462393,567,-8299,147,0,-1,0,0
462398,576,-8297,149,0,-1,0,0
462403,580,-8298,157,0,-1,0,0
462408,591,-8298,168,0,0,0,0
462413,594,-8298,176,0,0,0,0
462418,592,-8299,181,0,0,0,0
462423,584,-8300,181,0,0,0,0
462428,572,-8302,179,0,0,0,0
462433,560,-8302,173,0,0,0,0
462438,542,-8303,167,0,-1,0,0
462443,527,-8302,159,0,-2,0,0
462448,509,-8302,151,0,-2,0,0
462453,496,-8304,147,0,-2,0,0
462458,493,-8303,145,0,-2,0,0
462463,496,-8300,148,0,-1,0,0
462468,504,-8299,148,0,-2,0,0
462473,519,-8298,145,0,-2,0,0
462478,529,-8298,146,0,-2,-1,0
462483,538,-8302,148,0,-2,-1,0
462488,548,-8304,146,0,-2,-1,0
462493,549,-8305,150,0,-2,-1,0
462498,552,-8307,157,0,-2,-1,0
462503,552,-8306,175,0,-2,-1,0
462508,553,-8305,197,0,-3,-1,0
462513,544,-8304,216,0,-3,-1,0
462518,536,-8304,234,0,-4,-1,0
462523,528,-8302,243,0,-4,-1,0
462528,522,-8304,246,0,-3,-1,0
462533,521,-8304,251,0,-3,-1,0
462538,522,-8308,244,0,-3,-1,0
462543,525,-8311,235,0,-2,-1,0
462548,533,-8313,228,0,-2,-1,0
462553,539,-8315,223,0,-1,-1,0
462558,550,-8315,231,0,-1,-1,0
462563,563,-8312,233,-1,-1,-1,0
462568,571,-8313,238,0,-2,-1,0
462573,577,-8309,255,-1,-3,-1,0
462578,579,-8307,260,-1,-4,-1,0
462583,582,-8305,263,-1,-4,-1,0
462588,578,-8303,270,-1,-5,-1,0
462593,570,-8302,269,-1,-5,-1,0
462598,561,-8299,265,-1,-5,-1,0
462603,548,-8298,265,-1,-4,-1,0
462608,532,-8298,257,-1,-4,-1,0
462613,516,-8298,251,-1,-3,-1,0
462618,503,-8298,243,-1,-2,-1,0
462623,502,-8298,233,-1,-1,-1,0
462628,504,-8299,226,-1,0,-1,0
462633,515,-8301,219,-1,0,-1,0
462638,539,-8300,208,-1,0,-1,0
462643,559,-8300,200,-1,0,-1,0
462648,581,-8300,193,-1,0,-1,0
462653,606,-8296,184,-1,0,-1,0
462658,624,-8298,172,-1,0,-1,0
462663,638,-8300,167,-1,0,-1,0
462668,645,-8300,160,-1,0,-1,0
462673,643,-8300,147,-1,0,-1,0
462678,642,-8303,138,-1,0,-1,0
462683,637,-8306,123,-1,0,-1,0
462688,631,-8307,110,-1,0,-1,0
462693,629,-8305,102,-1,0,-1,0
462698,628,-8305,97,-1,0,-1,0
462703,630,-8305,99,-1,0,-1,0
462708,637,-8303,104,-1,0,-1,0
462713,646,-8301,110,-1,0,-1,0
462718,658,-8299,120,-1,0,-1,0
462723,675,-8300,129,-1,-1,-1,0
462728,688,-8303,141,-1,-1,-1,0
462733,689,-8304,145,-1,-2,-1,0
462738,693,-8300,141,-1,-2,0,0
462743,689,-8297,136,-1,-2,0,0
462748,684,-8297,128,0,-1,-1,0
462753,681,-8300,117,0,-1,-1,0
462758,677,-8299,104,0,-1,0,0
462763,676,-8301,89,-1,-1,0,0
462768,676,-8302,80,-1,-1,0,0
462773,683,-8300,84,-1,-1,0,0
462778,692,-8299,97,-1,-1,0,0
462783,697,-8296,114,-1,-2,0,0
462788,698,-8296,141,-1,-2,0,0
462793,698,-8297,167,-1,-2,0,0
462798,696,-8299,194,-1,-2,0,0
462803,689,-8302,212,-1,-2,0,0
462808,677,-8302,226,-1,-2,0,0
462813,661,-8302,229,-1,-2,0,0
462818,647,-8303,228,-1,-2,0,0
462823,629,-8305,228,-1,-3,0,0
462828,609,-8305,223,-1,-3,0,0
462833,589,-8305,216,-1,-2,0,0
462838,571,-8305,207,-1,-2,0,0
462843,554,-8306,195,-1,-2,0,0
462848,540,-8308,187,-1,-1,0,0
462853,527,-8305,185,-1,-1,0,0
462858,516,-8305,182,-1,-1,-1,0
462863,510,-8306,186,-1,-1,-1,0
462868,508,-8306,196,-1,-1,-1,0
462873,507,-8310,205,-1,-1,-1,0
462878,509,-8312,215,-1,-1,-1,0
462883,518,-8312,225,-1,-1,-1,0
462888,530,-8310,231,-1,-1,-1,0
462893,545,-8308,229,-1,-1,-1,0
462898,560,-8307,224,-1,-1,-1,0
462903,577,-8304,207,-1,-1,-1,7
462908,592,-8302,188,-1,-1,-1,7
462913,607,-8301,170,-1,-1,-1,7
462918,618,-8300,147,-1,-1,-1,7
462923,624,-8299,117,-1,-1,-1,7
462928,631,-8299,84,-1,-1,-1,7
462933,633,-8299,51,-1,-1,0,7
462938,637,-8297,20,-1,-1,-1,7
462943,640,-8297,-11,-1,-1,-1,7
462948,647,-8300,-35,0,-1,0,7
462953,660,-8299,-51,0,-1,0,7
462958,678,-8298,-69,0,-1,0,7
462963,700,-8297,-80,0,-1,0,7
462968,727,-8294,-86,0,0,0,7
462973,755,-8293,-91,0,0,0,7
462978,776,-8292,-92,0,0,0,7
462983,792,-8291,-89,0,1,0,7
462988,808,-8293,-85,0,1,0,7
462993,821,-8293,-76,0,2,0,7
462998,832,-8292,-61,0,2,0,7
463003,836,-8294,-43,0,1,0,7
463008,835,-8293,-20,0,0,0,7
463013,833,-8294,1,0,-1,0,7
463018,823,-8295,19,0,-2,0,7
463023,816,-8295,31,0,-2,1,7
463028,814,-8297,39,0,-3,1,7
463033,814,-8298,48,1,-3,1,7
463038,820,-8299,62,0,-3,1,7
463043,828,-8300,73,0,-2,1,7
463048,837,-8299,90,0,-2,1,7
463053,841,-8297,114,0,-2,1,7
463058,841,-8301,137,0,-1,1,7
463063,840,-8302,162,0,0,1,7
463068,835,-8301,179,0,0,1,7
463073,823,-8301,193,0,0,1,7
463078,805,-8301,199,0,1,1,7
463083,789,-8304,195,0,1,1,7
463088,775,-8307,200,0,1,1,7
463093,771,-8307,198,0,0,1,7
463098,766,-8309,193,0,-1,2,7
463103,762,-8311,195,0,-1,2,7
463108,763,-8310,193,0,-1,2,7
463113,769,-8310,188,0,-1,2,7
463118,774,-8309,184,0,-1,2,7
463123,778,-8309,173,0,-1,2,7
463128,777,-8308,158,0,-1,2,7
463133,774,-8306,145,0,-1,2,7
463138,766,-8305,130,0,0,2,7
463143,752,-8306,118,0,0,2,7
463148,728,-8305,108,0,1,2,7
463153,701,-8304,99,0,1,2,7
463158,674,-8304,92,0,1,2,7
463163,642,-8303,76,1,1,2,7
463168,608,-8301,63,1,0,2,7
463173,570,-8300,43,1,0,2,7
463178,530,-8299,24,1,0,2,7
463183,497,-8299,-2,1,0,2,7
463188,464,-8301,-18,1,-1,2,7
463193,428,-8305,-32,1,-1,2,7
463198,387,-8305,-37,1,0,1,7
463203,334,-8305,-32,1,1,1,7
463208,269,-8304,-19,1,2,1,7
463213,192,-8308,4,1,3,1,7
463218,101,-8310,44,1,5,1,7
463223,0,-8310,91,1,7,0,7
463228,-116,-8314,151,1,9,0,7
463233,-237,-8313,222,1,10,-1,7
463238,-365,-8313,292,0,10,-1,7
463243,-499,-8318,367,0,9,-2,7
463248,-640,-8323,426,0,8,-2,7
463253,-791,-8324,474,0,8,-2,7
463258,-939,-8324,513,0,7,-3,7
463263,-1087,-8324,535,0,8,-4,7
463268,-1237,-8326,539,0,9,-5,7
463273,-1383,-8329,535,0,10,-5,7
463278,-1528,-8330,526,0,11,-6,7
463283,-1670,-8328,509,0,12,-7,7
463288,-1816,-8327,495,-1,12,-8,7
463293,-1956,-8328,491,-1,12,-9,7
463298,-2097,-8328,492,-1,9,-10,7
463303,-2252,-8328,519,-1,6,-11,7
463308,-2424,-8328,573,-2,7,-12,7
463313,-2595,-8324,651,-2,11,-13,7
463318,-2746,-8318,748,-2,16,-14,7
463323,-2866,-8308,856,-2,20,-16,7
463328,-2951,-8298,969,-3,20,-17,7
463333,-3019,-8287,1072,-3,16,-18,7
463338,-3079,-8275,1147,-3,9,-19,7
463343,-3134,-8262,1198,-3,3,-21,7
463348,-3178,-8271,1217,-3,0,-22,7
463353,-3160,-8291,1228,-3,1,-23,7
463358,-3026,-8286,1191,-4,3,-24,7
463363,-2876,-8269,1142,-4,4,-25,7
463368,-2744,-8252,1109,-5,3,-25,7
463373,-2601,-8229,1061,-5,4,-26,7
463378,-2431,-8203,1023,-5,9,-27,7
463383,-2234,-8176,985,-5,15,-27,7
463388,-1999,-8152,935,-5,18,-28,7
463393,-1714,-8129,872,-5,19,-28,7
463398,-1398,-8106,805,-6,20,-28,7
463403,-1065,-8082,738,-6,20,-28,7
463408,-705,-8056,666,-6,19,-28,7
463413,-338,-8031,583,-5,19,-28,7
463418,20,-8011,499,-5,19,-28,7
463423,372,-7995,410,-5,19,-28,7
463428,704,-7980,318,-5,19,-28,7
463433,1011,-7967,213,-4,19,-27,7
463438,1294,-7959,127,-3,17,-26,7
463443,1565,-7957,38,-3,12,-25,7
463448,1810,-7953,-97,-3,6,-24,7
463453,2031,-7956,-267,-2,1,-22,7
463458,2232,-7962,-443,-2,-3,-21,7
463463,2406,-7979,-601,-2,-5,-20,7
463468,2529,-7973,-692,-2,-6,-20,7
463473,2596,-7967,-669,-3,-8,-22,7
463478,2702,-7969,-561,-4,-6,-24,7
463483,3218,-7929,-775,-3,-1,-23,7
463488,3944,-7938,-1075,0,9,-17,7
463493,4419,-7949,-955,2,-1,-13,7
463498,4802,-7965,-1011,1,-20,-13,7
463503,5181,-7987,-1089,1,-22,-14,7
463508,5486,-8010,-1038,0,-13,-15,7
463513,5591,-8028,-969,-1,-5,-15,7
463518,5467,-8042,-729,-1,-5,-15,7
463523,5227,-8060,-449,-1,-10,-14,7
463528,4891,-8082,-125,-1,-15,-12,7
463533,4532,-8106,196,-1,-22,-11,7
463538,4249,-8127,497,-1,-28,-9,7
463543,4063,-8140,802,-2,-32,-7,7
463548,3972,-8150,1109,-3,-34,-6,7
463553,4000,-8153,1413,-4,-35,-5,7
463558,4103,-8158,1718,-5,-34,-5,7
463563,4219,-8160,2016,-6,-31,-4,7
463568,4327,-8160,2288,-8,-27,-4,7
463573,4395,-8160,2550,-9,-23,-4,7
463578,4398,-8160,2775,-11,-20,-4,7
463583,4323,-8159,2985,-13,-16,-3,7
463588,4183,-8160,3187,-14,-11,-3,7
463593,4029,-8153,3368,-15,-4,-2,7
463598,3878,-8147,3554,-16,3,-1,7
463603,3746,-8140,3730,-16,11,0,7
463608,3675,-8131,3848,-16,17,1,7
463613,3688,-8122,3885,-17,20,2,7
463618,3777,-8107,3836,-17,18,3,7
463623,3891,-8091,3694,-17,13,4,7
463628,3994,-8080,3478,-18,11,5,7
463633,4085,-8065,3232,-19,13,6,7
463638,4167,-8047,3004,-19,16,6,7
463643,4242,-8034,2763,-19,19,7,7
463648,4298,-8024,2539,-20,18,7,7
463653,4316,-8014,2337,-20,16,8,7
463658,4300,-8004,2140,-21,16,9,7
463663,4273,-7997,1970,-21,16,9,7
463668,4244,-7988,1773,-22,16,10,7
463673,4201,-7981,1551,-23,16,11,7
463678,4137,-7969,1340,-24,14,11,7
463683,4053,-7955,1145,-25,15,12,7
463688,3980,-7944,981,-25,17,13,7
463693,3925,-7933,851,-26,19,13,7
463698,3883,-7922,750,-26,21,14,7
463703,3863,-7908,652,-26,21,15,7
463708,3869,-7895,541,-26,22,15,7
463713,3894,-7880,414,-25,22,16,7
463718,3934,-7867,243,-25,21,17,7
463723,3987,-7854,53,-25,21,18,7
463728,4030,-7846,-154,-25,21,18,7
463733,4057,-7837,-391,-25,20,19,7
463738,4075,-7824,-630,-25,20,19,7
463743,4077,-7811,-882,-24,19,20,7
463749,4058,-7803,-1149,-24,16,21,7
463753,4026,-7794,-1411,-23,12,21,7
463758,3977,-7788,-1669,-23,8,22,7
463763,3921,-7783,-1932,-22,5,23,7
463768,3869,-7777,-2172,-21,2,24,7
463773,3818,-7772,-2392,-21,0,25,7
463778,3766,-7769,-2604,-20,-2,25,7
463783,3714,-7764,-2782,-19,-3,26,7
463788,3643,-7761,-2924,-18,-4,26,7
463793,3552,-7762,-3051,-17,-3,27,7
463799,3433,-7762,-3159,-16,-2,27,7
463803,3283,-7759,-3276,-15,-1,28,7
463808,3117,-7759,-3417,-14,1,28,7
463813,2936,-7757,-3569,-13,1,28,7
463818,2754,-7759,-3755,-12,0,29,7
463824,2576,-7764,-3976,-11,-1,29,7
463828,2410,-7768,-4203,-10,-2,30,7
463833,2286,-7774,-4436,-8,-3,30,7
463838,2207,-7778,-4658,-7,-5,31,7
463844,2170,-7778,-4863,-6,-7,31,7
463848,2172,-7775,-5057,-5,-9,32,7
463853,2264,-7751,-5097,-3,-12,32,7
463859,2365,-7743,-5253,-1,-13,32,7
463863,2380,-7739,-5466,1,-17,33,7
463868,2355,-7735,-5607,2,-20,33,7
463874,2304,-7740,-5809,3,-19,33,7
463879,2210,-7735,-5848,4,-19,33,7
463883,2115,-7734,-5768,5,-20,34,7
463888,1996,-7715,-5623,6,-20,34,7
463893,1698,-7708,-5485,8,-23,34,7
463899,1363,-7698,-5327,11,-28,32,7
463904,1117,-7690,-5258,13,-28,31,7
463908,855,-7687,-5263,14,-26,30,7
463913,514,-7690,-5301,15,-25,30,7
463919,162,-7699,-5416,16,-23,29,7
463924,-164,-7701,-5484,17,-20,29,7
463928,-473,-7697,-5508,18,-18,29,7
463933,-746,-7692,-5495,20,-16,30,7
463939,-958,-7689,-5439,21,-15,30,7
463944,-1158,-7682,-5380,23,-14,31,7
463949,-1389,-7681,-5304,24,-13,30,7
463954,-1597,-7685,-5224,25,-10,28,7
463959,-1774,-7683,-5132,26,-4,27,7
463964,-1988,-7685,-5012,27,5,26,7
463969,-2237,-7682,-4865,27,15,25,7
463974,-2491,-7681,-4700,28,26,24,7
463979,-2720,-7680,-4517,29,37,23,7
463984,-2957,-7674,-4360,30,48,22,7
463989,-3225,-7672,-4174,30,61,21,7
463994,-3478,-7676,-3987,31,77,21,7
463999,-3684,-7679,-3796,31,92,20,7
464004,-3820,-7682,-3575,31,102,19,7
464009,-3877,-7686,-3337,31,104,19,7
464014,-3885,-7689,-3086,32,98,18,7
464019,-3851,-7692,-2815,32,83,17,7
464024,-3802,-7693,-2542,33,61,16,7
464029,-3765,-7695,-2296,33,36,15,7
464034,-3753,-7700,-2093,34,10,14,7
464039,-3761,-7705,-1953,35,-11,13,7
464044,-3807,-7709,-1881,36,-26,12,7
464049,-3870,-7713,-1838,36,-33,10,7
464054,-3934,-7723,-1811,37,-35,9,7
464059,-4000,-7732,-1802,37,-33,8,7
464064,-4053,-7738,-1760,37,-30,7,7
464069,-4052,-7739,-1703,37,-25,5,7
464074,-3965,-7731,-1647,37,-21,5,7
464079,-3894,-7729,-1495,37,-19,4,7
464084,-3916,-7727,-1228,37,-19,2,7
464089,-3914,-7719,-989,37,-18,0,7
464094,-3867,-7711,-804,37,-15,-1,7
464099,-3823,-7703,-624,37,-10,-1,7
464104,-3792,-7700,-461,38,-7,-2,7
464109,-3724,-7696,-349,38,-3,-3,7
464114,-3625,-7692,-280,38,2,-3,7
464119,-3516,-7692,-226,38,6,-4,7
464124,-3415,-7696,-153,38,7,-5,7
464129,-3338,-7699,-4,37,5,-6,7
464134,-3308,-7700,257,36,0,-8,7
464139,-3278,-7690,537,35,-8,-9,7
464144,-3229,-7679,797,35,-20,-10,7
464149,-3194,-7683,1121,35,-34,-10,7
464154,-3186,-7689,1533,35,-46,-11,7
464159,-3143,-7694,1841,34,-55,-12,7
464164,-3080,-7700,2086,33,-61,-13,7
464169,-3032,-7708,2332,33,-63,-14,7
464174,-2984,-7714,2542,33,-61,-15,7
464179,-2939,-7723,2711,32,-59,-16,7
464184,-2924,-7730,2859,31,-56,-17,7
464189,-2941,-7741,3001,29,-53,-19,7
464194,-2967,-7749,3154,28,-50,-20,7
464199,-3001,-7762,3318,27,-47,-21,7
464204,-3047,-7771,3531,25,-44,-22,7
464209,-3098,-7778,3787,24,-41,-22,7
464214,-3125,-7786,4023,23,-37,-22,7
464219,-3133,-7795,4262,21,-34,-23,7
464224,-3097,-7802,4494,20,-30,-24,7
464229,-3026,-7807,4720,18,-27,-24,7
464234,-2943,-7814,4946,16,-24,-25,7
464239,-2851,-7817,5184,14,-21,-26,7
464244,-2766,-7819,5442,13,-19,-27,7
464249,-2677,-7819,5711,11,-17,-28,7
464254,-2564,-7819,5982,10,-14,-29,7
464259,-2428,-7820,6261,9,-12,-30,7
464264,-2270,-7820,6516,7,-9,-30,7
464269,-2125,-7817,6729,5,-5,-32,7
464274,-2016,-7818,6901,3,1,-33,7
464279,-1935,-7817,7033,2,7,-33,7
464284,-1879,-7814,7132,0,15,-34,7
464289,-1841,-7813,7199,-2,23,-34,7
464294,-1788,-7811,7226,-4,31,-35,7
464299,-1698,-7803,7228,-6,39,-35,7
464304,-1560,-7791,7208,-7,47,-35,7
464309,-1384,-7779,7174,-9,52,-35,7
464314,-1178,-7767,7140,-11,57,-35,7
464319,-957,-7750,7108,-12,61,-35,7
464324,-732,-7732,7080,-14,65,-36,7
464329,-505,-7718,7056,-15,69,-36,7
464334,-274,-7699,7020,-16,72,-36,7
464339,-44,-7678,6975,-17,74,-36,7
464344,196,-7657,6922,-19,75,-36,7
464349,430,-7641,6841,-20,75,-36,7
464354,638,-7622,6721,-21,73,-36,7
464359,825,-7605,6589,-22,70,-36,7
464364,994,-7592,6437,-23,69,-36,7
464369,1153,-7577,6272,-24,69,-36,7
464374,1393,-7570,6171,-25,70,-35,7
464379,1626,-7567,6106,-27,72,-33,7
464384,1871,-7549,6020,-28,71,-33,7
464389,2151,-7527,6005,-29,68,-32,7
464394,2485,-7504,5988,-30,68,-32,7
464399,2833,-7486,5911,-30,71,-32,7
464404,3142,-7469,5800,-30,72,-32,7
464409,3374,-7459,5641,-31,69,-31,7
464414,3570,-7445,5383,-31,66,-31,7
464419,3812,-7443,5028,-32,66,-30,7
464424,4019,-7445,4643,-32,67,-28,7
464429,4192,-7449,4248,-32,66,-27,7
464434,4383,-7455,3872,-33,65,-26,7
464439,4612,-7461,3515,-33,66,-25,7
464444,4866,-7464,3165,-33,66,-24,7
464449,5124,-7472,2839,-33,65,-22,7
464454,5381,-7479,2539,-33,64,-21,7
464459,5639,-7494,2249,-33,64,-20,7
464464,5897,-7507,1960,-32,66,-18,7
464469,6183,-7516,1656,-32,66,-16,7
464474,6501,-7528,1350,-31,68,-14,7
464479,6826,-7543,1053,-30,69,-12,7
464484,7174,-7564,758,-29,69,-10,7
464489,7559,-7582,441,-28,68,-8,7
464494,7935,-7592,138,-26,66,-5,7
464499,8451,-7609,-265,-24,62,-3,7
464504,9073,-7644,-883,-24,55,-1,7
464509,9599,-7680,-1595,-23,44,1,7
464514,9995,-7715,-2352,-23,33,2,7
464519,10244,-7751,-3044,-23,29,4,7
464524,10323,-7780,-3551,-22,25,7,7
464529,10285,-7806,-3900,-21,18,9,7
464534,10146,-7823,-4085,-19,9,13,7
464539,9943,-7832,-4135,-18,-3,16,7
464544,9732,-7837,-4094,-16,-14,19,7
464549,9543,-7835,-3971,-14,-23,22,7
464554,9370,-7835,-3819,-12,-29,24,7
464559,9165,-7828,-3617,-11,-32,25,7
464564,8895,-7824,-3380,-11,-31,27,7
464569,8553,-7813,-3122,-10,-26,28,7
464574,8137,-7802,-2839,-9,-20,29,7
464579,7658,-7788,-2555,-8,-16,31,7
464584,7142,-7774,-2310,-8,-12,32,7
464589,6598,-7762,-2107,-7,-9,33,7
464594,6048,-7747,-1945,-7,-4,34,7
464599,5555,-7738,-1839,-6,2,35,7
464604,5096,-7731,-1779,-6,8,36,7
464609,4639,-7724,-1767,-5,11,37,7
464614,4174,-7722,-1805,-5,13,37,7
464619,3719,-7733,-1882,-4,13,37,7
464624,3277,-7768,-1975,-4,11,36,7
464629,2845,-7791,-2048,-3,8,36,7
464634,2435,-7804,-2098,-3,4,36,7
464639,2043,-7808,-2119,-3,-1,36,7
464644,1641,-7804,-2088,-2,-4,35,7
464649,1242,-7803,-2014,-2,-8,32,7
464654,948,-7805,-1930,-2,-9,30,7
464659,711,-7801,-1785,-3,-7,30,7
464664,-81,-7820,-1542,-3,-9,29,7
464669,-1029,-7839,-1247,-2,-20,27,7
464674,-1723,-7858,-1041,-1,-25,25,7
464679,-2363,-7882,-852,-1,-26,26,7
464684,-3028,-7910,-647,0,-29,26,7
464689,-3566,-7941,-472,1,-33,26,7
464694,-3890,-7971,-349,1,-33,25,7
464699,-4114,-8003,-240,1,-29,24,7
464704,-4267,-8037,-144,1,-26,22,7
464709,-4275,-8063,-90,1,-24,20,7
464714,-4278,-8092,-39,1,-21,18,7
464719,-4345,-8120,14,1,-20,16,7
464724,-4386,-8143,35,1,-20,13,7
464729,-4459,-8166,67,1,-19,12,7
464734,-4578,-8191,91,1,-21,10,7
464739,-4658,-8213,97,1,-24,9,7
464744,-4724,-8230,123,0,-25,8,7
464749,-4777,-8251,163,0,-24,7,7
464754,-4762,-8267,204,0,-21,6,7
464759,-4708,-8282,274,0,-17,5,7
464764,-4609,-8294,357,0,-13,3,7
464769,-4459,-8302,437,0,-11,2,7
464774,-4300,-8306,508,0,-10,1,7
464779,-4122,-8310,543,0,-10,0,7
464784,-3918,-8314,557,0,-10,-1,7
464789,-3704,-8319,532,0,-9,-2,7
464794,-3466,-8322,485,-1,-9,-2,7
464799,-3212,-8322,427,-1,-8,-3,7
464804,-2943,-8323,370,-1,-6,-3,7
464809,-2644,-8320,326,-1,-5,-4,7
464814,-2340,-8316,292,-1,-4,-4,7
464819,-2017,-8312,272,-1,-4,-4,7
464824,-1691,-8304,265,-1,-4,-4,7
464829,-1383,-8301,266,-1,-4,-4,7
464834,-1078,-8297,266,-1,-5,-4,7
464839,-798,-8295,254,-1,-5,-4,7
464844,-542,-8292,232,-1,-6,-4,7
464849,-303,-8287,198,-1,-8,-4,7
464854,-109,-8286,157,-1,-10,-4,7
464859,59,-8288,109,-1,-11,-4,7
464864,213,-8289,59,-1,-12,-4,7
464869,336,-8290,19,-1,-12,-3,7
464874,449,-8290,-13,-1,-11,-3,7
464879,552,-8290,-32,-1,-10,-3,7
464884,637,-8290,-36,-1,-9,-3,7
464889,713,-8290,-32,-1,-8,-2,7
464894,770,-8289,-14,-1,-6,-2,7
464899,800,-8287,11,-1,-4,-2,7
464904,821,-8286,27,-1,-3,-2,0
464909,815,-8287,70,0,-2,-2,0
464914,793,-8287,64,0,-1,-1,0
464919,781,-8287,14,0,0,-1,0
464924,751,-8290,-29,0,0,-1,0
464929,721,-8294,-100,0,1,-1,0
464934,715,-8295,-163,0,2,-1,0
464939,700,-8295,-201,0,2,0,0
464944,692,-8297,-240,0,1,0,0
464949,698,-8297,-264,0,0,0,0
464954,686,-8297,-275,0,-1,0,0
464959,664,-8299,-272,0,-2,0,0
464964,642,-8298,-244,0,-2,0,0
464969,603,-8298,-199,0,-2,0,0
464974,561,-8297,-150,0,-2,0,0
464979,520,-8298,-94,0,-3,0,0
464984,470,-8298,-30,1,-5,0,0
464989,425,-8296,30,1,-6,0,0
464994,378,-8295,85,1,-6,0,0
464999,327,-8294,137,0,-6,0,0
465004,286,-8295,178,0,-4,0,0
465009,251,-8298,217,0,-2,0,0
465014,225,-8299,252,0,-1,0,0
465019,210,-8298,276,0,-1,0,0
465024,199,-8296,297,0,-1,0,0
465029,178,-8297,309,0,-2,0,0
465034,166,-8296,314,0,-3,0,0
465039,155,-8296,304,0,-3,0,0
465044,140,-8296,291,0,-3,0,0
465049,134,-8294,276,0,-3,0,0
465054,122,-8296,261,0,-3,0,0
465059,112,-8298,248,0,-3,0,0
465064,109,-8299,240,0,-2,0,0
465069,100,-8298,233,0,-2,0,0
465074,94,-8298,234,0,-2,0,0
465079,94,-8296,228,0,-2,0,0
465084,89,-8297,226,0,-3,0,0
465089,90,-8298,222,0,-4,0,0
465094,88,-8298,212,0,-5,0,0
465099,83,-8300,200,0,-7,0,0
465104,79,-8299,191,0,-9,0,0
465109,78,-8299,180,0,-10,0,0
465114,77,-8298,179,0,-11,0,0
465119,74,-8300,180,0,-12,0,0
465124,69,-8302,189,0,-12,0,0
465129,58,-8303,207,0,-12,-1,0
465134,43,-8302,237,0,-12,-1,0
465139,28,-8299,265,0,-11,-1,0
465144,9,-8299,290,0,-11,-1,0
465149,-9,-8298,303,0,-11,-1,0
465154,-33,-8297,301,0,-12,-1,0
465159,-54,-8300,280,0,-14,-1,0
465164,-59,-8303,250,0,-14,-1,0
465169,-58,-8305,207,0,-15,-1,0
465174,-52,-8304,166,0,-14,-1,0
465179,-27,-8304,119,0,-14,-1,0
465184,6,-8301,76,0,-13,-1,0
465189,45,-8300,42,0,-14,-1,0
465194,83,-8298,13,0,-15,-1,0
465199,116,-8298,-5,0,-16,-1,0
465204,150,-8298,-9,0,-19,-1,0
465209,174,-8300,-15,0,-23,-1,0
465214,182,-8298,-9,0,-26,-1,0
465219,189,-8296,-1,0,-29,-1,0
465224,185,-8294,10,1,-31,-1,0
465229,176,-8293,19,1,-33,-1,0
465234,156,-8295,28,1,-34,-1,0
465239,130,-8296,44,1,-33,-1,0
465244,97,-8298,65,1,-32,-1,0
465249,61,-8301,87,1,-29,-1,0
465254,30,-8299,115,0,-26,-1,0
465259,14,-8299,153,0,-22,-1,0
465264,14,-8298,196,0,-18,-1,0
465269,32,-8298,251,0,-15,-1,0
465274,61,-8296,305,0,-12,-1,0
465279,98,-8294,351,0,-10,-1,0
465284,145,-8294,380,0,-9,-1,0
465289,191,-8290,388,0,-7,-1,0
465294,231,-8289,377,0,-6,-1,0
465299,260,-8291,343,0,-5,-1,0
465304,285,-8294,295,0,-4,-1,0
465309,303,-8299,236,0,-4,-1,0
465314,316,-8302,183,0,-5,-1,0
465319,320,-8303,130,0,-7,-1,0
465324,319,-8301,93,0,-8,-1,0
465329,314,-8298,69,0,-9,-1,0
465334,303,-8295,57,0,-9,-1,0
465339,291,-8294,66,0,-9,-1,0
465344,276,-8297,86,0,-8,-1,0
465349,253,-8299,115,0,-7,-1,0
465354,228,-8300,153,0,-7,-1,0
465359,197,-8300,197,0,-5,-1,0
465364,161,-8299,242,0,-3,-1,0
465369,127,-8300,291,0,-1,-1,0
465374,95,-8300,331,0,1,-1,0
465379,71,-8301,359,0,2,-1,0
465384,53,-8301,381,0,3,-1,0
465389,38,-8302,400,0,4,-1,0
465395,30,-8302,408,0,5,-1,0
465399,31,-8305,414,-1,6,-1,0
465404,43,-8304,424,-1,8,-1,0
465410,65,-8304,433,-1,10,-1,0
465415,95,-8302,446,-1,11,-1,0
465419,122,-8301,459,-1,10,-1,0
465424,152,-8298,470,-1,9,-1,0
465429,178,-8294,472,-1,6,-2,0
465434,191,-8289,460,-1,2,-1,0
465439,193,-8290,438,-1,-2,-1,0
465445,186,-8292,413,-1,-6,-2,0
465450,171,-8293,383,-1,-8,-2,0
465455,156,-8293,360,-1,-9,-1,0
465459,144,-8295,351,-1,-8,-1,0
465465,142,-8295,355,-1,-6,-1,0
465470,148,-8294,366,-1,-6,-2,0
465474,147,-8294,380,-1,-5,-2,0
465479,144,-8295,393,-1,-4,-2,0
465485,142,-8295,405,-1,-3,-2,0
465489,145,-8293,404,-1,-2,-2,0
465494,156,-8291,394,-1,-2,-2,0
465500,167,-8292,366,-1,-2,-2,0
465504,180,-8293,326,-1,-2,-2,0
465509,194,-8294,283,-1,-2,-2,0
465515,207,-8294,238,-1,-2,-2,0
465520,222,-8297,203,-1,-2,-2,0
465525,234,-8300,171,-1,-2,-2,0
465530,248,-8301,136,-1,-2,-2,0
465535,256,-8301,111,-1,-3,-2,0
465540,264,-8302,79,-1,-3,-2,0
465545,271,-8300,41,-1,-3,-2,0
465550,276,-8299,8,-1,-4,-1,0
465555,284,-8303,-21,-1,-4,-1,0
465560,294,-8304,-43,-1,-4,-2,0
465565,296,-8304,-59,-1,-4,-2,0
465570,290,-8303,-54,-1,-4,-2,0
465575,285,-8302,-31,-1,-4,-2,0
465580,277,-8302,4,-1,-3,-2,0
465584,265,-8305,48,-1,-3,-2,0
465590,256,-8304,93,-1,-2,-1,0
465595,251,-8308,131,-1,-1,-1,0
465600,244,-8307,163,-1,0,-1,0
465605,238,-8308,189,-1,1,-1,0
465610,234,-8308,212,-1,2,-1,0
465615,231,-8310,228,-1,4,-1,0
465620,226,-8309,240,-1,5,-2,0
465625,226,-8309,251,-1,6,-1,0
465630,230,-8307,263,-1,7,-1,0
465635,242,-8303,276,-1,8,-1,0
465640,263,-8305,284,-1,8,-1,0
465645,293,-8303,291,-1,7,-1,0
465650,322,-8305,291,-1,6,-1,0
465655,342,-8307,282,-1,5,-1,0
465660,360,-8306,272,-1,3,-1,0
465665,367,-8306,256,-1,2,-1,0
465670,368,-8306,239,-1,1,-1,0
465675,370,-8306,221,-1,0,-1,0
465680,370,-8305,201,-1,0,-1,0
465685,371,-8303,190,-1,-1,-1,0
465690,379,-8303,187,-1,-2,-1,0
465695,391,-8304,189,-1,-3,-1,0
465700,402,-8304,196,-1,-4,-1,0
465705,418,-8306,210,-1,-6,-1,0
465710,432,-8309,219,-1,-7,-1,0
465715,439,-8310,226,-1,-8,-1,0
465720,442,-8308,236,-1,-9,-1,0
465725,443,-8308,244,-1,-10,-1,0
465730,427,-8308,245,-1,-11,-1,0
465735,400,-8308,239,-1,-11,-1,0
465740,366,-8308,230,-1,-11,-1,0
465745,323,-8308,223,-1,-9,-1,0
465750,279,-8307,225,-1,-6,-1,0
465755,245,-8307,237,-1,-3,-1,0
465760,227,-8306,255,-1,0,-1,0
465765,224,-8303,289,-1,1,-1,0
465770,227,-8301,326,-1,0,-1,0
465775,227,-8303,351,-1,-3,-1,0
465780,224,-8304,371,-1,-6,-1,0
465785,213,-8305,386,-1,-9,-1,0
465790,210,-8306,394,-1,-11,-1,0
465795,215,-8307,383,-1,-14,-1,0
465800,225,-8308,375,-1,-17,-1,0
465805,241,-8307,359,-1,-18,-1,0
465810,261,-8305,331,-1,-19,-1,0
465815,279,-8304,299,-1,-20,-1,0
465820,293,-8303,259,-1,-19,-1,0
465825,303,-8304,214,-1,-18,-1,0
465830,307,-8306,173,-1,-17,-1,0
465835,301,-8310,141,-1,-15,-1,0
465840,288,-8311,107,-1,-13,-1,0
465845,268,-8312,73,-1,-11,-1,0
465850,243,-8313,50,-1,-10,-1,0
465855,223,-8313,28,-1,-9,-1,0
465860,210,-8313,15,-1,-9,-1,0
465865,204,-8309,2,-1,-9,-1,0
465870,205,-8307,-17,-1,-9,-1,0
465875,219,-8307,-35,-1,-10,-1,0
465880,240,-8309,-45,-1,-10,-1,0
465885,264,-8312,-54,-1,-10,-1,0
465890,291,-8311,-63,-1,-10,-1,0
465895,316,-8311,-92,0,-12,-1,0
465900,325,-8318,-29,0,-13,-1,0
465905,333,-8328,-80,0,-14,-1,0
465910,336,-8332,-94,0,-15,-1,0
465915,313,-8334,-83,0,-15,-1,0
465920,288,-8329,-116,0,-14,-1,0
465925,262,-8322,-112,0,-11,-1,0
465930,238,-8320,-96,0,-8,-1,0
465935,233,-8315,-87,0,-6,-1,0
465940,235,-8312,-51,0,-5,-1,0
465945,242,-8310,-22,0,-4,-1,0
465950,256,-8308,0,0,-5,-1,0
465955,267,-8308,21,0,-5,-1,0
465960,277,-8306,34,0,-6,-1,0
465965,279,-8305,41,0,-5,-1,0
465970,284,-8302,41,0,-3,-1,0
465975,292,-8301,36,0,-1,-1,0
465980,303,-8301,37,0,1,-1,0
465985,315,-8301,39,0,1,-1,0
465990,326,-8301,44,0,1,-1,0
465995,334,-8299,65,0,1,-1,0
466000,342,-8294,84,0,0,-1,0
466005,346,-8294,110,0,-1,-1,0
466010,345,-8297,144,0,-3,-1,0
466015,344,-8298,165,0,-4,-1,0
466020,341,-8296,185,0,-4,-1,0
466025,346,-8293,195,0,-5,-1,0
466030,347,-8294,189,1,-7,0,0
466035,341,-8298,190,0,-7,-1,0
466040,335,-8299,185,0,-7,-1,0
466045,328,-8301,180,0,-6,-1,0
466050,311,-8301,196,0,-4,-1,0
466055,301,-8301,217,0,-2,-1,0
466060,295,-8302,256,0,-1,-1,0
466065,294,-8303,308,0,-1,-1,0
466070,293,-8301,357,0,-2,-1,0
466075,289,-8302,397,0,-3,-1,0
466080,285,-8299,430,0,-3,-1,0
466085,293,-8296,439,0,-2,-1,0
466090,297,-8297,433,0,-2,-1,0
466095,292,-8296,422,0,-2,-1,0
466100,280,-8292,395,0,0,-1,0
466105,272,-8294,355,0,1,-1,0
466110,270,-8293,321,0,2,-1,0
466115,270,-8296,274,0,0,-1,0
466120,271,-8297,225,0,-2,-1,0
466125,274,-8299,174,0,-4,-1,0
466130,275,-8302,143,0,-6,-1,0
466135,269,-8301,140,0,-6,-1,0
466140,274,-8299,158,-1,-5,-1,0
466145,292,-8300,185,-1,-3,-1,0
466150,313,-8300,222,-1,-3,-1,0
466155,323,-8299,265,0,-4,-1,0
466160,326,-8301,296,0,-5,-1,0
466165,316,-8302,314,0,-4,-1,0
466170,299,-8303,320,0,-3,-1,0
466175,279,-8302,320,0,-2,-1,0
466180,265,-8300,317,-1,0,-1,0
466185,258,-8300,315,-1,2,-1,0
466190,255,-8300,316,-1,4,-1,0
466195,261,-8301,326,-1,5,-1,0
466200,268,-8298,333,-1,6,-1,0
466205,272,-8300,339,-1,7,-1,0
466210,265,-8301,336,-1,8,-1,0
466215,256,-8303,328,-1,9,-1,0
466220,249,-8305,315,-1,10,-1,0
466225,244,-8303,296,-1,11,-1,0
466230,235,-8302,275,-1,10,-1,0
466235,227,-8302,244,-1,9,-1,0
466240,221,-8305,212,-1,8,-1,0
466245,221,-8306,188,-1,7,-1,0
466250,235,-8303,169,-1,4,-1,0
466255,253,-8302,154,-1,1,-1,0
466260,270,-8301,142,-1,-2,-1,0
466265,286,-8297,128,-1,-5,-1,0
466270,302,-8298,112,0,-7,-1,0
466275,311,-8300,94,0,-8,-1,0
466280,309,-8303,84,0,-8,-1,0
466285,303,-8305,80,0,-8,-1,0
466290,290,-8304,88,0,-8,-1,0
466295,266,-8302,106,0,-7,-1,0
466300,244,-8305,134,-1,-7,-1,0
466305,223,-8304,169,0,-6,-1,0
466310,212,-8301,203,0,-5,-1,0
466315,213,-8302,233,0,-5,-1,0
466320,224,-8302,252,0,-5,-1,0
466325,237,-8302,265,-1,-5,-1,0
466330,255,-8303,272,-1,-5,-1,0
466335,273,-8304,279,-1,-5,-1,0
466340,287,-8306,282,-1,-4,-1,0
466345,294,-8307,281,-1,-4,-1,0
466350,294,-8310,266,-1,-2,-1,0
466355,294,-8310,244,-1,-1,-1,0
466360,295,-8311,222,-1,-1,-1,0
466365,298,-8308,204,-1,0,-1,0
466370,307,-8308,191,-1,0,-1,0
466375,316,-8308,188,-1,1,-1,0
466380,328,-8308,185,-1,1,-1,0
466385,339,-8307,188,-1,1,-1,0
466390,346,-8303,196,-1,0,-1,0
466395,345,-8299,205,-1,0,-1,0
466400,334,-8302,210,-1,0,-1,0
466405,322,-8307,206,-1,0,-1,0
466410,303,-8306,208,-1,-1,-1,0
466415,287,-8305,210,-1,-1,-1,0
466420,281,-8304,213,-1,-2,-1,0
466425,278,-8304,215,-1,-2,-1,0
466430,281,-8302,215,-1,-3,-1,0
466435,298,-8302,213,-1,-3,-1,0
466440,322,-8302,213,-1,-3,-1,0
466445,349,-8306,215,-1,-4,-1,0
466450,372,-8306,219,-1,-5,-1,0
466455,386,-8307,223,-1,-5,-1,0
466460,393,-8303,221,-1,-6,-1,0
466465,390,-8300,219,-1,-7,-1,0
466470,375,-8301,217,-1,-7,-1,0
466475,356,-8302,203,-1,-7,-1,0
466480,333,-8301,184,-1,-7,-1,0
466485,312,-8304,166,0,-7,-1,0
466490,297,-8305,143,0,-6,-1,0
466495,290,-8306,115,0,-5,-1,0
466500,288,-8307,100,0,-4,-1,0
466505,292,-8307,88,0,-3,-1,0
466510,301,-8308,83,0,-2,-1,0
466515,311,-8306,90,0,-2,-1,0
466520,317,-8307,106,0,-2,-1,0
466525,321,-8307,123,0,-2,-1,0
466530,325,-8305,137,0,-2,-1,0
466535,329,-8308,149,0,-3,-1,0
466540,330,-8308,158,0,-3,-1,0
466545,330,-8309,164,0,-3,-1,0
466550,330,-8311,166,0,-2,-1,0
466555,337,-8310,167,0,-1,-1,0
466560,348,-8312,166,0,0,-1,0
466565,360,-8312,169,0,0,-1,0
466570,369,-8309,181,0,-1,-1,0
466575,377,-8306,192,0,-1,-1,0
466580,387,-8304,206,0,-1,-1,0
466585,394,-8302,219,0,-2,-1,0
466590,398,-8303,238,0,-2,-1,0
466595,402,-8303,247,0,-2,-1,0
466600,404,-8305,257,-1,-2,-1,0
466605,405,-8307,270,-1,-1,-1,0
466610,405,-8308,284,-1,-1,-1,0
466615,403,-8308,302,-1,-1,-1,0
466620,401,-8309,313,-1,-1,-1,0
466625,398,-8309,317,-1,-1,-1,0
466630,399,-8307,316,-1,0,-1,0
466635,400,-8308,321,-1,0,-1,0
466640,402,-8309,329,-1,1,-1,0
466645,404,-8310,333,-1,1,-1,0
466650,404,-8310,335,-1,0,-1,0
466655,396,-8308,337,-1,0,-1,0
466660,386,-8308,336,-1,0,-1,0
466665,373,-8308,332,-1,0,-1,0
466670,365,-8308,331,-1,1,-1,0
466675,352,-8306,333,-1,1,-1,0
466680,341,-8305,332,-1,1,-1,0
466685,329,-8306,332,-1,1,-1,0
466690,307,-8309,333,-1,2,-1,0
466695,286,-8307,339,-1,2,-1,0
466700,265,-8305,348,-1,2,-1,0
466705,244,-8304,363,-2,3,-1,0
466710,225,-8303,379,-2,2,-1,0
466715,203,-8304,399,-2,2,-1,0
466720,182,-8306,415,-2,2,-1,0
466725,169,-8306,430,-2,2,-1,0
466730,156,-8307,436,-2,1,-1,0
466735,147,-8309,434,-2,2,-1,0
466740,141,-8309,428,-2,2,-1,0
466745,140,-8308,417,-2,2,-1,0
466750,147,-8309,408,-2,2,-1,0
466755,163,-8309,402,-2,2,-1,0
466760,173,-8308,392,-2,1,-2,0
466765,184,-8306,387,-2,0,-2,0
466770,198,-8306,383,-2,0,-2,0
466775,210,-8307,379,-2,0,-2,0
466780,218,-8307,372,-2,-1,-2,0
466785,222,-8312,364,-3,-1,-2,0
466790,225,-8312,356,-3,0,-2,0
466795,225,-8312,347,-3,0,-2,0
466800,228,-8309,336,-3,1,-2,0
466805,236,-8309,320,-3,1,-2,0
466810,247,-8307,306,-3,1,-2,0
466815,262,-8310,290,-3,2,-2,0
466820,283,-8310,270,-3,2,-2,0
466825,303,-8308,243,-3,1,-2,0
466830,324,-8308,212,-3,1,-2,0
466835,340,-8307,177,-3,-1,-2,0
466840,347,-8306,134,-3,-2,-2,0
466845,352,-8305,90,-2,-2,-2,0
466850,355,-8304,51,-2,-1,-2,0
466855,368,-8306,12,-2,-1,-2,0
466860,385,-8306,-28,-2,-1,-2,0
466865,406,-8306,-60,-2,-2,-2,0
466870,426,-8306,-91,-2,-2,-2,0
466875,450,-8307,-120,-2,-1,-2,0
466880,476,-8304,-142,-2,-1,-1,0
466885,495,-8300,-159,-2,-2,-1,0
466890,506,-8298,-192,-1,-2,-1,0
466895,510,-8300,-195,-1,-2,-1,0
466900,519,-8304,-236,-1,-1,-1,0
466905,525,-8307,-269,-1,-2,-1,0
466910,519,-8306,-286,-1,-2,-1,0
466915,520,-8306,-324,-1,-2,-1,0
466920,528,-8305,-333,-1,-2,-1,0
466925,541,-8305,-344,0,-2,-1,0
466930,555,-8302,-351,0,-2,-1,0
466935,573,-8303,-344,0,-2,-1,0
466940,592,-8301,-332,0,-2,-1,0
466945,608,-8302,-311,0,-2,-1,0
466950,615,-8305,-291,0,-3,-1,0
466955,610,-8309,-272,0,-3,-1,0
466960,593,-8310,-240,0,-3,-1,0
466965,569,-8311,-217,0,-3,-1,0
466970,542,-8307,-196,1,-3,-1,0
466975,512,-8305,-173,1,-3,-1,0
466980,488,-8305,-160,1,-4,0,0
466985,469,-8308,-149,1,-4,0,0
466990,454,-8305,-143,1,-4,0,0
466995,449,-8303,-133,1,-4,0,0
467000,442,-8305,-125,1,-4,-1,0
467005,441,-8303,-119,1,-4,-1,0
467010,443,-8304,-116,1,-4,0,0
467015,441,-8307,-107,1,-5,-1,0
467020,434,-8309,-99,1,-6,-1,0
467025,426,-8309,-90,1,-7,-1,0
467030,407,-8309,-71,1,-8,-1,0
467035,387,-8309,-50,1,-8,-1,0
467040,368,-8311,-31,1,-8,-1,0
467045,354,-8307,-10,1,-7,-1,0
467050,341,-8307,17,1,-6,-1,0
467055,333,-8307,42,1,-5,-1,0
467060,331,-8306,72,1,-5,-1,0
467065,335,-8302,102,1,-4,-1,0
467070,337,-8301,136,1,-4,-1,0
467075,339,-8299,163,1,-4,-1,0
467080,343,-8301,183,1,-4,-1,0
467085,346,-8301,201,1,-5,-1,0
467090,344,-8304,207,1,-5,-1,0
467095,344,-8307,205,1,-5,-1,0
467100,347,-8305,202,1,-5,-1,0
467105,354,-8305,196,1,-5,-1,0
467110,366,-8305,194,1,-5,-1,0
467115,381,-8302,189,1,-5,-1,0
467120,400,-8300,194,1,-5,-1,0
467125,422,-8299,201,1,-5,-1,0
467130,436,-8298,199,1,-6,-1,0
467135,447,-8299,196,1,-6,-1,0
467140,459,-8301,198,1,-6,-1,0
467145,470,-8303,207,1,-5,-1,0
467150,481,-8305,213,1,-5,-1,0
467155,494,-8305,225,1,-5,0,0
467160,505,-8302,238,1,-5,0,0
467165,515,-8302,259,1,-5,0,0
467171,524,-8302,280,1,-5,0,0
467175,531,-8301,296,1,-5,0,0
467180,529,-8301,311,1,-4,0,0
467186,525,-8300,327,1,-3,0,0
467190,515,-8300,337,1,-3,0,0
467195,507,-8303,350,1,-2,0,0
467201,498,-8303,351,1,-1,0,0
467206,487,-8301,350,1,-1,0,0
467210,484,-8300,341,0,0,0,0
467215,481,-8298,327,0,0,0,0
467220,474,-8297,312,1,0,0,0
467225,473,-8298,299,0,0,0,0
467230,471,-8298,287,0,0,0,0
467235,464,-8298,278,0,-1,0,0
467241,457,-8303,275,0,-1,0,0
467246,442,-8307,285,0,-1,0,0
467251,426,-8306,298,0,-2,0,0
467256,409,-8302,310,0,-2,0,0
467260,393,-8301,322,0,-2,0,0
467265,379,-8297,333,0,-2,0,0
467271,367,-8296,338,0,-2,0,0
467275,359,-8297,342,0,-1,0,0
467280,355,-8296,349,0,-1,0,0
467286,353,-8298,353,0,-1,0,0
467291,345,-8297,362,0,0,0,0
467295,337,-8296,380,0,0,0,0
467300,332,-8297,396,0,0,0,0
467305,326,-8299,409,0,-1,0,0
467311,316,-8302,415,0,-1,0,0
467316,306,-8305,416,0,-1,0,0
467320,298,-8305,414,0,-1,0,0
467325,292,-8305,412,0,-1,0,0
467331,288,-8305,408,-1,0,0,0
467336,286,-8304,401,-1,0,0,0
467341,286,-8303,401,-1,0,-1,0
467346,282,-8299,398,-1,0,-1,0
467350,283,-8299,399,-1,0,-1,0
467355,286,-8302,398,-1,-1,-1,0
467361,288,-8305,385,-1,-1,-1,0
467365,290,-8305,365,-1,-1,-1,0
467371,291,-8305,347,-1,-1,-1,0
467376,296,-8305,320,-1,0,-1,0
467381,301,-8305,299,-1,0,-1,0
467385,305,-8306,285,-1,1,-1,0
467390,310,-8308,274,-1,1,-1,0
467395,315,-8310,256,-1,1,-1,0
467400,317,-8311,242,-1,1,-1,0
467405,319,-8314,230,-1,1,-1,0
467411,324,-8313,222,-1,1,-1,0
467416,326,-8310,217,-1,1,-1,0
467420,324,-8308,217,-1,1,-1,0
467425,322,-8307,222,-1,1,-1,0
467431,325,-8305,233,-1,1,-1,0
467436,328,-8302,244,-1,1,-1,0
467441,330,-8299,248,-1,1,-1,0
467446,330,-8297,251,-1,1,-1,0
467451,334,-8297,246,-1,2,-1,0
467456,336,-8300,242,-1,2,-1,0
467460,343,-8297,235,-1,2,-1,0
467466,356,-8295,233,-1,2,-1,0
467471,367,-8292,230,-1,2,-1,0
467476,380,-8292,230,-1,1,-1,0
467481,394,-8290,230,-1,1,-1,0
467486,411,-8293,235,-1,1,-1,0
467491,427,-8294,237,-1,1,-1,0
467496,438,-8296,235,-1,0,-1,0
467501,449,-8295,226,-1,0,-1,0
467506,461,-8294,221,-1,0,-1,0
467511,473,-8295,212,-1,0,-1,0
467516,485,-8295,202,-1,1,-1,0
467521,497,-8298,195,-1,1,-1,0
467526,506,-8302,185,-1,1,-1,0
467531,511,-8299,180,-1,1,-1,0
467536,516,-8299,176,-1,1,-1,0
467541,516,-8299,172,-1,1,-1,0
467546,518,-8299,174,-1,2,-1,0
467551,519,-8297,175,-1,1,-1,0
467556,519,-8298,176,-1,1,0,0
467561,518,-8297,176,-1,1,0,0
467566,514,-8299,173,-1,1,0,0
467571,506,-8302,176,-1,1,0,0
467576,501,-8302,172,-1,1,0,0
467581,497,-8302,168,-1,1,0,0
467586,497,-8300,165,-1,1,0,0
467591,501,-8301,165,-1,1,0,0
467596,504,-8302,167,-1,1,0,0
467601,502,-8300,173,-1,1,0,0
467606,501,-8298,179,-1,1,0,0
467611,496,-8298,187,-1,1,0,0
467616,485,-8300,192,-1,1,0,0
467621,471,-8304,190,-1,1,0,0
467626,451,-8306,186,-1,1,0,0
467631,435,-8308,183,-1,1,0,0
467636,417,-8307,171,-1,2,0,0
467641,392,-8308,158,-1,2,0,0
467646,380,-8306,154,-1,3,0,0
467651,384,-8306,148,-1,3,0,0
467656,387,-8305,143,-1,2,0,0
467661,389,-8306,140,-1,2,0,0
467666,395,-8306,142,-1,1,0,0
467671,398,-8304,147,-1,1,0,0
467676,398,-8302,154,-1,1,0,0
467681,399,-8303,164,-1,1,0,0
467686,394,-8307,181,-1,1,0,0
467691,385,-8309,199,-1,0,0,0
467696,372,-8307,217,-1,0,0,0
467701,364,-8308,242,-1,0,0,0
467706,362,-8307,256,-1,0,0,0
467711,364,-8305,272,-1,0,0,0
467716,366,-8305,283,-1,0,0,0
467721,368,-8300,285,-1,0,0,0
467726,376,-8298,282,-1,0,0,0
467731,381,-8298,271,-1,0,0,0
467736,378,-8299,254,-1,0,0,0
467741,363,-8301,240,-1,0,-1,0
467746,348,-8303,226,-1,1,0,0
467751,332,-8305,213,-1,1,0,0
467756,322,-8307,212,-1,1,0,0
467761,318,-8306,214,-1,0,0,0
467766,315,-8306,219,-1,0,0,0
467771,317,-8305,220,-1,0,0,0
467776,327,-8304,220,-1,0,0,0
467781,337,-8302,222,-1,-1,0,0
467786,346,-8302,215,-1,-1,0,0
467791,351,-8300,207,-1,-1,0,0
467796,354,-8301,198,-1,0,-1,0
467801,351,-8303,189,-1,0,-1,0
467806,347,-8304,182,-1,0,-1,0
467811,346,-8303,182,-1,0,-1,0
467816,346,-8302,183,-1,0,-1,0
467821,351,-8306,183,-1,0,0,0
467826,359,-8308,190,-1,0,-1,0
467831,367,-8309,199,-1,0,-1,0
467836,376,-8309,204,-1,0,-1,0
467841,387,-8310,204,-1,0,-1,0
467846,392,-8308,207,-1,0,-1,0
467851,393,-8308,209,-1,0,-1,0
467856,386,-8307,202,-1,0,-1,0
467861,378,-8309,198,-1,0,-1,0
467866,372,-8309,188,-1,0,-1,0
467871,368,-8307,181,-1,0,-1,0
467876,366,-8306,172,-1,0,-1,0
467881,368,-8308,169,-1,0,-1,0
467886,376,-8306,172,-1,0,-1,0
467891,384,-8308,169,-1,0,-1,0
467896,398,-8310,160,-1,0,-1,0
467901,412,-8309,163,-1,0,-1,0
467906,418,-8309,168,-1,0,-1,0
467911,422,-8307,169,-1,0,-1,0
467916,421,-8306,178,-1,0,-1,0
467921,419,-8302,178,-1,0,-1,0
467926,416,-8301,176,-1,0,-1,0
467931,416,-8299,178,-1,1,-1,0
467936,420,-8300,179,-1,1,0,0
467941,421,-8301,178,-1,1,0,0
467946,424,-8303,182,-1,1,0,0
467951,430,-8302,185,-1,1,0,0
467956,431,-8299,182,-1,1,0,0
467961,431,-8299,180,-1,1,0,0
467966,428,-8299,171,-1,1,0,0
467971,422,-8298,168,-1,0,0,0
467976,414,-8297,172,-1,0,0,0
467981,410,-8298,174,-1,0,0,0
467986,407,-8301,174,-1,0,0,0
467991,404,-8302,178,-1,0,0,0
467996,404,-8304,180,-1,0,0,0
468001,413,-8304,187,-1,0,0,0
468006,423,-8302,192,-1,0,0,0
468011,433,-8298,191,-1,0,0,0
468016,442,-8297,193,-1,0,0,0
468021,446,-8298,200,-1,0,0,0
468026,447,-8300,204,-1,0,0,0
468031,446,-8302,202,-1,0,0,0
468036,441,-8301,204,-1,0,0,0
468041,431,-8298,203,-1,0,0,0
468046,423,-8298,200,-1,1,0,0
468051,413,-8297,203,-1,1,0,0
468056,403,-8298,202,-1,1,0,0
468061,399,-8300,203,-1,1,0,0
468066,398,-8298,200,-1,1,0,0
468071,401,-8301,193,-1,1,0,0
468076,405,-8301,188,-1,0,0,0
468081,408,-8304,195,-1,0,0,0
468086,409,-8305,189,-1,0,0,0
468091,410,-8304,180,-1,0,0,0
468096,413,-8306,171,-1,0,0,0
468101,411,-8305,162,-1,0,0,0
468106,408,-8304,153,-1,0,0,0
468111,401,-8304,151,-1,-1,0,0
468116,389,-8306,149,-1,-1,0,0
468121,374,-8305,149,-1,0,0,0
468126,363,-8303,147,-1,0,0,0
468131,351,-8304,144,-1,0,0,0
468136,343,-8304,144,-1,0,0,0
468141,339,-8306,140,-1,0,0,0
468146,341,-8306,133,-1,0,0,0
468151,344,-8303,127,-1,0,0,0
468156,349,-8301,118,-1,0,0,0
468161,353,-8303,105,-1,0,0,0
468166,356,-8302,93,-1,0,0,0
468171,361,-8305,93,-1,0,0,0
468176,365,-8306,91,-1,-1,0,0
468181,362,-8303,94,-1,-1,0,0
468186,361,-8302,99,-1,-1,0,0
468191,361,-8302,107,-1,0,0,0
468196,362,-8301,117,-1,0,-1,0
468201,360,-8301,127,-1,0,-1,0
468206,361,-8301,134,-1,0,0,0
468211,359,-8304,139,-1,1,-1,0
468216,357,-8303,149,-1,1,-1,0
468221,355,-8307,154,-1,1,-1,0
468226,350,-8310,152,-1,1,-1,0
468231,348,-8308,152,0,1,0,0
468236,344,-8309,148,0,1,-1,0
468241,345,-8311,140,0,1,-1,0
468246,347,-8310,132,-1,1,-1,0
468251,352,-8312,124,-1,1,-1,0
468256,356,-8310,122,-1,2,0,0
468261,361,-8312,124,-1,2,-1,0
468266,367,-8314,129,0,1,-1,0
468271,373,-8316,141,0,1,-1,0
468276,377,-8315,153,-1,1,-1,0
468281,374,-8316,169,-1,1,-1,0
468286,370,-8313,190,-1,1,-1,0
468291,368,-8313,210,-1,1,-1,0
468296,364,-8308,228,-1,1,-1,0
468301,360,-8305,242,-1,1,-1,0
468306,359,-8303,256,-1,1,-1,0
468311,361,-8300,267,-1,1,-1,0
468316,364,-8299,274,-1,1,-1,0
468321,367,-8298,275,-1,1,-1,0
468326,373,-8300,262,-1,1,-1,0
468331,375,-8303,246,-1,1,-1,0
468336,376,-8304,232,-1,1,-1,0
468341,378,-8307,212,-1,1,-1,0
468346,379,-8308,195,-1,1,-1,0
468351,377,-8310,180,-1,1,-1,0
468356,379,-8311,170,-1,0,-1,0
468361,377,-8311,163,-1,0,-1,0
468366,376,-8310,157,-1,0,-1,0
468371,376,-8312,151,-1,0,-1,0
468376,378,-8313,154,-1,0,-1,0
468381,380,-8311,154,-1,0,-1,0
468386,381,-8307,157,-1,0,-1,0
468391,387,-8304,163,-1,0,-1,0
468396,388,-8304,168,-1,0,-1,0
468401,390,-8301,168,-1,0,-1,0
468406,391,-8297,161,-1,0,-1,0
468411,392,-8299,154,-1,0,-1,0
468416,395,-8301,144,-1,0,-1,0
468421,395,-8299,134,-1,0,-1,0
468426,395,-8300,117,-1,0,-1,0
468431,392,-8300,106,-1,0,-1,0
468436,392,-8301,100,-1,0,-1,0
468441,394,-8302,95,-1,0,-1,0
468446,398,-8303,97,-1,0,-1,0
468451,398,-8304,101,-1,-1,-1,0
468456,400,-8301,113,-1,-1,-1,0
468461,401,-8300,120,-1,0,-1,0
468466,400,-8297,136,-1,0,-1,0
468471,399,-8296,145,-1,0,-1,0
468476,397,-8298,154,-1,0,-1,0
468481,397,-8300,159,-1,0,-1,0
468486,395,-8299,161,-1,0,-1,0
468491,397,-8300,165,-1,0,-1,0
468496,399,-8299,159,-1,0,-1,0
468501,400,-8297,159,-1,0,0,0
468506,404,-8297,159,-1,0,-1,0
468511,408,-8298,160,-1,0,-1,0
468516,412,-8302,158,-1,-1,-1,0
468521,412,-8305,159,-1,-1,-1,0
468526,409,-8304,160,-1,-1,-1,0
468531,407,-8306,160,-1,-1,-1,0
468536,406,-8310,156,-1,-1,-1,0
468541,404,-8312,160,-1,-1,-1,0
468546,402,-8311,156,-1,0,-1,0
468551,403,-8309,157,-1,0,-1,0
468556,400,-8308,150,-1,-1,-1,0
468561,399,-8304,142,-1,0,-1,0
468566,395,-8302,134,-1,0,-1,0
468571,392,-8299,128,-1,0,-1,0
468576,386,-8298,119,-1,0,-1,0
468581,384,-8299,114,-1,0,-1,0
468586,381,-8300,114,-1,0,-1,0
468591,378,-8300,121,-1,0,-1,0
468596,379,-8299,134,-1,0,-1,0
468601,381,-8299,150,-1,0,-1,0
468606,382,-8300,171,-1,-1,-1,0
468611,388,-8301,185,-1,-1,-1,0
468616,392,-8303,195,-1,-1,0,0
468621,397,-8303,202,-1,-1,-1,0
468626,402,-8304,208,-1,-1,-1,0
468631,407,-8306,202,-1,-1,-1,0
468636,408,-8307,196,-1,-1,-1,0
468641,412,-8306,193,-1,-1,-1,0
468646,411,-8306,189,-1,-1,-1,0
468651,409,-8304,185,-1,-1,-1,0
468656,404,-8303,183,-1,-1,-1,0
468661,401,-8301,181,-1,-1,-1,0
468666,397,-8299,181,-1,0,-1,0
468671,398,-8299,182,-1,0,-1,0
468676,400,-8301,181,-1,-1,-1,0
468681,397,-8301,177,-1,-1,-1,0
468686,396,-8302,171,-1,0,-1,0
468691,400,-8302,160,-1,0,-1,0
468696,404,-8303,149,-1,0,0,0
468701,409,-8305,136,-1,0,-1,0
468706,411,-8305,122,-1,-1,0,0
468711,416,-8305,109,-1,-1,0,0
468716,420,-8305,102,-1,0,0,0
468721,422,-8306,94,-1,0,0,0
468726,420,-8308,92,-1,0,0,0
468731,422,-8310,90,-1,-1,0,0
468736,420,-8311,90,-1,-1,0,0
468741,419,-8314,93,-1,0,0,0
468746,420,-8310,100,-1,0,0,0
468751,418,-8308,109,-1,0,0,0
468756,420,-8307,121,-1,0,0,0
468761,424,-8306,123,-1,0,0,0
468766,424,-8307,125,-1,-1,0,0
468771,421,-8307,127,0,-1,0,0
468776,421,-8308,123,0,-1,0,0
468781,422,-8305,107,0,-1,0,0
468786,425,-8304,90,0,-1,0,0
468791,424,-8303,75,0,-1,0,0
468796,420,-8306,63,0,-1,0,0
468801,420,-8308,57,0,-1,0,0
468806,419,-8310,56,0,-1,0,0
468811,415,-8310,57,0,-1,0,0
468816,408,-8310,65,0,-1,0,0
468821,403,-8309,80,0,-1,0,0
468826,396,-8309,99,0,-1,0,0
468831,391,-8307,114,0,-1,0,0
468836,390,-8302,130,0,-1,0,0
468841,390,-8300,150,0,-1,0,0
468846,392,-8301,160,0,-1,0,0
468851,400,-8302,163,0,0,0,0
468856,408,-8302,162,0,-1,0,0
468861,413,-8303,156,0,-1,0,0
468866,416,-8305,150,0,0,0,0
468871,417,-8307,140,0,0,0,0
468876,418,-8306,138,0,0,0,0
468881,419,-8308,143,0,0,0,0
468886,411,-8310,152,0,-1,0,0
468891,402,-8310,164,-1,-1,0,0
468896,395,-8309,179,-1,-1,0,0
468901,391,-8309,195,-1,-1,0,0
468906,390,-8310,209,-1,-1,0,0
468911,387,-8310,212,-1,-1,0,0
468916,385,-8310,217,-1,-1,0,0
468921,385,-8308,217,-1,-1,0,0
468926,388,-8309,214,-1,-1,0,0
468931,392,-8309,201,-1,-1,0,0
468936,394,-8307,189,-1,-1,0,0
468941,401,-8305,171,-1,-1,0,0
468946,407,-8305,163,-1,-1,0,0
468951,409,-8306,159,-1,-1,0,0
468956,409,-8309,161,-1,-1,0,0
468961,406,-8307,165,-1,-1,0,0
468966,402,-8306,169,-1,-1,0,0
468971,403,-8307,169,-1,0,0,0
468976,402,-8305,169,-1,0,0,0
468981,400,-8304,166,-1,-1,0,0
468986,397,-8306,157,-1,-1,0,0
468991,395,-8309,146,-1,0,0,0
468996,394,-8310,134,-1,0,0,0
469001,390,-8309,120,-1,-1,0,0
469006,389,-8307,111,-1,-1,0,0
469011,394,-8307,106,-1,-1,0,0
469016,396,-8304,102,-1,-1,0,0
469021,398,-8303,104,-1,-1,0,0
469026,395,-8300,110,-1,-1,0,0
469031,395,-8301,116,-1,-1,0,0
469036,392,-8302,125,-1,-1,0,0
469041,389,-8301,132,-1,-1,0,0
469046,383,-8302,138,-1,-1,0,0
469051,378,-8303,135,-1,-1,0,0
469056,376,-8304,133,-1,-1,0,0
469061,374,-8307,128,-1,-1,0,0
469066,371,-8308,129,-1,0,0,0
469071,375,-8308,127,-1,0,0,0
469076,377,-8308,123,-1,0,0,0
469081,376,-8310,128,-1,0,0,0
469086,374,-8311,135,-1,0,0,0
469091,375,-8309,145,-1,0,0,0
469096,372,-8305,156,-1,0,-1,0
469101,369,-8303,169,-1,-1,-1,0
469106,364,-8303,182,-1,-1,0,0
469111,359,-8303,189,-1,-1,0,0
469116,359,-8306,197,-1,0,-1,0
469121,362,-8308,198,-1,0,-1,0
469126,365,-8307,198,-1,0,-1,0
469131,369,-8308,189,-1,-1,0,0
469136,369,-8309,176,-1,-1,-1,0
469141,372,-8309,163,-1,-1,-1,0
469146,377,-8308,154,-1,-1,-1,0
469151,380,-8308,139,-1,-1,0,0
469156,383,-8308,125,-1,-1,-1,0
469161,384,-8308,118,-1,-1,-1,0
469166,385,-8305,116,-1,-1,-1,0
469171,391,-8305,114,-1,-1,-1,0
469176,395,-8307,123,-1,-1,0,0
469181,400,-8307,121,-1,-1,0,0
469186,403,-8309,122,-1,-1,0,0
469191,405,-8311,131,-1,0,0,0
469196,405,-8314,139,-1,0,0,0
469201,406,-8313,141,-1,0,-1,0
469206,406,-8311,137,-1,0,0,0
469211,407,-8309,132,-1,0,0,0
469216,407,-8306,129,-1,0,0,0
469221,408,-8304,117,-1,0,-1,0
469226,405,-8306,109,-1,0,0,0
469232,405,-8309,97,-1,0,0,0
469236,409,-8308,92,-1,-1,0,0
469241,410,-8307,94,-1,-1,0,0
469246,405,-8308,93,-1,-1,0,0
469251,402,-8308,98,-1,-1,0,0
469256,401,-8310,106,-1,-1,0,0
469261,399,-8309,113,-1,-1,0,0
469266,396,-8309,116,-1,-1,0,0
469271,388,-8307,121,-1,-1,0,0
469276,386,-8307,122,-1,-1,-1,0
469281,387,-8304,119,-1,-1,0,0
469287,391,-8304,121,-1,0,0,0
469291,394,-8304,120,-1,0,0,0
469296,399,-8300,123,-1,0,0,0
469302,404,-8296,125,-1,0,0,0
469306,411,-8292,130,-1,-1,0,0
469312,415,-8294,138,-1,-1,0,0
469317,418,-8296,137,-1,-1,0,0
469322,417,-8300,141,-1,-1,0,0
469326,418,-8303,142,-1,-1,0,0
469331,420,-8303,146,-1,-1,0,0
469336,421,-8302,146,-1,-1,0,0
469341,420,-8302,148,-1,-1,0,0
469346,419,-8303,151,-1,-1,0,0
469352,418,-8303,149,-1,-1,0,0
469356,417,-8304,150,-1,-1,0,0
469361,414,-8305,150,-1,-1,0,0
469366,412,-8302,155,-1,-1,0,0
469371,405,-8302,160,-1,-1,0,0
469376,396,-8300,164,-1,-1,0,0
469382,388,-8304,167,-1,-1,0,0
469386,381,-8308,168,-1,-1,0,0
469392,374,-8312,165,-1,-1,0,0
469397,368,-8313,162,-1,-1,0,0
469402,366,-8313,164,-1,-1,0,0
469407,365,-8311,153,-1,0,0,0
469411,361,-8312,146,-1,0,0,0
469416,364,-8312,137,-1,0,0,0
469422,370,-8311,129,-1,0,0,0
469426,375,-8313,124,-1,0,-1,0
469432,377,-8312,120,-1,0,0,0
469437,378,-8314,117,-1,0,-1,0
469442,379,-8313,113,-1,-1,0,0
469447,376,-8310,116,-1,-1,-1,0
469452,375,-8307,125,-1,-1,-1,0
469457,372,-8306,138,-1,-1,-1,0
469462,367,-8305,150,-1,-1,0,0
469467,367,-8304,155,-1,0,0,0
469472,368,-8305,161,-1,0,-1,0
469477,374,-8307,161,-1,0,0,0
469482,380,-8310,157,-1,0,-1,0
469487,382,-8309,148,-1,0,0,0
469492,390,-8306,139,-1,0,0,0
469497,396,-8307,132,-1,0,0,0
469502,403,-8304,128,-1,0,0,0
469507,406,-8304,125,-1,0,-1,0
469512,409,-8306,123,-1,-1,0,0
469517,408,-8305,122,-1,-1,-1,0
469522,406,-8309,117,-1,-1,0,0
469527,408,-8309,118,-1,0,0,0
469532,413,-8311,129,-1,0,0,0
469537,420,-8312,130,-1,0,0,0
469542,428,-8309,129,-1,-1,0,0
469547,431,-8306,125,-1,-1,0,0
469552,433,-8300,121,-1,-1,0,0
469557,431,-8298,117,-1,-1,0,0
469562,428,-8298,103,-1,-1,0,0
469567,423,-8299,93,-1,-1,0,0
469572,412,-8303,89,-1,-1,0,0
469577,407,-8306,87,-1,0,0,0
469582,403,-8310,90,-1,0,0,0
469587,401,-8311,102,-1,0,0,0
469592,401,-8310,111,-1,0,0,0
469597,401,-8308,121,-1,-1,0,0
469602,401,-8306,136,-1,0,0,0
469607,400,-8306,147,-1,0,0,0
469612,401,-8305,149,-1,0,0,0
469617,401,-8306,147,-1,0,0,0
469622,399,-8308,142,-1,0,0,0
469627,397,-8308,131,-1,0,0,0
469632,396,-8309,119,-1,0,0,0
469637,392,-8306,105,-1,0,0,0
469642,394,-8307,94,-1,0,0,0
469647,395,-8310,89,-1,-1,0,0
469652,397,-8313,83,-1,-1,0,0
469657,399,-8310,86,-1,-1,0,0
469662,396,-8309,87,-1,-1,0,0
469667,396,-8306,90,-1,-1,0,0
469672,394,-8305,82,-1,-1,0,0
469677,389,-8302,79,-1,-1,0,0
469682,385,-8300,71,-1,-1,0,0
469687,385,-8301,64,-1,-1,0,0
469692,386,-8304,55,-1,-1,0,0
469697,390,-8304,49,-1,-1,0,0
469702,393,-8305,44,-1,-1,0,0
469707,396,-8306,42,-1,-1,0,0
469712,396,-8309,43,-1,-1,0,0
469717,397,-8310,47,-1,-1,0,0
469722,397,-8306,54,0,-1,0,0
469727,400,-8303,58,0,-1,0,0
469732,400,-8302,62,0,-1,0,0
469737,401,-8303,66,0,-1,0,0
469742,406,-8302,67,0,-1,0,0
469747,409,-8304,69,0,-1,0,0
469752,412,-8302,64,0,-1,0,0
469757,414,-8302,54,0,-1,0,0
469762,413,-8301,52,0,-1,0,0
469767,412,-8299,51,0,-1,0,0
469772,411,-8298,49,0,-1,0,0
469777,413,-8296,52,0,-1,0,0
469782,413,-8297,49,0,-1,0,0
469787,411,-8297,44,0,-1,0,0
469792,414,-8295,36,0,-1,0,0
469797,417,-8296,29,0,-1,0,0
469802,422,-8299,24,0,-1,0,0
469807,432,-8299,14,0,-1,0,7
469812,439,-8300,4,0,-1,0,7
469817,450,-8299,-4,0,-1,0,7
469822,461,-8302,-12,0,-2,0,7
469827,469,-8300,-16,0,-2,0,7
469832,475,-8298,-19,0,-2,0,7
469837,478,-8294,-18,0,-2,0,7
469842,478,-8293,-13,0,-2,0,7
469847,479,-8291,-10,0,-2,0,7
469852,481,-8291,-2,0,-2,0,7
469857,479,-8292,-2,0,-2,0,7
469862,479,-8290,-7,1,-2,0,7
469867,483,-8292,-21,1,-2,0,7
469872,485,-8293,-38,1,-2,0,7
469877,487,-8295,-60,1,-2,0,7
469882,490,-8295,-85,1,-2,0,7
469887,490,-8298,-107,1,-2,0,7
469892,488,-8299,-130,1,-2,0,7
469897,487,-8297,-157,1,-2,0,7
469902,482,-8297,-178,1,-3,0,7
469907,470,-8294,-192,1,-4,0,7
469912,459,-8293,-201,1,-5,1,7
469917,448,-8293,-213,2,-6,0,7
469922,435,-8295,-212,2,-6,0,7
469927,420,-8296,-213,2,-7,0,7
469932,399,-8297,-210,2,-7,0,7
469937,372,-8299,-197,2,-7,0,7
469942,339,-8300,-180,2,-7,0,7
469947,299,-8300,-157,2,-7,0,7
469952,253,-8298,-135,2,-7,0,7
469957,207,-8300,-109,2,-7,0,7
469962,158,-8302,-81,2,-8,0,7
469967,102,-8302,-56,2,-8,0,7
469972,48,-8302,-36,2,-9,-1,7
469977,-20,-8303,-17,2,-10,-1,7
469982,-102,-8303,-3,2,-10,-1,7
469987,-192,-8303,10,2,-9,-1,7
469992,-287,-8306,10,3,-8,-2,7
469997,-387,-8309,9,3,-6,-2,7
470002,-491,-8310,1,3,-6,-3,7
470007,-601,-8310,-18,3,-5,-3,7
470012,-707,-8310,-44,3,-4,-3,7
470017,-804,-8309,-77,3,-2,-4,7
470022,-894,-8312,-115,3,-1,-4,7
470027,-974,-8315,-144,3,-1,-5,7
470032,-1056,-8318,-168,3,-1,-5,7
470037,-1149,-8320,-183,3,-2,-6,7
470042,-1250,-8320,-189,3,-1,-7,7
470047,-1354,-8321,-182,3,-1,-7,7
470052,-1465,-8321,-172,4,-1,-8,7
470057,-1582,-8321,-163,4,-2,-9,7
470062,-1705,-8319,-153,4,-2,-10,7
470067,-1827,-8317,-150,4,-2,-11,7
470072,-1951,-8317,-146,4,-2,-11,7
470077,-2080,-8313,-138,4,-2,-12,7
470082,-2215,-8312,-118,4,-3,-13,7
470087,-2355,-8307,-82,4,-4,-14,7
470092,-2499,-8300,-26,4,-5,-16,7
470097,-2651,-8292,48,4,-5,-17,7
470102,-2803,-8282,144,4,-4,-18,7
470107,-2935,-8273,262,3,-2,-19,7
470112,-3035,-8265,410,3,-1,-20,7
470117,-3108,-8254,576,3,0,-21,7
470122,-3152,-8240,761,2,0,-22,7
470127,-3170,-8225,958,2,2,-23,7
470132,-3154,-8211,1170,1,4,-24,7
470137,-3099,-8196,1391,1,7,-25,7
470142,-3002,-8179,1611,0,10,-26,7
470147,-2884,-8164,1817,0,12,-27,7
470152,-2749,-8150,2004,-1,17,-28,7
470157,-2570,-8146,2172,-2,23,-29,7
470162,-2331,-8136,2311,-2,26,-30,7
470167,-2091,-8122,2411,-3,27,-30,7
470172,-1863,-8104,2505,-4,31,-31,7
470177,-1634,-8081,2615,-5,33,-31,7
470182,-1393,-8060,2751,-6,33,-31,7
470187,-1137,-8037,2914,-7,30,-32,7
470192,-858,-8017,3088,-8,27,-31,7
470197,-569,-7997,3227,-10,24,-30,7
470202,-273,-7976,3314,-11,20,-29,7
470207,40,-7960,3368,-12,17,-28,7
470212,324,-7936,3358,-13,15,-27,7
470217,636,-7915,3373,-13,14,-26,7
470222,1084,-7889,3440,-13,15,-26,7
470227,1499,-7879,3616,-14,16,-27,7
470232,1765,-7859,3768,-15,7,-29,7
470237,2682,-7876,3822,-16,5,-28,7
470242,3614,-7876,3886,-17,23,-22,7
470247,4278,-7848,3965,-18,18,-19,7
470252,4870,-7826,4019,-18,11,-19,7
470257,5529,-7819,4012,-19,18,-19,7
470262,6083,-7820,3933,-20,23,-19,7
470267,6365,-7817,3798,-21,22,-18,7
470272,6486,-7823,3613,-21,20,-17,7
470277,6548,-7838,3387,-22,20,-15,7
470282,6511,-7851,3163,-22,18,-12,7
470287,6442,-7859,2965,-23,16,-10,7
470292,6474,-7863,2762,-23,14,-7,7
470297,6624,-7864,2575,-24,13,-5,7
470302,6846,-7861,2396,-24,11,-2,7
470307,7107,-7858,2234,-24,10,-1,7
470312,7369,-7850,2095,-24,12,1,7
470317,7598,-7840,1962,-24,15,2,7
470322,7733,-7837,1851,-24,16,3,7
470327,7797,-7837,1669,-25,15,4,7
470332,7790,-7837,1354,-26,15,5,7
470337,7640,-7837,1066,-26,17,7,7
470342,7403,-7837,831,-27,19,8,7
470347,7142,-7837,610,-28,21,10,7
470352,6896,-7827,415,-28,23,12,7
470357,6692,-7822,271,-28,24,14,7
470362,6552,-7814,158,-28,22,16,7
470367,6509,-7798,11,-27,21,18,7
470372,6534,-7783,-195,-27,19,19,7
470377,6564,-7773,-389,-26,15,20,7
470382,6580,-7763,-574,-26,12,21,7
470387,6553,-7743,-769,-27,9,22,7
470392,6414,-7732,-1029,-26,6,23,7
470397,6161,-7717,-1200,-25,1,23,7
470402,5896,-7707,-1354,-24,-1,24,7
470407,5609,-7699,-1539,-24,-3,25,7
470412,5257,-7690,-1705,-23,-5,27,7
470417,4924,-7685,-1893,-23,-4,28,7
470422,4643,-7680,-2065,-22,0,29,7
470427,4403,-7676,-2211,-22,3,30,7
470432,4213,-7667,-2368,-21,7,31,7
470437,4058,-7658,-2526,-20,9,31,7
470442,3948,-7650,-2680,-19,9,32,7
470447,3845,-7646,-2844,-18,8,32,7
470452,3728,-7645,-3003,-18,7,33,7
470457,3605,-7642,-3142,-17,6,33,7
470462,3479,-7640,-3251,-16,6,33,7
470467,3283,-7633,-3403,-15,6,34,7
470472,3036,-7630,-3552,-14,5,34,7
470477,2835,-7631,-3703,-12,5,34,7
470482,2675,-7631,-3917,-11,3,34,7
470487,2503,-7633,-4153,-10,0,35,7
470492,2346,-7636,-4420,-9,-2,36,7
470497,2246,-7641,-4670,-8,-3,36,7
470502,2156,-7641,-4867,-7,-5,36,7
470507,2049,-7638,-5005,-6,-8,36,7
470512,1933,-7634,-5070,-5,-10,36,7
470517,1806,-7631,-5081,-3,-11,35,7
470522,1632,-7627,-5066,-2,-12,35,7
470527,1410,-7623,-5048,0,-11,34,7
470532,1182,-7621,-5060,1,-9,33,7
470537,933,-7629,-5104,3,-5,33,7
470542,619,-7634,-5187,4,-2,33,7
470547,228,-7643,-5278,5,-1,33,7
470552,-185,-7650,-5377,6,1,34,7
470557,-522,-7654,-5321,8,5,34,7
470562,-809,-7660,-5435,9,9,35,7
470567,-1097,-7661,-5497,11,8,35,7
470572,-1241,-7670,-5569,12,14,35,7
470577,-1283,-7685,-5688,13,23,34,7
470582,-1304,-7693,-5700,14,28,33,7
470587,-1293,-7695,-5685,15,30,32,7
470592,-1333,-7695,-5604,16,29,31,7
470597,-1185,-7697,-5445,17,29,31,7
470602,-1266,-7702,-5305,18,33,32,7
470607,-1669,-7703,-5124,19,24,29,7
470612,-1900,-7699,-4976,21,21,26,7
470617,-2184,-7703,-4960,21,24,25,7
470622,-2628,-7711,-4901,22,18,25,7
470627,-3104,-7726,-4814,23,14,25,7
470632,-3438,-7728,-4715,23,12,24,7
470637,-3665,-7730,-4533,24,9,24,7
470642,-3866,-7731,-4291,25,6,23,7
470647,-3896,-7733,-4020,26,3,22,7
470652,-3820,-7738,-3770,27,2,21,7
470657,-3777,-7746,-3534,28,0,20,7
470662,-3704,-7750,-3359,29,-3,18,7
470667,-3696,-7755,-3259,30,-2,16,7
470672,-3739,-7758,-3222,31,-1,15,7
470677,-3823,-7758,-3236,32,-1,13,7
470682,-3981,-7760,-3283,32,0,13,7
470687,-4149,-7759,-3320,33,2,12,7
470692,-4232,-7757,-3329,33,7,12,7
470697,-4210,-7756,-3311,34,14,11,7
470702,-4101,-7746,-3260,35,18,11,7
470707,-3824,-7732,-3199,35,21,10,7
470712,-3482,-7720,-3092,36,22,10,7
470717,-3234,-7718,-2863,37,17,9,7
470722,-3059,-7705,-2556,36,10,7,7
470727,-2941,-7690,-2281,37,6,5,7
470732,-2934,-7676,-2049,37,-1,4,7
470737,-3022,-7664,-1845,38,-9,3,7
470742,-3229,-7658,-1649,39,-13,3,7
470747,-3444,-7654,-1469,39,-20,2,7
470752,-3606,-7646,-1321,39,-25,2,7
470757,-3669,-7637,-1227,40,-29,2,7
470762,-3624,-7631,-1124,40,-30,2,7
470767,-3527,-7635,-922,40,-26,1,7
470772,-3374,-7634,-634,39,-22,-1,7
470777,-3208,-7627,-304,38,-17,-3,7
470782,-3061,-7619,32,38,-17,-4,7
470787,-2952,-7611,364,37,-23,-5,7
470792,-2950,-7608,704,38,-32,-6,7
470797,-2994,-7606,994,38,-41,-6,7
470802,-3030,-7613,1187,38,-48,-7,7
470807,-3081,-7625,1315,38,-52,-7,7
470812,-3111,-7640,1367,38,-51,-8,7
470817,-3135,-7652,1394,37,-45,-10,7
470822,-3171,-7661,1447,36,-36,-11,7
470827,-3217,-7668,1555,34,-26,-12,7
470832,-3290,-7671,1725,33,-17,-14,7
470837,-3358,-7673,1909,33,-12,-15,7
470842,-3449,-7675,2146,33,-10,-15,7
470847,-3530,-7682,2409,32,-11,-16,7
470852,-3575,-7688,2665,31,-13,-17,7
470857,-3622,-7693,2924,30,-18,-18,7
470862,-3675,-7702,3231,29,-23,-19,7
470867,-3727,-7712,3552,28,-24,-21,7
470872,-3742,-7717,3822,26,-22,-22,7
470877,-3772,-7719,4092,25,-20,-23,7
470882,-3769,-7722,4321,25,-19,-24,7
470887,-3718,-7727,4488,24,-17,-25,7
470892,-3669,-7732,4626,23,-16,-26,7
470897,-3612,-7742,4715,21,-15,-27,7
470902,-3564,-7750,4802,20,-13,-28,7
470907,-3535,-7754,4900,18,-9,-29,7
470912,-3503,-7756,4996,16,-5,-30,7
470917,-3466,-7762,5140,15,-1,-31,7
470922,-3432,-7763,5279,13,2,-32,7
470927,-3394,-7761,5415,12,4,-32,7
470932,-3352,-7758,5569,10,8,-33,7
470937,-3288,-7758,5736,8,12,-33,7
470942,-3199,-7753,5919,6,18,-34,7
470947,-3096,-7747,6107,5,23,-34,7
470952,-2980,-7735,6303,3,29,-35,7
470957,-2850,-7724,6484,1,37,-35,7
470962,-2699,-7708,6638,0,44,-36,7
470967,-2469,-7692,6791,-1,51,-36,7
470972,-2154,-7674,6910,-2,57,-37,7
470977,-1813,-7661,6977,-3,60,-38,7
470982,-1498,-7648,6977,-4,61,-39,7
470987,-1229,-7635,6929,-5,61,-40,7
470992,-1014,-7625,6840,-7,61,-40,7
470997,-852,-7613,6727,-8,61,-40,7
471002,-733,-7603,6604,-9,60,-40,7
471007,-628,-7595,6479,-10,58,-40,7
471012,-507,-7584,6356,-11,56,-40,7
471017,-352,-7576,6256,-12,55,-40,7
471022,-176,-7565,6180,-13,54,-40,7
471027,15,-7555,6129,-15,54,-40,7
471032,211,-7544,6095,-16,55,-40,7
471037,397,-7534,6070,-17,57,-40,7
471042,580,-7522,6048,-18,61,-40,7
471047,743,-7508,6018,-18,67,-40,7
471052,893,-7498,5967,-19,72,-40,7
471057,1030,-7487,5896,-20,75,-40,7
471062,1151,-7476,5808,-21,78,-40,7
471067,1336,-7470,5761,-22,81,-39,7
471072,1574,-7464,5733,-23,86,-38,7
471077,1724,-7455,5668,-24,88,-37,7
471083,1871,-7440,5640,-25,84,-37,7
471087,2158,-7422,5549,-25,84,-37,7
471093,2586,-7411,5409,-25,85,-36,7
471097,3022,-7408,5237,-25,80,-34,7
471102,3378,-7406,5022,-26,73,-34,7
471107,3702,-7405,4739,-26,69,-33,7
471112,4021,-7409,4405,-26,68,-33,7
471117,4299,-7420,4059,-26,66,-32,7
471122,4514,-7436,3712,-27,60,-31,7
471127,4672,-7452,3376,-27,53,-30,7
471133,4790,-7472,3071,-27,48,-29,7
471137,4887,-7495,2812,-28,45,-28,7
471142,4978,-7517,2607,-28,43,-27,7
471147,5069,-7535,2457,-28,42,-25,7
471152,5171,-7550,2347,-28,43,-24,7
471157,5291,-7564,2259,-28,45,-23,7
471162,5420,-7581,2172,-28,46,-21,7
471167,5554,-7593,2062,-28,47,-20,7
471172,5665,-7608,1946,-28,49,-19,7
471177,5759,-7625,1812,-27,51,-18,7
471182,5873,-7641,1627,-27,51,-16,7
471188,6018,-7656,1395,-27,51,-15,7
471193,6178,-7674,1144,-26,50,-13,7
471197,6361,-7688,885,-25,48,-11,7
471203,6591,-7701,598,-24,45,-9,7
471208,6847,-7720,321,-23,42,-7,7
471213,7095,-7738,60,-22,38,-5,7
471217,7315,-7756,-208,-21,31,-4,7
471223,7504,-7775,-471,-20,24,-2,7
471227,7640,-7796,-705,-19,18,-1,7
471233,7696,-7821,-914,-19,11,0,7
471238,7675,-7849,-1173,-19,3,2,7
471242,7616,-7873,-1492,-19,-2,4,7
471247,7504,-7898,-1721,-19,-4,6,7
471252,7381,-7919,-1849,-19,-4,8,7
471258,7294,-7933,-1931,-19,-4,9,7
471263,7194,-7936,-1852,-19,-3,11,7
471267,7130,-7937,-1689,-18,-4,13,7
471273,7105,-7936,-1502,-17,-6,15,7
471278,7080,-7930,-1289,-17,-9,16,7
471283,7049,-7921,-1090,-16,-12,18,7
471288,7008,-7911,-936,-15,-14,19,7
471293,6953,-7901,-847,-14,-16,21,7
471298,6868,-7894,-835,-14,-19,22,7
471303,6744,-7885,-874,-14,-20,24,7
471308,6602,-7870,-951,-13,-22,25,7
471313,6449,-7860,-1048,-13,-22,26,7
471318,6265,-7847,-1146,-12,-23,28,7
471323,6068,-7835,-1251,-12,-22,29,7
471328,5871,-7822,-1335,-11,-21,30,7
471333,5672,-7808,-1382,-11,-21,31,7
471338,5482,-7792,-1403,-11,-21,33,7
471343,5296,-7775,-1395,-10,-22,34,7
471348,5107,-7759,-1359,-10,-25,35,7
471353,4905,-7744,-1297,-9,-28,35,7
471358,4677,-7734,-1230,-9,-31,36,7
471363,4417,-7722,-1157,-8,-32,36,7
471368,4157,-7718,-1085,-8,-34,37,7
471373,3870,-7717,-1019,-8,-35,38,7
471378,3505,-7731,-935,-7,-35,38,7
471383,3069,-7737,-859,-7,-36,37,7
471388,2625,-7733,-812,-7,-38,35,7
471393,2297,-7734,-819,-6,-34,33,7
471398,2098,-7732,-844,-7,-28,32,7
471403,1944,-7726,-720,-7,-22,35,7
471408,1254,-7691,-711,-7,-16,37,7
471413,85,-7683,-780,-6,-29,32,7
471418,-660,-7685,-794,-3,-37,29,7
471423,-1251,-7704,-895,-2,-31,29,7
471428,-1983,-7741,-965,-2,-35,30,7
471433,-2677,-7783,-1022,-2,-41,30,7
471438,-3106,-7825,-1088,-2,-38,30,7
471443,-3379,-7869,-1074,-2,-29,29,7
471448,-3633,-7904,-962,-3,-23,28,7
471453,-3706,-7930,-812,-3,-22,26,7
471458,-3718,-7961,-666,-2,-20,24,7
471463,-3856,-7991,-514,-2,-21,22,7
471468,-3978,-8021,-405,-1,-26,19,7
471473,-4105,-8051,-352,-1,-29,17,7
471478,-4392,-8084,-362,0,-32,16,7
471483,-4685,-8116,-429,0,-35,15,7
471488,-4962,-8151,-501,0,-30,14,7
471493,-5189,-8180,-547,0,-25,13,7
471498,-5248,-8202,-569,-1,-20,11,7
471503,-5236,-8221,-528,-1,-14,10,7
471508,-5111,-8236,-440,-1,-9,9,7
471513,-4871,-8247,-330,-1,-5,7,7
471518,-4657,-8257,-213,-1,-3,6,7
471523,-4440,-8266,-129,0,-4,4,7
471528,-4238,-8275,-63,0,-4,2,7
471533,-4114,-8284,-41,0,-5,2,7
471538,-3996,-8293,-60,0,-5,1,7
471543,-3879,-8307,-92,0,-5,0,7
471548,-3739,-8305,83,0,-4,-1,7
471553,-3578,-8304,29,0,0,-1,7
471558,-3400,-8299,-87,-1,-2,-2,7
471563,-3197,-8290,-9,-1,-1,-3,7
471568,-2935,-8290,22,-1,6,-3,7
471573,-2675,-8290,100,-2,5,-4,7
471578,-2422,-8289,188,-1,2,-4,7
471583,-2178,-8287,230,-1,1,-5,7
471588,-1953,-8286,262,-1,0,-5,7
471593,-1734,-8285,271,-1,-1,-5,7
471598,-1536,-8284,242,-1,0,-5,7
471603,-1344,-8286,183,-1,2,-5,7
471608,-1152,-8287,110,-1,3,-5,7
471613,-970,-8284,53,-1,4,-5,7
471618,-777,-8286,1,-1,6,-5,7
471623,-572,-8284,-36,-1,7,-5,7
471628,-384,-8280,-55,-1,7,-5,7
471633,-191,-8275,-55,-1,7,-5,7
471638,-14,-8274,-58,-1,8,-5,7
471643,142,-8274,-60,-1,8,-4,7
471648,297,-8274,-72,-1,8,-4,7
471653,423,-8274,-84,-1,8,-4,7
471658,527,-8275,-102,-1,6,-4,7
471663,629,-8275,-152,-1,5,-4,7
471668,687,-8279,-150,-1,4,-3,7
471673,757,-8282,-171,-1,3,-3,7
471678,832,-8284,-199,-1,2,-2,7
471683,884,-8282,-212,-1,1,-2,7
471688,927,-8280,-211,-1,0,-2,7
471693,967,-8281,-193,-1,-1,-2,7
471698,987,-8279,-154,-1,-1,-2,7
471703,994,-8276,-112,-1,-3,-1,7
471708,997,-8274,-92,-1,-5,-1,7
471713,976,-8277,-71,0,-6,-1,7
471718,948,-8276,-60,0,-7,0,7
471723,938,-8271,-72,0,-7,0,7
471728,914,-8272,-84,0,-7,0,7
471733,893,-8273,-99,0,-8,0,7
471738,883,-8273,-115,0,-7,0,7
471743,861,-8273,-114,0,-7,1,7
471748,840,-8274,-109,0,-8,1,7
471753,816,-8276,-102,0,-8,1,7
471758,772,-8278,-78,0,-10,1,7
471763,722,-8277,-57,0,-11,1,7
471768,659,-8277,-36,0,-12,1,7
471773,589,-8278,-15,0,-13,1,7
471778,514,-8280,-9,0,-13,1,7
471783,426,-8281,5,0,-14,1,7
471788,332,-8283,27,0,-13,1,7
471793,242,-8286,47,0,-12,1,7
471798,162,-8290,74,0,-10,1,7
471803,83,-8291,97,-1,-8,1,7
471808,13,-8293,126,-1,-7,1,0
471813,-51,-8295,156,-1,-5,1,0
471818,-109,-8299,178,-1,-4,1,0
471823,-143,-8299,191,-1,-3,0,0
471828,-174,-8300,198,-1,-1,0,0
471833,-191,-8301,183,-1,-1,0,0
471838,-190,-8300,162,-1,-1,0,0
471843,-193,-8298,138,-1,-2,0,0
471848,-196,-8296,101,-1,-2,0,0
471853,-193,-8295,70,-1,-2,0,0
471858,-198,-8294,44,-1,-2,0,0
471863,-210,-8292,26,-1,-3,0,0
471868,-226,-8292,19,-1,-2,0,0
471873,-243,-8293,16,-1,-1,-1,0
471878,-258,-8294,16,-1,-1,-1,0
471883,-268,-8296,27,-1,-1,-1,0
471888,-276,-8299,35,-1,-1,-1,0
471893,-283,-8301,39,-1,-1,-1,0
471898,-281,-8301,51,-1,-1,-1,0
471903,-281,-8299,58,-1,-1,-1,0
471908,-281,-8298,60,-1,-1,-1,0
471913,-275,-8298,65,-1,-1,-2,0
471918,-280,-8299,75,-1,-1,-2,0
471923,-281,-8299,87,-1,-2,-2,0
471928,-279,-8298,104,-1,-2,-2,0
471933,-284,-8298,115,-1,-2,-2,0
471938,-280,-8297,126,-1,-2,-2,0
471943,-271,-8297,131,-1,-1,-2,0
471948,-277,-8298,124,-1,-1,-2,0
471953,-265,-8296,107,-1,-1,-2,0
471958,-241,-8296,91,-1,-1,-2,0
471963,-213,-8296,65,-1,-1,-2,0
471968,-180,-8297,34,-1,-1,-2,0
471973,-148,-8295,-3,-1,-1,-2,0
471978,-117,-8295,-38,-1,-1,-3,0
471983,-85,-8297,-59,-1,0,-2,0
471988,-63,-8298,-80,-1,0,-3,0
471993,-46,-8300,-97,-1,0,-3,0
471998,-29,-8299,-106,-1,1,-3,0
472003,-10,-8300,-105,-1,1,-3,0
472008,7,-8297,-97,-1,2,-3,0
472013,32,-8296,-89,-1,2,-2,0
472018,55,-8297,-85,-1,1,-2,0
472023,76,-8300,-71,-1,0,-3,0
472028,100,-8296,-66,-1,-1,-3,0
472033,117,-8296,-71,-1,-1,-3,0
472038,134,-8296,-85,-1,-1,-2,0
472043,152,-8293,-109,-1,-1,-2,0
472048,164,-8295,-139,-1,-1,-2,0
472053,179,-8297,-168,-1,-1,-2,0
472058,192,-8296,-197,-1,-1,-2,0
472063,200,-8296,-217,-1,-1,-2,0
472068,210,-8296,-222,-1,0,-2,0
472073,222,-8297,-223,-1,0,-2,0
472078,227,-8295,-214,-1,0,-2,0
472083,236,-8297,-199,-1,1,-2,0
472088,251,-8296,-182,-1,1,-2,0
472093,264,-8295,-164,-1,0,-2,0
472098,273,-8293,-151,0,0,-2,0
472103,290,-8291,-142,0,0,-2,0
472108,306,-8293,-136,0,0,-2,0
472113,319,-8294,-134,0,0,-2,0
472118,330,-8292,-137,0,0,-2,0
472123,338,-8291,-135,0,0,-2,0
472128,348,-8291,-131,0,0,-2,0
472133,351,-8291,-127,0,0,-2,0
472138,347,-8292,-114,0,-1,-2,0
472143,343,-8294,-105,0,-1,-2,0
472148,337,-8297,-92,0,0,-1,0
472153,329,-8299,-72,0,0,-1,0
472158,324,-8299,-63,0,0,-1,0
472163,318,-8296,-56,0,0,-1,0
472168,316,-8296,-51,0,0,-1,0
472173,315,-8295,-58,0,0,-1,0
472178,313,-8296,-62,0,0,-1,0
472183,309,-8298,-65,0,-1,-1,0
472188,310,-8300,-69,0,-1,-1,0
472193,308,-8298,-66,0,-1,-1,0
472198,301,-8298,-70,0,-1,-1,0
472203,302,-8297,-76,0,-1,-1,0
472208,299,-8298,-84,0,-1,-1,0
472213,297,-8295,-93,0,-1,-1,0
472218,298,-8296,-102,0,0,-1,0
472223,296,-8296,-112,0,-1,-1,0
472228,293,-8295,-119,0,-1,-1,0
472233,289,-8297,-124,0,-1,-1,0
472238,278,-8300,-123,0,-1,-1,0
472243,271,-8300,-119,0,-2,-1,0
472248,260,-8301,-109,0,-2,-1,0
472253,249,-8303,-100,0,-2,-1,0
472258,244,-8304,-89,0,-2,-1,0
472263,244,-8304,-84,0,-2,-1,0
472268,238,-8301,-82,0,-3,-1,0
472273,234,-8299,-87,0,-3,-1,0
472278,231,-8296,-89,0,-4,-1,0
472283,228,-8295,-89,0,-5,-1,0
472288,228,-8297,-93,0,-5,-1,0
472293,229,-8298,-97,0,-6,-1,0
472298,224,-8296,-93,0,-7,-1,0
472303,217,-8297,-88,0,-7,-1,0
472308,208,-8298,-78,0,-6,-1,0
472313,200,-8297,-67,0,-5,-1,0
472318,190,-8299,-54,0,-4,-1,0
472323,184,-8298,-46,0,-3,-1,0
472328,184,-8301,-43,0,-3,-1,0
472333,188,-8302,-32,0,-2,-1,0
472338,191,-8303,-25,0,-2,-1,0
472343,199,-8304,-15,0,-2,-1,0
472348,209,-8305,-1,0,-2,-1,0
472353,213,-8305,11,0,-2,-1,0
472358,209,-8306,17,0,-3,-1,0
472363,198,-8308,23,0,-4,-1,0
472368,186,-8307,20,0,-4,-1,0
472373,171,-8305,12,0,-5,-1,0
472378,162,-8304,-5,0,-5,-1,0
472383,159,-8303,-30,0,-5,-1,0
472388,159,-8302,-54,0,-5,-1,0
472393,162,-8300,-69,0,-5,-1,0
472398,161,-8300,-76,0,-4,-1,0
472403,167,-8300,-71,0,-4,-1,0
472408,174,-8301,-53,0,-4,-1,0
472413,177,-8301,-38,0,-4,-1,0
472418,176,-8298,-14,0,-5,-1,0
472423,180,-8297,5,0,-6,-1,0
472428,174,-8298,8,0,-6,-1,0
472433,166,-8299,11,0,-6,-1,0
472438,164,-8302,6,0,-6,-1,0
472443,157,-8303,0,0,-5,-1,0
472448,150,-8303,-4,0,-5,-1,0
472453,143,-8303,-4,0,-4,-1,0
472458,140,-8301,4,0,-3,-1,0
472463,143,-8300,15,0,-2,-1,0
472468,147,-8296,30,0,-2,-1,0
472473,157,-8294,38,0,-3,-1,0
472478,168,-8295,39,0,-3,-1,0
472483,181,-8295,35,0,-4,-1,0
472488,197,-8292,27,0,-5,-1,0
472493,209,-8291,17,0,-6,-1,0
472498,212,-8292,9,0,-7,-1,0
472503,209,-8292,7,0,-7,-1,0
472508,200,-8294,10,0,-7,-1,0
472513,184,-8295,20,0,-7,-1,0
472518,160,-8295,36,0,-7,-1,0
472523,138,-8296,51,0,-6,-1,0
472528,119,-8296,60,0,-5,-1,0
472533,117,-8298,64,0,-4,-1,0
472538,121,-8300,55,0,-3,-1,0
472543,130,-8301,52,0,-3,-1,0
472548,144,-8305,53,0,-2,-1,0
472553,156,-8306,50,0,-1,-1,0
472558,167,-8302,45,0,-1,-1,0
472563,172,-8301,45,0,-1,-1,0
472568,176,-8302,41,0,-1,-1,0
472573,170,-8301,37,0,-2,-1,0
472578,163,-8299,39,0,-3,-1,0
472583,149,-8299,38,0,-3,-1,0
472588,131,-8300,43,0,-3,-1,0
472593,122,-8302,49,0,-2,-1,0
472598,89,-8300,94,0,-2,-1,0
472603,89,-8299,98,0,-1,-1,0
472608,117,-8296,59,0,0,-1,0
472613,124,-8297,69,0,0,-1,0
472618,139,-8298,62,0,0,-1,0
472623,165,-8298,36,0,0,-1,0
472628,174,-8298,27,0,0,-1,0
472633,181,-8299,10,0,-1,-1,0
472638,198,-8298,-2,0,-1,-1,0
472643,220,-8299,-7,0,-2,-1,0
472648,238,-8297,-16,0,-3,-1,0
472653,257,-8295,-19,0,-4,-1,0
472658,280,-8293,-12,0,-6,-1,0
472663,284,-8291,4,0,-8,-1,0
472668,277,-8289,16,0,-10,-1,0
472673,260,-8289,19,0,-12,-1,0
472678,221,-8291,24,0,-13,-1,0
472683,178,-8293,24,0,-13,-1,0
472688,137,-8298,18,0,-11,-1,0
472693,97,-8298,15,0,-10,-1,0
472698,73,-8298,14,0,-8,-1,0
472703,59,-8295,18,0,-7,-1,0
472708,49,-8294,32,0,-5,-1,0
472713,51,-8292,57,0,-4,-1,0
472718,52,-8295,90,0,-3,-1,0
472723,51,-8293,123,0,-3,-1,0
472728,53,-8295,147,0,-3,-2,0
472733,49,-8296,164,0,-4,-2,0
472738,48,-8294,174,0,-4,-2,0
472743,47,-8297,163,0,-5,-2,0
472748,45,-8302,143,0,-5,-2,0
472753,44,-8300,130,0,-4,-2,0
472758,45,-8300,124,0,-3,-2,0
472763,56,-8302,122,0,-2,-2,0
472768,76,-8304,138,0,-2,-2,0
472773,91,-8303,147,0,-1,-2,0
472778,109,-8300,157,0,-1,-2,0
472783,132,-8300,165,0,0,-2,0
472788,154,-8298,159,0,0,-2,0
472793,174,-8298,146,0,-1,-2,0
472798,189,-8298,115,0,0,-2,0
472803,203,-8295,78,0,0,-2,0
472808,212,-8295,39,0,0,-2,0
472813,221,-8294,6,0,0,-2,0
472818,227,-8294,-16,0,0,-2,0
472823,235,-8291,-33,0,0,-2,0
472828,249,-8289,-40,0,0,-2,0
472833,261,-8289,-40,0,0,-2,0
472838,274,-8290,-42,0,-1,-2,0
472843,283,-8291,-42,0,-1,-2,0
472848,286,-8289,-37,0,-2,-2,0
472853,283,-8291,-32,0,-2,-2,0
472858,279,-8291,-34,0,-2,-2,0
472863,265,-8293,-34,0,-2,-2,0
472868,259,-8295,-29,0,-2,-2,0
472873,253,-8297,-29,0,-2,-1,0
472879,257,-8297,-19,0,-2,-1,0
472883,271,-8297,-9,0,-2,-1,0
472889,289,-8295,0,0,-2,-1,0
472893,310,-8295,4,0,-2,-1,0
472898,334,-8296,7,0,-3,-1,0
472904,350,-8295,11,0,-3,-1,0
472908,357,-8294,17,0,-3,-1,0
472913,357,-8296,23,0,-3,-1,0
472919,352,-8295,31,0,-3,-1,0
472923,346,-8297,42,0,-3,-1,0
472928,341,-8296,62,0,-3,-1,0
472933,336,-8297,84,0,-3,-1,0
472938,334,-8297,106,0,-3,-1,0
472943,333,-8299,132,0,-3,-1,0
472948,338,-8297,156,0,-3,-1,0
472953,344,-8300,171,0,-3,-1,0
472958,351,-8299,182,0,-3,-1,0
472963,357,-8296,179,0,-3,-1,0
472968,356,-8296,168,0,-4,-1,0
472973,351,-8299,159,0,-4,-1,0
472978,345,-8299,145,0,-4,-1,0
472984,336,-8301,131,0,-4,-1,0
472988,326,-8299,115,0,-4,-1,0
472993,319,-8300,109,0,-4,-1,0
472998,316,-8299,106,0,-4,-1,0
473003,314,-8299,102,0,-4,-1,0
473009,315,-8298,105,0,-4,-1,0
473014,315,-8297,105,0,-5,-1,0
473018,313,-8296,110,0,-5,-1,0
473024,309,-8296,110,0,-5,-1,0
473029,304,-8294,110,0,-5,-1,0
473033,294,-8292,109,0,-5,-1,0
473038,287,-8293,107,0,-5,-1,0
473043,283,-8294,102,0,-4,-1,0
473048,277,-8291,101,0,-4,-1,0
473053,277,-8291,101,0,-3,-1,0
473058,286,-8291,103,0,-3,-1,0
473063,297,-8292,103,0,-3,-1,0
473069,303,-8293,118,0,-3,-1,0
473074,303,-8293,130,0,-3,-1,0
473079,300,-8291,140,0,-3,-1,0
473084,290,-8292,154,0,-3,-1,0
473089,280,-8290,164,0,-3,-1,0
473094,271,-8291,164,0,-3,-1,0
473099,262,-8294,159,0,-3,-1,0
473104,254,-8297,157,0,-2,-1,0
473109,256,-8297,144,0,-2,-1,0
473114,265,-8297,131,0,-2,-1,0
473118,278,-8298,121,0,-2,-1,0
473123,291,-8300,110,0,-2,-1,0
473129,306,-8299,100,0,-2,-1,0
473134,317,-8299,105,0,-2,-1,0
473139,321,-8299,103,0,-2,-1,0
473144,314,-8296,102,0,-2,-1,0
473149,305,-8295,98,0,-2,-1,0
473154,295,-8292,93,0,-2,-1,0
473159,288,-8292,87,0,-3,-1,0
473164,285,-8295,80,0,-3,-1,0
473169,288,-8297,73,0,-2,-1,0
473174,293,-8299,65,0,-2,-1,0
473179,302,-8299,56,0,-2,-1,0
473184,314,-8298,52,0,-2,-1,0
473189,320,-8297,46,0,-2,-1,0
473194,324,-8297,36,0,-2,-1,0
473199,327,-8299,33,0,-2,0,0
473204,327,-8297,37,0,-2,-1,0
473209,320,-8297,43,0,-2,-1,0
473214,312,-8298,46,0,-2,-1,0
473219,299,-8301,51,0,-2,0,0
473224,290,-8299,55,0,-2,0,0
473229,284,-8299,66,0,-2,0,0
473234,278,-8299,79,0,-2,0,0
473239,280,-8297,86,0,-2,0,0
473244,285,-8296,86,0,-1,0,0
473249,293,-8296,89,0,-1,0,0
473254,300,-8298,86,0,-1,0,0
473259,302,-8300,88,0,-1,0,0
473264,297,-8303,88,0,-2,-1,0
473269,288,-8305,90,0,-2,0,0
473274,281,-8306,95,0,-2,0,0
473279,273,-8306,104,0,-3,0,0
473284,266,-8306,108,0,-3,0,0
473289,261,-8304,111,0,-3,0,0
473294,258,-8304,109,0,-3,0,0
473299,252,-8301,104,0,-3,-1,0
473304,241,-8301,99,0,-2,-1,0
473309,230,-8301,98,0,-2,0,0
473314,221,-8299,101,0,-2,-1,0
473319,215,-8300,98,0,-2,-1,0
473324,211,-8303,96,0,-2,-1,0
473329,212,-8304,99,0,-2,-1,0
473334,214,-8304,104,0,-2,-1,0
473339,219,-8303,98,0,-2,-1,0
473344,227,-8303,87,0,-2,-1,0
473349,237,-8302,75,0,-2,-1,0
473354,248,-8305,61,0,-2,-1,0
473359,252,-8304,47,0,-3,-1,0
473364,252,-8306,31,0,-3,-1,0
473369,254,-8307,21,0,-3,-1,0
473374,251,-8305,16,0,-3,-1,0
473379,249,-8305,17,0,-3,-1,0
473384,249,-8305,13,0,-2,-1,0
473389,253,-8307,16,0,-2,-1,0
473394,254,-8308,23,0,-2,-1,0
473399,255,-8305,28,0,-2,-1,0
473404,257,-8304,31,0,-2,-1,0
473409,260,-8305,35,0,-2,-1,0
473414,264,-8303,43,0,-2,-1,0
473419,265,-8303,54,0,-3,-1,0
473424,266,-8302,58,0,-3,-1,0
473429,267,-8302,64,0,-3,-1,0
473434,268,-8302,70,0,-3,-1,0
473439,270,-8304,69,0,-3,-1,0
473444,276,-8304,68,0,-3,-1,0
473449,280,-8302,70,0,-3,-1,0
473454,278,-8301,67,0,-3,-1,0
473459,278,-8300,65,0,-3,-1,0
473464,279,-8302,69,0,-2,-1,0
473469,281,-8302,78,0,-2,-1,0
473474,284,-8300,92,0,-2,-1,0
473479,289,-8298,113,0,-3,-1,0
473484,292,-8294,129,0,-3,-1,0
473489,293,-8294,147,0,-3,-1,0
473494,291,-8298,168,0,-3,-1,0
473499,292,-8298,185,0,-3,-1,0
473504,290,-8299,194,0,-3,-1,0
473509,288,-8300,206,0,-4,-1,0
473514,287,-8301,214,0,-4,-1,0
473519,287,-8302,218,0,-4,-1,0
473524,288,-8305,224,0,-3,-1,0
473529,293,-8305,227,0,-3,-1,0
473534,300,-8302,222,0,-3,0,0
473539,303,-8300,221,0,-3,0,0
473544,308,-8298,219,0,-2,0,0
473549,313,-8298,216,0,-2,0,0
473554,313,-8301,211,0,-2,0,0
473559,308,-8301,201,0,-2,-1,0
473564,303,-8300,188,0,-3,0,0
473569,299,-8300,181,0,-3,-1,0
473574,296,-8301,173,0,-3,-1,0
473579,292,-8300,170,0,-3,0,0
473584,289,-8300,168,0,-3,0,0
473589,290,-8296,166,0,-3,0,0
473594,290,-8295,165,0,-3,0,0
473599,293,-8294,165,0,-2,0,0
473604,297,-8296,164,0,-2,0,0
473609,297,-8297,163,0,-3,0,0
473614,292,-8298,168,0,-3,0,0
473619,284,-8299,179,-1,-3,-1,0
473624,271,-8298,193,-1,-3,-1,0
473629,255,-8299,205,-1,-3,-1,0
473634,235,-8299,216,-1,-2,0,0
473639,221,-8299,223,-1,-2,-1,0
473644,213,-8298,220,-1,-1,0,0
473649,213,-8299,207,-1,-1,0,0
473654,220,-8299,193,-1,-1,0,0
473659,229,-8300,178,-1,-1,-1,0
473664,236,-8301,161,-1,-1,-1,0
473669,245,-8302,143,-1,-2,-1,0
473674,251,-8300,122,-1,-2,-1,0
473679,250,-8302,102,-1,-3,-1,0
473684,246,-8302,87,-1,-4,-1,0
473689,239,-8306,69,-1,-5,-1,0
473694,233,-8307,51,0,-5,-1,0
473699,231,-8310,40,0,-6,-1,0
473704,231,-8309,31,0,-6,-1,0
473709,237,-8307,32,0,-6,-1,0
473714,246,-8304,40,0,-6,-1,0
473719,257,-8300,52,0,-7,-1,0
473724,261,-8299,68,0,-8,-1,0
473729,255,-8298,82,0,-9,-1,0
473734,239,-8299,97,0,-10,-1,0
473739,218,-8300,100,0,-9,-1,0
473744,202,-8303,105,0,-8,-1,0
473749,192,-8302,112,0,-7,-1,0
473754,188,-8302,114,0,-7,-1,0
473759,191,-8299,115,0,-6,-1,0
473764,200,-8299,121,0,-5,-1,0
473769,216,-8300,136,0,-5,-1,0
473774,232,-8303,149,0,-5,-1,0
473779,245,-8304,161,0,-5,-1,0
473784,256,-8304,169,0,-5,-1,0
473789,269,-8305,169,0,-5,-1,0
473794,275,-8302,165,0,-5,-1,0
473799,275,-8302,154,0,-5,-1,0
473804,271,-8300,138,0,-5,-1,0
473809,262,-8301,120,0,-5,-1,0
473814,261,-8301,111,0,-5,-1,0
473819,263,-8302,110,-1,-4,-1,0
473824,271,-8300,116,0,-4,-1,0
473829,285,-8300,120,-1,-3,-1,0
473834,302,-8302,131,0,-3,-1,0
473839,312,-8302,139,0,-3,-1,0
473844,324,-8306,142,0,-3,-1,0
473849,334,-8305,132,0,-3,-1,0
473854,340,-8305,121,0,-3,-1,0
473859,342,-8306,108,0,-3,-1,0
473864,342,-8308,90,0,-3,-1,0
473869,340,-8309,67,0,-3,-1,0
473874,343,-8306,52,0,-2,-1,0
473879,346,-8303,39,0,-2,-1,0
473884,348,-8298,36,0,-1,-1,0
473889,354,-8299,36,0,0,-1,0
473894,364,-8302,40,0,0,-1,0
473899,367,-8302,56,0,0,-1,0
473904,370,-8303,70,0,0,-1,0
473909,370,-8303,87,0,0,-1,0
473914,369,-8302,104,0,0,-1,0
473919,371,-8304,118,0,0,-1,0
473924,369,-8303,138,0,0,0,0
473929,370,-8300,159,0,0,0,0
473934,376,-8296,184,0,0,0,0
473939,382,-8294,201,0,-1,0,0
473944,387,-8294,217,0,-1,0,0
473949,390,-8297,231,0,-1,0,0
473954,390,-8301,238,0,0,0,0
473959,386,-8302,234,0,0,0,0
473964,379,-8301,225,0,-1,0,0
473969,363,-8301,213,-1,-1,0,0
473974,343,-8305,201,-1,-1,0,0
473979,323,-8306,193,-1,-1,0,0
473984,305,-8303,189,-1,0,0,0
473989,292,-8304,185,-1,0,0,0
473994,282,-8303,182,-1,0,0,0
473999,277,-8302,181,-1,0,0,0
474004,276,-8303,182,-1,0,0,0
474009,273,-8301,187,-1,0,0,0
474014,276,-8301,190,-1,0,0,0
474019,281,-8300,189,-1,0,0,0
474024,280,-8299,183,-1,0,0,0
474029,281,-8296,174,-1,0,0,0
474034,286,-8297,166,-1,0,0,0
474039,292,-8297,158,-1,0,0,0
474044,296,-8299,146,-1,0,0,0
474049,301,-8299,136,-1,-1,0,0
474054,310,-8299,130,-1,-1,0,0
474059,320,-8300,119,-1,-1,0,0
474064,322,-8299,109,-1,-1,0,0
474069,317,-8300,103,-1,-1,0,0
474074,313,-8302,95,-1,-1,0,0
474079,308,-8303,88,-1,-1,0,0
474084,301,-8306,87,-1,-1,0,0
474089,290,-8308,91,-1,-1,0,0
474094,284,-8309,96,-1,-1,0,0
474099,276,-8307,103,-1,-1,0,0
474104,272,-8308,108,0,-1,0,0
474109,274,-8305,113,0,-1,0,0
474114,280,-8301,109,0,-1,0,0
474119,286,-8299,98,0,-1,0,0
474124,289,-8299,86,0,-1,0,0
474129,289,-8301,77,0,-1,0,0
474134,285,-8304,63,0,-1,0,0
474139,278,-8307,52,0,-1,0,0
474144,271,-8305,51,0,-1,0,0
474149,261,-8304,45,0,-1,0,0
474154,252,-8305,46,0,-1,0,0
474159,247,-8303,50,0,-1,0,0
474164,246,-8303,60,0,-1,0,0
474169,247,-8302,75,0,-1,0,0
474174,254,-8298,89,0,-1,0,0
474179,261,-8297,108,0,-2,0,0
474184,266,-8296,126,0,-2,-1,0
474189,268,-8299,146,0,-3,-1,0
474194,268,-8301,159,0,-3,0,0
474199,269,-8300,170,0,-3,0,0
474204,267,-8299,173,0,-3,-1,0
474209,266,-8302,176,0,-3,-1,0
474214,266,-8300,181,0,-2,0,0
474219,262,-8301,190,0,-2,0,0
474224,267,-8302,188,0,-2,0,0
474229,273,-8300,190,0,-2,0,0
474234,279,-8299,194,0,-1,0,0
474239,280,-8300,200,0,-1,0,0
474244,279,-8298,197,0,-1,-1,0
474249,277,-8300,195,0,-1,0,0
474254,276,-8298,196,0,-1,0,0
474259,280,-8297,185,0,-1,0,0
474264,287,-8299,179,-1,0,0,0
474269,296,-8301,177,-1,0,0,0
474274,302,-8302,182,-1,-1,0,0
474279,308,-8302,185,-1,-1,0,0
474284,312,-8300,188,-1,0,0,0
474289,319,-8299,188,-1,0,0,0
474294,325,-8298,192,-1,0,0,0
474299,328,-8300,188,-1,-1,0,0
474304,329,-8296,175,-1,-1,0,0
474309,330,-8295,166,-1,-1,0,0
474314,327,-8297,154,-1,-1,0,0
474319,325,-8295,140,-1,-1,0,0
474324,320,-8296,133,-1,-1,0,0
474329,314,-8296,128,-1,-1,0,0
474334,304,-8298,123,-1,-1,0,0
474339,294,-8297,123,-1,-1,0,0
474344,286,-8297,130,-1,-1,0,0
474349,281,-8298,139,-1,-1,0,0
474354,275,-8297,149,-1,-1,0,0
474359,274,-8299,157,-1,-1,0,0
474364,272,-8299,161,-1,-1,0,0
474369,273,-8303,164,-1,-1,0,0
474374,277,-8304,166,-1,-1,0,0
474379,278,-8305,165,-1,-1,0,0
474384,279,-8304,158,-1,-1,0,0
474389,278,-8303,148,-1,-1,0,0
474394,277,-8301,139,-1,-1,0,0
474399,276,-8302,126,-1,0,0,0
474404,279,-8301,119,-1,0,0,0
474409,282,-8302,108,-1,-1,0,0
474414,279,-8303,105,-1,-1,0,0
474419,276,-8304,104,-1,-1,-1,0
474424,269,-8303,105,-1,-1,0,0
474429,258,-8305,116,-1,-1,-1,0
474434,253,-8305,129,-1,-1,-1,0
474439,252,-8306,146,-1,-1,0,0
474444,251,-8304,157,-1,-2,0,0
474449,253,-8302,171,-1,-2,0,0
474454,256,-8301,176,-1,-2,-1,0
474459,260,-8301,176,-1,-2,-1,0
474464,257,-8300,168,-1,-2,-1,0
474469,256,-8300,154,-1,-2,-1,0
474474,260,-8300,141,-1,-1,-1,0
474479,265,-8303,122,-1,-1,-1,0
474484,270,-8301,102,-1,-1,-1,0
474489,273,-8301,87,-1,-1,-1,0
474494,280,-8303,76,-1,-1,-1,0
474499,283,-8307,67,-1,-1,-1,0
474504,280,-8307,61,-1,-1,-1,0
474509,274,-8308,63,-1,-1,-1,0
474514,272,-8305,76,-1,-1,-1,0
474519,269,-8301,87,-1,-1,-1,0
474524,262,-8299,98,-1,-2,-1,0
474529,258,-8300,105,0,-2,-1,0
474534,259,-8300,111,-1,-2,-1,0
474539,262,-8300,114,-1,-1,-1,0
474544,267,-8303,116,0,-1,-1,0
474549,277,-8302,116,0,0,0,0
474554,288,-8301,114,0,0,-1,0
474559,296,-8300,113,0,0,-1,0
474564,305,-8300,108,0,0,-1,0
474569,312,-8301,105,0,0,-1,0
474574,316,-8304,110,0,0,-1,0
474579,318,-8305,108,0,0,-1,0
474584,317,-8302,106,0,-1,-1,0
474589,313,-8301,101,0,-1,-1,0
474594,307,-8301,96,0,-1,0,0
474599,303,-8299,97,0,-1,-1,0
474604,298,-8300,98,0,-1,-1,0
474609,299,-8301,107,0,-1,0,0
474614,303,-8303,120,0,-1,0,0
474619,310,-8305,131,-1,-1,0,0
474625,316,-8306,137,0,-1,0,0
474629,323,-8305,139,0,-1,0,0
474635,332,-8302,141,0,-1,0,0
474639,337,-8302,141,0,0,0,0
474644,340,-8300,134,0,0,0,0
474649,340,-8303,126,0,0,0,0
474654,341,-8304,115,0,0,0,0
474660,337,-8307,106,0,0,0,0
474664,335,-8307,104,0,-1,0,0
474669,336,-8308,96,0,-1,0,0
474675,335,-8307,95,0,-1,0,0
474679,332,-8305,97,0,-1,0,0
474685,329,-8304,108,0,-1,0,0
474690,327,-8303,114,0,-2,0,0
474694,329,-8303,122,0,-2,0,0
474700,333,-8301,130,0,-3,0,0
474704,339,-8300,135,0,-3,0,0
474710,340,-8299,135,0,-4,0,0
474715,344,-8300,126,0,-4,0,0
474719,341,-8301,110,0,-4,0,0
474725,338,-8299,93,0,-4,0,0
474730,333,-8299,82,0,-3,0,0
474735,322,-8302,70,0,-3,0,0
474740,306,-8300,64,0,-3,0,0
474745,293,-8298,60,0,-3,0,0
474750,278,-8300,62,0,-3,0,0
474754,269,-8300,70,0,-4,0,0
474760,260,-8300,82,0,-4,0,0
474765,250,-8297,95,0,-4,0,0
474769,246,-8296,100,0,-4,0,0
474775,244,-8298,112,0,-4,0,0
474780,242,-8301,122,0,-4,0,0
474785,231,-8303,132,0,-4,0,0
474790,222,-8303,134,0,-4,0,0
474795,212,-8304,134,0,-4,0,0
474800,203,-8304,134,0,-4,-1,0
474805,199,-8303,135,0,-4,0,0
474810,198,-8303,129,0,-3,0,0
474815,199,-8305,124,0,-3,-1,0
474820,201,-8306,123,0,-3,-1,0
474825,203,-8309,117,0,-3,-1,0
474830,206,-8310,108,0,-2,-1,0
474835,208,-8310,102,0,-2,-1,0
474840,207,-8311,102,0,-1,-1,0
474845,213,-8311,108,0,-1,-1,0
474850,219,-8310,108,0,-1,-1,0
474855,224,-8311,116,0,-1,-1,0
474860,229,-8310,123,0,-1,-1,0
474865,235,-8307,128,0,-1,-1,0
474870,243,-8308,134,0,-1,-1,0
474875,253,-8309,143,0,-1,-1,0
474880,259,-8307,152,0,-1,-1,0
474885,265,-8305,157,0,-1,-1,0
474890,271,-8303,156,0,-1,-1,0
474895,275,-8304,156,0,-2,-1,0
474900,276,-8302,155,0,-2,-1,0
474905,274,-8302,152,0,-2,-1,0
474910,276,-8302,150,0,-2,-1,0
474915,280,-8302,144,0,-2,-1,0
474920,285,-8301,140,0,-1,-1,0
474925,291,-8301,137,0,-1,-1,0
474930,300,-8299,135,0,-2,0,0
474935,309,-8297,136,0,-2,-1,0
474940,322,-8297,143,0,-2,-1,0
474945,331,-8299,147,0,-3,-1,0
474950,345,-8299,153,0,-3,-1,0
474955,353,-8297,162,0,-4,0,0
474960,356,-8297,168,0,-4,-1,0
474965,357,-8300,172,0,-4,-1,0
474970,355,-8304,179,0,-4,0,0
474975,351,-8306,188,0,-3,0,0
474980,348,-8304,195,0,-3,0,0
474985,347,-8303,202,0,-2,0,0
474990,348,-8303,206,0,-2,0,0
474995,347,-8303,203,0,-2,0,0
475000,353,-8300,200,0,-2,0,0
475005,361,-8299,199,0,-2,0,0
475010,372,-8299,194,0,-2,0,0
475015,382,-8300,195,0,-2,0,0
475020,394,-8299,192,0,-2,0,0
475025,397,-8302,190,0,-2,0,0
475030,397,-8303,193,0,-3,0,0
475035,392,-8302,194,0,-4,0,0
475040,380,-8304,194,0,-4,0,0
475045,365,-8307,197,0,-5,0,0
475050,352,-8307,196,0,-6,0,0
475055,341,-8308,192,0,-6,0,0
475060,337,-8308,194,0,-7,0,0
475065,330,-8309,193,0,-7,0,0
475070,324,-8310,192,0,-8,0,0
475075,315,-8311,189,0,-7,0,0
475080,311,-8312,189,0,-6,0,0
475085,306,-8311,190,0,-6,0,0
475090,297,-8309,185,0,-6,0,0
475095,290,-8305,177,0,-5,0,0
475100,280,-8302,171,0,-5,0,0
475105,270,-8303,165,0,-5,0,0
475110,259,-8305,159,0,-5,0,0
475115,249,-8307,154,0,-5,0,0
475120,244,-8309,154,0,-5,0,0
475125,243,-8309,155,0,-4,0,0
475130,242,-8308,162,0,-4,0,0
475135,241,-8306,167,0,-4,0,0
475140,243,-8304,177,0,-4,0,0
475145,246,-8305,175,0,-3,0,0
475150,246,-8305,173,0,-3,0,0
475155,242,-8307,170,0,-3,0,0
475160,236,-8307,170,0,-3,0,0
475165,230,-8310,169,0,-3,0,0
475170,225,-8308,166,0,-3,0,0
475175,219,-8307,168,0,-3,0,0
475180,214,-8307,163,0,-2,0,0
475185,210,-8303,155,0,-2,0,0
475190,206,-8305,152,0,-2,0,0
475195,206,-8306,149,0,-2,0,0
475200,209,-8307,143,0,-2,0,0
475205,213,-8307,137,0,-1,0,0
475210,218,-8306,138,0,-2,0,0
475215,219,-8305,136,0,-2,0,0
475220,218,-8305,140,0,-2,-1,0
475225,218,-8305,142,0,-1,0,0
475230,219,-8308,143,0,-1,0,0
475235,224,-8308,146,0,-1,0,0
475240,234,-8307,148,0,-2,-1,0
475245,239,-8308,149,0,-2,0,0
475250,245,-8308,147,0,-2,-1,0
475255,250,-8308,145,0,-2,-1,0
475260,254,-8306,146,0,-2,-1,0
475265,253,-8307,143,0,-3,-1,0
475270,249,-8305,135,0,-3,-1,0
475275,241,-8306,127,0,-3,-1,0
475280,234,-8309,125,0,-3,-1,0
475285,230,-8310,121,0,-2,-1,0
475290,232,-8309,122,0,-2,-1,0
475295,235,-8307,133,0,-2,-1,0
475300,238,-8304,147,0,-3,-1,0
475305,240,-8300,165,0,-3,-1,0
475310,244,-8301,176,0,-2,-1,0
475315,249,-8301,192,0,-2,-1,0
475320,254,-8302,201,0,-2,-1,0
475325,253,-8304,208,0,-2,-1,0
475330,253,-8305,207,0,-2,-1,0
475335,255,-8303,203,0,-2,-1,0
475340,256,-8304,201,0,-1,-1,0
475345,257,-8306,196,0,-1,-1,0
475350,260,-8304,196,0,-1,-1,0
475355,267,-8305,204,0,0,-1,0
475360,277,-8309,212,0,0,-1,0
475365,285,-8310,215,0,0,-1,0
475370,291,-8311,221,0,0,-1,0
475375,298,-8309,224,0,0,-1,0
