millis,ax,ay,az,gx,gy,gz,label
203598,158,-8214,1106,-2,-2,-1,0
203603,155,-8215,1103,-2,-2,-1,0
203608,149,-8217,1101,-2,-2,-1,0
203613,147,-8216,1105,-2,-2,-1,0
203618,144,-8214,1106,-2,-3,-2,0
203623,146,-8214,1102,-2,-3,-2,0
203628,148,-8215,1100,-2,-3,-2,0
203633,153,-8215,1098,-2,-4,-2,0
203638,159,-8212,1099,-2,-4,-2,0
203643,165,-8211,1103,-2,-5,-2,0
203648,175,-8215,1107,-2,-5,-2,0
203653,178,-8216,1107,-2,-5,-2,0
203658,179,-8218,1111,-2,-4,-2,0
203663,186,-8217,1120,-2,-3,-2,0
203668,201,-8215,1132,-2,-3,-2,0
203673,213,-8214,1139,-2,-3,-2,0
203678,220,-8213,1144,-2,-4,-2,0
203683,229,-8214,1147,-2,-5,-2,0
203688,236,-8218,1152,-2,-5,-2,0
203693,242,-8221,1153,-2,-5,-2,0
203698,247,-8220,1160,-3,-5,-2,0
203703,254,-8220,1169,-3,-4,-2,0
203708,267,-8221,1183,-3,-3,-2,0
203713,276,-8221,1195,-3,-3,-2,0
203718,283,-8219,1211,-3,-2,-2,0
203723,288,-8220,1225,-3,-1,-2,0
203728,287,-8223,1235,-3,0,-2,0
203733,286,-8223,1243,-3,1,-2,0
203738,282,-8220,1242,-3,2,-2,0
203743,279,-8220,1232,-3,2,-2,0
203748,274,-8219,1227,-3,2,-2,0
203753,275,-8218,1223,-3,2,-2,0
203758,280,-8220,1209,-3,2,-2,0
203763,290,-8221,1198,-3,2,-2,0
203768,308,-8223,1191,-3,2,-2,0
203773,331,-8224,1184,-3,2,-2,0
203778,350,-8222,1174,-3,1,-2,0
203783,368,-8221,1165,-3,1,-2,0
203788,380,-8221,1153,-3,1,-2,0
203793,385,-8221,1148,-4,0,-2,0
203798,379,-8220,1143,-4,0,-2,0
203803,367,-8220,1137,-4,-1,-2,0
203808,356,-8223,1136,-4,-1,-2,0
203813,345,-8223,1138,-4,0,-2,0
203818,333,-8226,1151,-4,1,-2,0
203823,328,-8227,1163,-4,1,-2,0
203828,330,-8225,1177,-4,2,-2,0
203833,333,-8223,1191,-4,3,-2,0
203838,344,-8224,1197,-4,4,-2,0
203843,353,-8226,1205,-4,4,-2,0
203848,363,-8225,1206,-4,4,-2,0
203853,367,-8223,1202,-4,4,-2,0
203858,369,-8223,1204,-4,4,-2,0
203863,370,-8224,1209,-4,3,-2,0
203868,374,-8224,1212,-5,3,-2,0
203873,380,-8223,1213,-5,2,-2,0
203878,381,-8224,1218,-5,2,-2,0
203883,385,-8225,1220,-5,2,-2,0
203888,389,-8225,1228,-5,3,-2,0
203893,395,-8225,1234,-5,4,-2,0
203898,399,-8226,1235,-5,4,-2,0
203903,400,-8224,1234,-5,5,-2,0
203908,402,-8223,1232,-5,4,-2,0
203913,398,-8222,1222,-5,4,-2,0
203918,391,-8220,1206,-6,3,-2,0
203923,381,-8223,1192,-6,3,-2,0
203928,373,-8224,1183,-6,3,-2,0
203933,362,-8227,1170,-6,3,-2,0
203938,352,-8229,1157,-6,4,-2,0
203943,346,-8231,1151,-6,4,-2,0
203948,346,-8228,1144,-6,5,-2,0
203953,347,-8225,1141,-6,5,-2,0
203958,344,-8228,1135,-6,6,-2,0
203963,344,-8230,1129,-6,6,-2,0
203968,346,-8231,1125,-6,7,-2,0
203973,337,-8232,1122,-6,7,-2,0
203978,320,-8235,1122,-6,7,-2,0
203983,299,-8234,1114,-7,9,-2,0
203988,279,-8232,1112,-7,12,-2,0
203993,263,-8233,1114,-7,15,-2,0
203998,264,-8233,1122,-7,14,-3,0
204003,281,-8236,1106,-7,10,-2,0
204008,204,-8238,1050,-7,8,-1,0
204013,125,-8239,980,-7,7,-1,0
204018,121,-8239,909,-7,10,0,0
204023,223,-8237,832,-7,11,-1,0
204028,379,-8240,815,-7,9,-1,0
204033,546,-8244,842,-7,8,-2,0
204038,673,-8244,862,-7,7,-3,0
204043,711,-8242,877,-7,5,-3,0
204048,662,-8239,894,-7,4,-4,0
204053,557,-8235,874,-7,4,-3,0
204058,429,-8232,828,-7,5,-3,0
204063,323,-8233,780,-7,6,-3,0
204068,269,-8234,732,-7,7,-2,0
204073,269,-8235,698,-7,7,-2,0
204078,316,-8236,692,-7,7,-2,0
204083,383,-8237,700,-7,8,-2,0
204088,442,-8235,732,-7,9,-3,0
204093,480,-8232,756,-7,11,-3,0
204098,495,-8230,765,-7,13,-3,0
204103,485,-8231,760,-7,15,-3,0
204108,459,-8235,740,-7,18,-3,0
204113,442,-8236,712,-7,19,-3,0
204118,437,-8236,686,-7,20,-3,0
204123,453,-8234,658,-7,19,-3,0
204128,488,-8236,637,-7,18,-2,0
204133,534,-8237,622,-7,16,-2,0
204138,581,-8238,619,-7,14,-3,0
204143,616,-8238,620,-7,12,-3,0
204148,634,-8240,623,-7,11,-3,0
204153,631,-8238,619,-7,10,-3,0
204158,610,-8236,606,-7,9,-3,0
204163,583,-8234,587,-7,9,-3,0
204168,556,-8234,561,-6,9,-2,0
204173,538,-8234,539,-6,9,-2,0
204178,527,-8235,511,-7,9,-2,0
204183,522,-8236,492,-7,8,-2,0
204188,521,-8237,484,-7,8,-2,0
204193,518,-8240,476,-7,8,-2,0
204198,508,-8243,475,-6,8,-2,0
204203,494,-8243,484,-6,9,-3,0
204208,471,-8242,490,-6,9,-3,0
204213,440,-8242,479,-6,10,-3,0
204218,410,-8244,459,-6,12,-3,0
204223,384,-8245,440,-6,13,-3,0
204228,367,-8245,418,-6,13,-3,0
204233,348,-8245,397,-6,13,-3,0
204238,337,-8245,381,-6,12,-3,0
204243,334,-8247,366,-6,12,-3,0
204248,337,-8251,356,-6,11,-3,0
204253,351,-8253,339,-6,11,-3,0
204258,376,-8252,315,-6,10,-3,0
204263,414,-8252,266,-5,11,-3,0
204268,465,-8251,204,-5,11,-3,0
204273,538,-8248,118,-5,11,-2,0
204278,632,-8252,14,-5,11,-2,0
204283,734,-8256,-97,-4,10,-2,0
204288,830,-8253,-189,-4,9,-1,0
204293,917,-8247,-290,-4,10,-1,0
204298,1000,-8242,-385,-3,13,-1,0
204303,1094,-8240,-448,-2,11,-1,0
204308,1178,-8239,-498,-1,3,-1,0
204313,1205,-8239,-548,0,-9,-1,0
204318,1163,-8243,-604,0,-17,-1,0
204323,1085,-8256,-627,1,-20,-1,0
204328,967,-8268,-694,0,-17,-1,0
204333,825,-8280,-747,-1,-11,-1,0
204338,674,-8287,-742,-1,-5,-1,0
204343,540,-8290,-654,-2,1,-2,0
204348,439,-8285,-481,-2,5,-1,0
204353,378,-8280,-273,-2,8,-1,0
204358,345,-8275,-68,-2,11,-1,0
204363,334,-8274,119,-2,16,-1,0
204368,348,-8274,292,-2,20,-1,0
204373,392,-8270,446,-2,24,-1,0
204378,424,-8264,576,-2,27,-1,0
204383,463,-8263,647,-1,28,-2,0
204388,474,-8260,682,-1,26,-2,0
204393,457,-8255,648,-1,26,-2,0
204398,436,-8256,530,-1,26,-2,0
204403,422,-8261,402,-1,27,-1,0
204408,435,-8268,263,-1,30,-1,0
204413,510,-8276,149,-1,33,-1,0
204418,629,-8278,102,-1,30,-1,0
204423,758,-8276,110,-2,18,-1,0
204428,834,-8275,137,-2,0,-1,0
204433,838,-8280,206,-2,-11,-1,0
204438,772,-8278,267,-1,-19,-1,0
204443,740,-8275,306,-1,-18,-1,0
204448,692,-8278,359,-1,-14,-1,0
204453,680,-8279,416,-1,-17,-1,0
204458,624,-8281,468,-1,-23,-1,0
204463,524,-8275,469,-1,-22,-1,0
204468,422,-8270,465,-1,-12,-1,0
204473,394,-8271,474,-1,1,-1,0
204478,455,-8271,487,-1,7,-1,0
204483,525,-8270,506,-1,1,-1,0
204488,530,-8271,506,-1,-8,-1,0
204493,486,-8270,477,-1,-10,-1,0
204498,435,-8267,441,-1,-4,-1,0
204503,417,-8268,399,-1,1,-1,0
204508,411,-8270,360,-1,2,-1,0
204513,400,-8272,312,-1,0,-1,0
204518,380,-8275,259,-1,-2,-1,0
204523,365,-8279,219,-1,0,-1,0
204528,372,-8280,188,-1,1,-1,0
204533,399,-8281,173,-1,1,-1,0
204538,427,-8279,160,-1,0,-1,0
204543,440,-8278,146,-1,-1,-1,0
204548,442,-8275,130,0,-1,-1,0
204553,429,-8274,121,0,-1,-2,0
204558,406,-8275,100,0,-2,-2,0
204563,383,-8273,86,0,-3,-2,0
204568,366,-8276,68,0,-4,-2,0
204573,363,-8275,62,0,-5,-1,0
204578,378,-8276,73,0,-6,-1,0
204583,400,-8276,113,0,-8,-2,0
204588,430,-8275,166,0,-10,-1,0
204593,457,-8274,238,0,-12,-2,0
204598,477,-8275,310,0,-13,-2,0
204603,491,-8275,382,0,-14,-2,0
204608,501,-8275,444,0,-14,-2,0
204613,503,-8274,488,0,-13,-2,0
204618,502,-8270,509,0,-12,-2,0
204623,497,-8268,513,0,-9,-2,0
204628,500,-8265,504,0,-6,-1,0
204633,522,-8266,480,0,-2,-1,0
204638,564,-8267,461,0,1,-1,0
204643,632,-8270,451,0,2,-1,0
204648,713,-8270,451,-1,2,-1,0
204653,783,-8269,462,-1,2,-1,0
204658,849,-8268,483,-1,4,-1,0
204663,913,-8266,502,-1,5,-1,0
204668,959,-8264,526,-1,5,-1,0
204673,985,-8262,529,0,4,-1,0
204678,987,-8263,512,0,2,-1,0
204683,961,-8265,480,0,0,0,0
204688,915,-8267,435,0,-1,0,0
204693,856,-8270,387,0,-2,0,0
204698,794,-8271,339,0,-2,0,0
204703,740,-8272,292,0,-1,0,0
204708,694,-8270,255,0,0,0,0
204713,656,-8272,224,0,0,0,0
204718,621,-8272,204,0,1,0,0
204723,589,-8272,193,0,2,0,0
204728,537,-8275,218,0,4,0,0
204733,483,-8279,254,0,5,-1,0
204738,454,-8280,269,0,6,-1,0
204743,434,-8275,301,0,7,-1,0
204748,425,-8273,324,0,7,-1,0
204753,420,-8274,329,0,6,-1,0
204758,415,-8275,331,0,4,-1,0
204763,415,-8277,328,0,2,-1,0
204768,418,-8274,327,0,2,-1,0
204773,424,-8276,332,0,1,0,0
204778,440,-8277,338,0,1,0,0
204783,460,-8275,342,0,0,0,0
204788,483,-8272,346,0,0,0,0
204793,506,-8272,343,0,0,0,0
204798,523,-8272,330,0,-1,0,0
204803,535,-8275,316,0,-1,0,0
204808,544,-8275,312,0,-1,-1,0
204813,531,-8276,303,0,-1,-1,0
204818,512,-8276,307,0,-1,-1,0
204823,497,-8278,321,0,-1,-1,0
204828,481,-8274,343,0,-1,-1,0
204833,467,-8275,375,0,-2,0,0
204838,460,-8277,408,0,-2,0,0
204843,464,-8275,435,0,-1,0,0
204848,474,-8270,464,0,-1,-1,0
204853,482,-8267,482,0,-1,-1,0
204858,487,-8268,492,0,0,-1,0
204863,489,-8271,493,0,-1,-1,0
204868,487,-8272,483,0,-1,-1,0
204873,484,-8272,474,0,-1,-1,0
204878,490,-8268,462,0,-1,-1,0
204883,507,-8266,451,0,-1,-1,0
204888,535,-8264,452,0,-1,0,0
204893,571,-8265,458,0,-1,0,0
204898,601,-8265,460,0,-1,0,0
204903,638,-8265,472,0,0,0,0
204908,669,-8266,486,0,0,0,0
204913,681,-8269,498,0,-1,0,0
204918,687,-8269,508,0,-2,0,0
204923,691,-8270,520,0,-2,0,0
204928,691,-8268,535,0,-3,0,0
204933,688,-8270,552,0,-4,0,0
204938,686,-8271,572,0,-4,0,0
204943,697,-8271,584,0,-4,0,0
204948,714,-8270,594,0,-5,0,0
204953,734,-8268,593,0,-6,0,0
204958,754,-8271,585,0,-7,0,0
204963,773,-8271,561,0,-8,0,0
204968,786,-8270,540,-1,-10,0,0
204973,796,-8266,520,-1,-11,1,0
204978,801,-8265,504,-1,-12,1,0
204983,795,-8265,482,-1,-13,1,0
204988,793,-8268,466,0,-12,1,0
204993,795,-8268,443,0,-12,1,0
204998,797,-8266,416,0,-11,1,0
205003,807,-8268,401,0,-11,1,0
205008,820,-8270,389,0,-11,1,0
205013,833,-8269,386,0,-11,1,0
205018,848,-8269,393,-1,-12,1,0
205023,853,-8269,412,-1,-12,2,0
205028,840,-8268,431,0,-12,1,0
205033,812,-8266,453,0,-12,2,0
205038,776,-8265,466,0,-11,2,0
205043,738,-8266,472,0,-9,2,0
205048,705,-8266,471,0,-9,2,0
205053,677,-8264,465,0,-8,2,0
205058,661,-8264,460,-1,-8,2,0
205063,659,-8264,459,-1,-7,2,0
205068,661,-8263,461,-1,-6,2,0
205073,664,-8263,462,-1,-6,2,0
205078,664,-8261,456,0,-5,2,0
205083,654,-8262,447,0,-4,2,0
205088,631,-8263,432,0,-4,2,0
205093,605,-8263,416,0,-4,2,0
205098,580,-8264,397,0,-4,2,0
205103,556,-8264,384,0,-4,2,0
205108,541,-8265,374,0,-3,2,0
205113,537,-8264,363,0,-3,2,0
205118,542,-8263,361,0,-3,2,0
205123,552,-8265,374,0,-3,2,0
205128,562,-8264,390,0,-3,2,0
205133,564,-8266,404,0,-4,2,0
205138,560,-8267,414,0,-5,2,0
205143,543,-8266,430,0,-5,2,0
205148,524,-8263,436,0,-5,2,0
205153,509,-8264,447,0,-5,2,0
205158,493,-8265,461,0,-6,2,0
205163,476,-8270,473,0,-6,2,0
205168,463,-8273,493,-1,-7,2,0
205173,450,-8273,508,-1,-7,2,0
205178,435,-8271,523,-1,-7,2,0
205183,421,-8270,533,-1,-6,2,0
205188,409,-8271,529,-1,-6,2,0
205193,399,-8274,519,-1,-5,2,0
205198,391,-8274,500,-1,-5,2,0
205203,385,-8274,480,-1,-6,2,0
205208,380,-8276,471,-1,-7,2,0
205213,371,-8274,468,-1,-7,2,0
205218,359,-8274,464,-1,-8,2,0
205223,344,-8273,458,-1,-8,2,0
205228,335,-8273,454,-1,-7,2,0
205233,324,-8272,441,-1,-6,2,0
205238,316,-8271,427,-1,-6,2,0
205243,305,-8269,411,-1,-5,2,0
205248,297,-8269,395,-1,-5,2,0
205253,286,-8269,373,-1,-5,2,0
205258,275,-8268,349,-1,-4,2,0
205263,265,-8271,341,0,-3,2,0
205268,258,-8272,338,0,-3,1,0
205273,251,-8270,342,0,-2,1,0
205278,245,-8270,347,0,-2,1,0
205283,241,-8272,358,-1,-2,1,0
205288,239,-8270,375,0,-2,1,0
205293,238,-8268,392,0,-2,1,0
205298,236,-8267,406,0,-3,1,0
205303,232,-8266,417,0,-3,1,0
205308,226,-8268,421,0,-4,1,0
205313,225,-8272,420,0,-4,1,0
205318,222,-8272,412,0,-5,1,0
205323,214,-8273,400,0,-6,1,0
205328,202,-8271,393,0,-6,1,0
205333,188,-8273,388,0,-5,1,0
205338,181,-8272,385,0,-4,1,0
205343,172,-8272,382,0,-4,1,0
205348,163,-8273,383,0,-3,0,0
205353,152,-8274,380,0,-2,0,0
205358,143,-8275,377,0,-1,0,0
205363,133,-8271,372,0,-1,0,0
205368,125,-8268,367,0,0,0,0
205373,121,-8269,357,0,1,0,0
205378,121,-8269,354,0,2,0,0
205383,129,-8269,357,0,2,0,0
205388,140,-8268,361,0,2,0,0
205393,152,-8269,365,0,3,0,0
205398,166,-8271,374,0,2,0,0
205403,183,-8270,389,0,2,0,0
205408,201,-8270,409,0,1,0,0
205413,217,-8267,430,0,0,0,0
205418,232,-8266,452,0,-1,0,0
205423,246,-8268,469,0,-1,0,0
205428,258,-8269,479,0,-1,0,0
205433,270,-8268,483,0,-1,0,0
205438,280,-8268,475,0,-2,0,0
205443,284,-8267,463,0,-2,0,0
205448,286,-8265,443,0,-2,0,0
205453,285,-8265,427,0,-2,-1,0
205458,285,-8263,409,0,-1,-1,0
205463,288,-8263,396,0,-1,0,0
205468,288,-8266,386,0,0,-1,0
205473,294,-8268,384,0,0,-1,0
205478,298,-8269,381,0,1,-1,0
205483,302,-8270,383,0,1,-1,0
205488,309,-8269,388,0,1,-1,0
205493,319,-8268,397,0,0,-1,0
205498,330,-8269,413,0,0,-1,0
205503,342,-8272,439,0,-1,-1,0
205508,356,-8271,461,0,-2,0,0
205513,366,-8272,480,0,-3,0,0
205518,373,-8273,497,0,-3,-1,0
205523,377,-8273,502,0,-4,-1,0
205528,380,-8271,494,0,-4,-1,0
205533,377,-8272,477,0,-4,-1,0
205538,377,-8272,456,0,-4,-1,0
205543,375,-8273,440,0,-5,-1,0
205548,370,-8273,423,0,-5,0,0
205553,368,-8272,412,0,-5,0,0
205558,367,-8272,406,0,-4,-1,0
205563,364,-8273,401,0,-3,-1,0
205568,364,-8273,404,0,-2,-1,0
205573,364,-8276,407,0,-2,-1,0
205578,360,-8276,410,0,-2,-1,0
205583,355,-8276,411,0,-2,-1,0
205588,351,-8275,416,0,-2,-1,0
205593,351,-8273,421,0,-2,-1,0
205598,353,-8271,420,0,-2,-1,0
205603,361,-8269,422,0,-2,-1,0
205608,367,-8274,428,0,-2,-1,0
205613,375,-8276,431,0,-2,-1,0
205618,381,-8277,434,0,-2,-1,0
205623,387,-8278,436,0,-3,-1,0
205628,389,-8278,441,0,-4,-1,0
205633,386,-8276,448,0,-4,-1,0
205638,385,-8274,455,0,-5,-1,0
205643,384,-8276,461,0,-5,-1,0
205648,385,-8274,464,0,-5,-1,0
205653,389,-8273,460,0,-5,-1,0
205658,394,-8273,450,0,-4,-1,0
205663,397,-8272,438,0,-4,-1,0
205668,400,-8271,427,0,-4,0,0
205673,403,-8270,424,0,-3,-1,0
205678,400,-8270,420,0,-4,-1,0
205683,400,-8271,420,0,-3,0,0
205688,398,-8273,426,0,-3,0,0
205693,396,-8273,435,0,-3,-1,0
205698,397,-8273,439,0,-3,-1,0
205703,396,-8271,440,0,-3,0,0
205708,395,-8268,444,0,-3,-1,0
205713,392,-8265,442,0,-3,-1,0
205718,387,-8268,446,0,-3,0,0
205723,381,-8269,450,0,-2,0,0
205728,377,-8267,445,0,-2,0,0
205733,379,-8266,445,0,-3,0,0
205738,379,-8263,450,0,-3,0,0
205743,382,-8263,463,0,-3,0,0
205748,384,-8263,472,0,-4,0,0
205753,385,-8262,482,0,-4,0,0
205758,386,-8263,493,0,-4,-1,0
205763,382,-8265,494,0,-4,0,0
205768,378,-8265,486,0,-4,0,0
205773,375,-8265,473,0,-4,0,0
205778,373,-8266,462,0,-4,0,0
205783,368,-8267,450,0,-4,0,0
205788,362,-8267,445,0,-4,-1,0
205793,357,-8269,442,0,-3,0,0
205798,351,-8268,446,0,-3,0,0
205803,347,-8271,458,0,-2,-1,0
205808,344,-8273,468,0,-2,0,0
205813,341,-8272,485,0,-2,-1,0
205818,339,-8272,506,0,-3,-1,0
205823,339,-8270,518,0,-3,-1,0
205828,339,-8268,522,0,-3,-1,0
205833,337,-8265,524,0,-3,-1,0
205838,334,-8262,516,0,-3,-1,0
205843,328,-8263,511,0,-4,-1,0
205848,323,-8266,502,-1,-4,-1,0
205853,320,-8266,499,-1,-4,-1,0
205858,314,-8263,492,-1,-4,-1,0
205863,308,-8263,486,-1,-4,-1,0
205868,300,-8264,477,-1,-4,-1,0
205873,293,-8268,469,-1,-4,-1,0
205878,289,-8268,457,-1,-4,-1,0
205883,286,-8270,445,0,-4,-1,0
205888,281,-8273,429,0,-4,-1,0
205893,280,-8271,415,0,-3,-1,0
205898,274,-8269,401,0,-3,-1,0
205903,269,-8269,391,0,-2,-1,0
205908,265,-8270,381,0,-2,-1,0
205913,263,-8269,377,0,-1,-1,0
205918,260,-8270,380,0,-1,-1,0
205923,260,-8269,388,0,-1,-1,0
205928,264,-8267,400,0,-1,-1,0
205933,273,-8266,412,0,-1,-1,0
205938,286,-8265,421,0,-1,-1,0
205943,297,-8263,428,0,-2,-1,0
205948,306,-8265,432,0,-2,-1,0
205953,317,-8267,428,0,-2,-1,0
205958,325,-8268,430,0,-2,-1,0
205963,328,-8268,428,0,-3,-1,0
205968,328,-8265,427,0,-3,-1,0
205973,325,-8262,420,0,-3,-1,0
205978,323,-8263,410,0,-2,-1,0
205983,322,-8263,404,0,-1,-1,0
205988,323,-8263,400,0,0,-1,0
205993,328,-8264,401,0,0,-1,0
205998,330,-8267,403,0,1,-1,0
206003,335,-8266,412,0,1,-1,0
206008,340,-8264,421,0,1,-1,0
206013,343,-8263,424,0,1,-1,0
206018,352,-8264,436,0,1,-1,0
206023,364,-8262,450,0,1,-1,0
206028,378,-8258,460,0,1,-1,0
206033,390,-8258,462,0,0,-1,0
206038,401,-8258,468,0,0,-1,0
206043,412,-8259,468,0,-1,-1,0
206048,420,-8263,465,0,-1,-1,0
206053,423,-8265,465,0,-1,-1,0
206058,430,-8267,464,0,-1,-1,0
206063,437,-8265,461,0,0,-1,0
206068,441,-8267,454,0,0,-1,0
206073,442,-8266,455,0,0,-1,0
206078,443,-8266,454,0,0,-1,0
206083,446,-8266,454,0,0,-1,0
206088,447,-8266,456,0,0,-1,0
206093,450,-8265,458,0,1,-1,0
206098,454,-8265,462,0,1,-1,0
206103,460,-8266,471,0,1,-1,0
206108,470,-8264,472,0,1,-1,0
206113,481,-8264,475,0,1,-1,0
206118,491,-8266,486,0,0,-1,0
206123,500,-8264,490,0,0,-1,0
206128,509,-8260,497,0,0,-1,0
206133,514,-8257,501,0,-1,-1,0
206138,518,-8253,501,0,-1,-1,0
206143,523,-8255,501,0,-1,-1,0
206148,528,-8258,499,0,-1,-1,0
206153,529,-8259,500,0,-2,-1,0
206158,529,-8262,504,0,-2,-1,0
206163,524,-8261,504,0,-2,-1,0
206168,519,-8260,504,0,-3,-1,0
206173,514,-8259,499,0,-3,-1,0
206178,512,-8261,488,0,-3,-1,0
206183,508,-8261,474,0,-3,-1,0
206188,504,-8264,461,0,-3,-1,0
206193,501,-8264,453,0,-3,-1,0
206198,495,-8264,451,0,-3,-1,0
206203,484,-8264,452,0,-4,-1,0
206208,473,-8263,454,0,-4,-1,0
206213,466,-8263,450,0,-4,-1,0
206218,460,-8265,452,0,-3,-1,0
206223,454,-8265,450,0,-3,-1,0
206228,447,-8263,437,0,-3,-1,0
206233,442,-8261,423,0,-3,-1,0
206238,438,-8264,412,0,-3,-1,0
206243,432,-8264,400,0,-2,-1,0
206248,431,-8263,389,0,-2,-1,0
206253,428,-8263,388,0,-2,-1,0
206258,425,-8265,387,0,-2,-1,0
206263,427,-8264,390,0,-2,-1,0
206268,433,-8266,393,0,-2,-1,0
206273,440,-8268,400,0,-3,-1,0
206278,443,-8265,407,0,-3,-1,0
206283,441,-8266,415,0,-4,-1,0
206288,441,-8265,418,0,-4,-1,0
206293,435,-8265,424,0,-4,-1,0
206298,426,-8265,433,0,-3,-1,0
206303,420,-8267,434,0,-3,-1,0
206308,411,-8267,441,0,-3,-1,0
206313,405,-8266,451,0,-2,-1,0
206318,401,-8267,453,0,-2,-1,0
206323,404,-8269,461,0,-2,-1,0
206328,408,-8269,475,0,-2,-1,0
206333,415,-8268,492,0,-2,-1,0
206338,421,-8267,503,0,-2,-1,0
206343,429,-8268,506,0,-2,-1,0
206348,431,-8265,505,0,-2,-1,0
206353,435,-8266,503,0,-2,-1,0
206358,435,-8267,496,0,-2,-1,0
206363,433,-8265,491,0,-2,-1,0
206368,439,-8263,493,0,-2,-1,0
206373,449,-8263,493,0,-2,-1,0
206378,456,-8266,496,0,-3,-1,0
206383,463,-8269,510,0,-4,-1,0
206388,467,-8270,519,0,-4,-1,0
206393,470,-8270,525,0,-4,-1,0
206398,469,-8270,526,0,-4,-1,0
206403,463,-8269,519,0,-4,-1,0
206408,455,-8269,514,0,-3,-1,0
206413,447,-8270,506,0,-3,-1,0
206418,439,-8271,494,0,-3,-1,0
206423,434,-8272,485,0,-2,-1,0
206428,433,-8268,482,0,-2,-1,0
206433,434,-8267,482,0,-2,-1,0
206438,437,-8267,488,0,-2,-1,0
206443,441,-8266,495,0,-2,-1,0
206448,443,-8269,497,0,-2,-1,0
206453,441,-8270,495,0,-2,-1,0
206458,435,-8266,495,0,-1,-1,0
206463,427,-8264,487,0,-1,-1,0
206468,418,-8264,478,0,-1,-1,0
206473,415,-8265,465,0,-1,-1,0
206478,411,-8263,457,0,-1,-1,0
206483,412,-8263,452,0,-1,-1,0
206488,417,-8263,451,0,-1,-1,0
206493,426,-8265,458,0,-1,-1,0
206498,432,-8267,468,0,-1,-1,0
206503,436,-8267,474,0,-1,-1,0
206508,437,-8268,478,0,-1,-1,0
206513,436,-8266,480,0,-1,-1,0
206518,432,-8266,474,0,-1,-1,0
206523,428,-8263,466,0,-1,-1,0
206528,423,-8264,456,0,-1,-1,0
206533,424,-8265,447,0,-1,-1,0
206538,426,-8264,443,0,-1,-1,0
206543,431,-8266,441,0,-1,-1,0
206548,443,-8264,446,0,-1,-1,0
206553,452,-8263,451,0,-1,-1,0
206558,456,-8263,457,0,-2,-1,0
206563,457,-8263,462,0,-2,-1,0
206568,455,-8263,472,0,-2,-1,0
206573,452,-8259,481,0,-2,-1,0
206578,446,-8258,488,0,-2,-1,0
206583,439,-8259,489,0,-2,-1,0
206588,429,-8260,496,0,-2,-1,0
206593,427,-8263,504,0,-2,-1,0
206598,428,-8264,505,0,-2,-1,1
206603,430,-8263,502,0,-2,-1,1
206608,432,-8265,501,0,-2,-1,1
206613,432,-8266,493,0,-1,-1,1
206618,428,-8267,487,0,-1,-1,1
206623,423,-8270,485,0,-1,-1,1
206628,420,-8270,481,0,-1,-1,1
206633,417,-8268,479,0,-1,-1,1
206638,417,-8267,478,0,-1,-1,1
206643,419,-8268,469,0,-1,-1,1
206648,425,-8270,469,0,-1,-1,1
206653,430,-8272,475,0,-1,-1,1
206658,437,-8272,476,0,-1,-1,1
206663,439,-8271,473,0,-1,-1,1
206668,443,-8268,475,0,-1,-1,1
206673,448,-8264,475,0,-1,-1,1
206678,447,-8262,478,0,-1,-1,1
206683,447,-8260,487,0,-1,-1,1
206688,443,-8258,495,0,-1,-1,1
206693,439,-8258,506,0,-1,-1,1
206698,441,-8257,519,0,-1,-1,1
206703,444,-8257,526,0,-1,-1,1
206708,449,-8259,535,0,-1,-1,1
206713,460,-8262,538,0,-1,-1,1
206718,469,-8262,537,0,-1,-1,1
206723,480,-8265,532,0,-1,-1,1
206728,488,-8267,523,0,-1,-1,1
206733,493,-8267,518,0,-1,-1,1
206738,495,-8269,516,0,-1,-1,1
206743,498,-8268,526,0,-1,-1,1
206748,505,-8269,534,0,-1,-1,1
206753,510,-8268,542,0,-1,-1,1
206758,512,-8268,554,0,-1,-1,1
206763,517,-8269,565,0,-1,-1,1
206768,523,-8270,573,0,-1,-1,1
206773,526,-8271,574,0,-1,0,1
206778,530,-8272,573,-1,-1,-1,1
206783,534,-8270,569,-1,-1,-1,1
206788,532,-8268,565,-1,-2,-1,1
206793,532,-8270,560,-1,-2,-1,1
206798,527,-8269,556,-1,-2,0,1
206803,523,-8268,554,-1,-2,0,1
206808,522,-8267,558,-1,-2,0,1
206813,519,-8264,559,-1,-2,0,1
206818,517,-8265,556,-1,-2,0,1
206823,516,-8265,551,-1,-2,0,1
206828,519,-8265,541,-1,-2,0,1
206833,517,-8264,532,-1,-2,0,1
206838,512,-8262,524,-1,-2,0,1
206843,507,-8261,512,-1,-2,0,1
206848,502,-8261,503,-1,-2,0,1
206853,500,-8262,500,-1,-2,0,1
206858,499,-8263,494,-1,-2,0,1
206863,503,-8262,487,-1,-2,0,1
206868,506,-8264,485,-1,-2,0,1
206873,514,-8266,477,-1,-3,0,1
206878,523,-8267,475,-1,-3,0,1
206883,523,-8267,475,-1,-3,0,1
206888,524,-8267,473,-1,-3,0,1
206893,522,-8268,471,-1,-3,0,1
206898,515,-8269,474,-1,-4,0,1
206903,509,-8270,472,-1,-4,0,1
206908,504,-8268,471,-1,-4,0,1
206913,497,-8265,471,-1,-4,0,1
206918,487,-8266,472,-1,-4,0,1
206923,475,-8266,470,-1,-4,0,1
206928,463,-8262,470,-1,-3,0,1
206933,454,-8260,461,0,-3,0,1
206938,449,-8263,451,0,-3,0,1
206943,443,-8266,439,0,-2,0,1
206948,437,-8269,432,0,-2,0,1
206953,432,-8271,428,0,-2,0,1
206958,427,-8273,426,0,-2,0,1
206963,421,-8275,429,0,-2,0,1
206968,417,-8273,433,0,-2,0,1
206973,414,-8276,438,0,-1,0,1
206978,408,-8276,446,0,-1,0,1
206983,403,-8276,455,0,-1,0,1
206988,397,-8274,459,0,0,0,1
206993,393,-8274,464,0,0,0,1
206998,389,-8270,479,0,0,0,1
207003,387,-8270,491,0,0,0,1
207008,387,-8269,499,0,1,0,1
207013,386,-8269,511,0,1,0,1
207018,385,-8267,518,0,2,0,1
207023,383,-8269,524,0,2,0,1
207028,380,-8271,531,-1,2,0,1
207033,381,-8270,534,-1,3,0,1
207038,385,-8272,539,-1,3,0,1
207043,389,-8273,543,-1,3,0,1
207048,398,-8275,542,-1,3,0,1
207053,411,-8277,538,-1,2,0,1
207058,422,-8278,528,-1,2,0,1
207063,434,-8277,524,-1,2,0,1
207068,443,-8279,516,-1,1,0,1
207073,450,-8278,505,-1,1,0,1
207078,459,-8273,496,-1,1,0,1
207083,464,-8273,486,-1,1,0,1
207088,464,-8273,465,-1,1,0,1
207093,465,-8274,455,0,1,0,1
207098,470,-8274,441,0,1,0,1
207103,475,-8276,428,0,1,0,1
207108,478,-8275,423,0,0,0,1
207113,480,-8273,418,0,0,0,1
207118,482,-8272,417,0,1,0,1
207123,481,-8271,415,0,1,0,1
207128,479,-8272,415,0,2,0,1
207133,474,-8271,409,0,2,0,1
207138,468,-8272,404,0,2,0,1
207143,462,-8276,409,0,2,0,1
207148,464,-8279,416,0,2,0,1
207153,475,-8280,418,0,1,0,1
207158,494,-8278,419,0,0,0,1
207163,521,-8275,415,0,-1,0,1
207168,550,-8273,412,0,-2,0,1
207173,578,-8276,400,0,-3,0,1
207178,604,-8277,392,0,-3,0,1
207183,626,-8277,381,0,-4,0,1
207188,641,-8275,375,0,-5,0,1
207193,644,-8277,373,0,-6,0,1
207198,640,-8279,379,0,-7,0,1
207203,626,-8279,392,0,-8,0,1
207208,606,-8277,404,0,-8,1,1
207213,578,-8274,423,0,-7,1,1
207218,553,-8272,444,0,-6,1,1
207223,532,-8269,459,0,-5,1,1
207228,519,-8267,477,0,-5,1,1
207233,509,-8267,494,0,-6,1,1
207238,507,-8262,507,0,-7,1,1
207243,512,-8261,522,0,-8,1,1
207248,522,-8261,530,0,-8,1,1
207253,530,-8262,536,0,-9,1,1
207258,524,-8265,536,0,-10,1,1
207263,502,-8264,532,0,-10,1,1
207268,465,-8265,518,0,-10,1,1
207273,411,-8264,498,0,-8,0,1
207278,347,-8266,473,0,-6,0,1
207283,286,-8266,452,0,-4,0,1
207288,233,-8266,437,0,-2,0,1
207293,189,-8266,430,0,0,0,1
207298,156,-8268,431,0,2,0,1
207303,124,-8271,439,0,3,0,1
207308,82,-8272,460,0,6,0,1
207313,24,-8274,493,0,8,-1,1
207318,-52,-8277,550,0,11,-1,1
207323,-158,-8277,628,0,12,-2,1
207328,-297,-8276,729,-1,12,-2,1
207333,-458,-8273,864,-1,10,-3,1
207338,-629,-8271,1022,-1,8,-4,1
207343,-811,-8272,1191,-2,5,-5,1
207348,-998,-8279,1358,-2,1,-8,1
207353,-1257,-8282,1456,-3,-2,-10,1
207358,-1605,-8280,1513,-3,-3,-11,1
207363,-2069,-8278,1563,-3,-2,-11,1
207368,-2774,-8286,1702,-4,-3,-12,1
207373,-3626,-8290,1872,-5,-3,-15,1
207378,-4365,-8284,1959,-6,3,-17,1
207383,-4993,-8268,2022,-6,12,-19,1
207388,-5706,-8259,2249,-6,20,-20,1
207393,-6262,-8248,2360,-6,27,-21,1
207398,-6632,-8231,2409,-7,41,-23,1
207403,-6875,-8212,2470,-8,57,-25,1
207408,-6936,-8185,2445,-8,70,-28,1
207413,-6932,-8151,2444,-9,83,-32,1
207418,-6917,-8112,2484,-10,92,-35,1
207423,-6905,-8068,2560,-11,100,-38,1
207428,-6910,-8019,2711,-12,107,-40,1
207433,-6867,-7965,2892,-12,110,-42,1
207438,-6733,-7907,3099,-12,109,-43,1
207443,-6480,-7843,3303,-12,108,-43,1
207448,-6105,-7769,3452,-13,109,-44,1
207453,-5613,-7696,3526,-13,114,-45,1
207458,-5080,-7619,3597,-13,121,-46,1
207463,-4630,-7543,3645,-13,127,-47,1
207468,-4296,-7470,3694,-12,134,-46,1
207473,-4240,-7432,3805,-12,139,-46,1
207478,-4591,-7348,4061,-13,138,-52,1
207483,-3824,-7203,4015,-15,138,-54,1
207488,-1951,-7128,3555,-13,166,-46,1
207493,-986,-7081,3350,-11,172,-42,1
207498,-514,-7070,3396,-10,149,-42,1
207503,1450,-7084,3098,-11,156,-48,1
207508,2706,-7078,2810,-11,180,-50,1
207513,3516,-7078,2685,-10,159,-53,1
207518,4198,-7109,2535,-10,147,-55,1
207523,3905,-7126,2483,-10,139,-53,1
207528,3671,-7147,2436,-10,118,-50,1
207533,3468,-7172,2400,-9,116,-45,1
207538,3348,-7181,2389,-9,120,-39,1
207543,3997,-7193,2311,-8,129,-37,1
207548,4914,-7212,2172,-7,141,-35,1
207553,6058,-7246,2009,-6,141,-34,1
207558,7304,-7293,1748,-6,136,-35,1
207563,8225,-7349,1511,-6,123,-36,1
207568,8783,-7411,1318,-6,103,-36,1
207573,8847,-7466,1176,-6,85,-34,1
207578,8544,-7517,1112,-6,66,-32,1
207583,8104,-7565,1098,-6,52,-28,1
207588,7617,-7606,1088,-5,44,-24,1
207593,7360,-7646,1028,-4,41,-21,1
207598,7317,-7685,948,-4,45,-18,1
207603,7436,-7722,854,-4,46,-17,1
207608,7766,-7762,763,-4,45,-16,1
207613,8024,-7795,731,-4,42,-15,1
207618,8135,-7825,778,-4,37,-15,1
207623,8138,-7851,841,-5,33,-14,1
207628,7871,-7873,914,-4,28,-13,1
207633,7475,-7897,965,-4,23,-11,1
207638,7075,-7922,905,-4,22,-10,1
207643,6662,-7944,814,-3,23,-7,1
207648,6384,-7968,686,-3,24,-6,1
207653,6282,-7989,523,-4,27,-5,1
207658,6252,-8002,389,-4,25,-4,1
207663,6244,-8017,308,-4,21,-4,1
207668,6191,-8028,275,-4,18,-4,1
207673,6008,-8036,330,-4,14,-4,1
207678,5708,-8041,417,-4,11,-4,1
207683,5320,-8047,497,-4,8,-3,1
207688,4859,-8051,574,-3,7,-2,1
207693,4451,-8059,579,-3,6,-1,1
207698,4147,-8068,532,-3,6,0,1
207703,3929,-8072,471,-3,5,1,1
207708,3826,-8080,380,-3,4,2,1
207713,3774,-8086,303,-3,5,1,1
207718,3702,-8092,266,-3,5,1,1
207723,3600,-8095,264,-3,5,0,1
207728,3397,-8093,311,-3,3,0,1
207733,3104,-8095,386,-3,0,0,1
207738,2787,-8096,450,-3,-1,0,1
207743,2470,-8095,484,-2,0,0,1
207748,2208,-8098,459,-2,3,1,1
207753,2057,-8102,383,-2,6,1,1
207758,1994,-8108,263,-2,8,1,1
207763,2003,-8113,135,-2,9,1,1
207768,2052,-8113,46,-2,10,0,1
207773,2083,-8113,17,-2,11,0,1
207778,2075,-8112,54,-2,10,-1,1
207783,2029,-8107,149,-2,9,-1,1
207788,1943,-8103,267,-2,8,-1,1
207793,1866,-8100,372,-1,7,-1,1
207798,1818,-8098,438,-1,5,-1,1
207803,1784,-8098,464,-1,2,0,1
207808,1789,-8099,440,-1,1,0,1
207813,1818,-8100,373,-1,1,0,1
207818,1852,-8106,302,-1,0,-1,1
207823,1886,-8113,239,-1,-1,-1,1
207828,1900,-8118,203,-1,-2,-1,1
207833,1877,-8118,208,-1,-2,-1,1
207838,1846,-8118,244,-1,0,-1,1
207843,1806,-8118,311,-1,2,-2,1
207848,1760,-8117,382,-1,3,-1,1
207853,1736,-8116,438,-1,4,-1,1
207858,1736,-8115,468,0,5,-1,1
207863,1749,-8113,462,0,5,-1,1
207868,1788,-8113,431,0,6,-1,1
207873,1838,-8114,406,0,7,-1,1
207878,1888,-8117,388,-1,6,-1,1
207883,1939,-8118,393,-1,4,-2,1
207888,1975,-8111,430,-1,2,-2,1
207893,2004,-8106,485,-1,1,-2,1
207898,2025,-8104,550,-1,-1,-2,1
207903,2027,-8104,603,-1,-2,-2,1
207908,2024,-8105,627,0,-3,-2,1
207913,2012,-8103,625,0,-4,-2,1
207918,1992,-8102,601,0,-3,-2,1
207923,1991,-8105,543,0,-1,-1,1
207928,2000,-8107,479,0,0,-1,1
207933,2008,-8109,428,-1,3,-1,1
207938,2029,-8108,406,-1,6,-2,1
207943,2048,-8109,414,-1,8,-2,1
207948,2061,-8109,457,-1,10,-2,1
207953,2074,-8106,520,-1,11,-2,1
207958,2083,-8102,584,-1,13,-2,1
207963,2098,-8103,644,-1,12,-2,1
207968,2129,-8103,680,-1,10,-2,1
207973,2164,-8104,693,-1,8,-1,1
207978,2204,-8106,688,0,5,-1,1
207983,2269,-8109,663,-1,4,-1,1
207988,2328,-8108,636,-1,2,-1,1
207993,2374,-8108,618,-1,1,-1,1
207998,2405,-8107,605,-1,0,-1,1
208003,2410,-8107,608,-1,0,-1,1
208008,2396,-8106,625,-1,-1,-1,1
208013,2380,-8103,646,-1,-1,-1,1
208018,2361,-8102,659,-1,0,0,1
208023,2353,-8101,643,-1,1,0,1
208028,2361,-8105,613,-1,2,0,1
208033,2371,-8107,580,-1,3,0,1
208038,2386,-8108,547,-1,3,0,1
208043,2393,-8107,532,-1,2,0,1
208048,2380,-8105,539,-1,1,0,1
208053,2368,-8102,571,-1,-1,0,1
208058,2350,-8105,610,-1,-4,0,1
208063,2320,-8102,645,-1,-5,0,1
208068,2302,-8100,668,-1,-7,0,1
208073,2295,-8099,671,0,-7,0,1
208078,2280,-8096,645,0,-8,0,1
208083,2273,-8100,595,0,-8,0,1
208088,2271,-8105,532,0,-6,0,1
208093,2262,-8108,472,-1,-5,0,1
208098,2255,-8111,434,-1,-5,0,1
208103,2240,-8110,425,-1,-4,0,1
208108,2216,-8109,443,-1,-4,0,1
208113,2195,-8107,480,-1,-3,0,1
208118,2173,-8105,529,-1,-2,0,1
208123,2149,-8102,562,0,-3,0,1
208128,2133,-8103,571,0,-3,0,1
208133,2111,-8104,558,0,-4,0,1
208138,2090,-8104,530,0,-4,0,1
208143,2078,-8103,496,0,-3,0,1
208148,2058,-8104,476,0,-3,0,1
208153,2037,-8108,458,-1,-3,0,1
208158,2025,-8109,459,-1,-2,0,1
208163,2005,-8110,484,-1,-2,0,1
208168,1982,-8108,524,-1,-2,0,1
208173,1964,-8105,569,0,-3,0,1
208178,1944,-8104,604,0,-3,0,1
208183,1933,-8102,615,0,-3,0,1
208188,1940,-8103,607,0,-3,0,1
208193,1941,-8105,574,0,-3,0,1
208198,1946,-8108,533,0,-3,0,1
208203,1954,-8110,499,0,-3,0,1
208208,1949,-8111,482,0,-3,0,1
208213,1945,-8113,482,0,-2,0,1
208218,1934,-8113,496,0,-2,0,1
208223,1918,-8113,520,0,-1,0,1
208228,1919,-8113,534,0,0,0,1
208233,1922,-8113,543,0,1,0,1
208238,1925,-8111,544,0,1,0,1
208243,1935,-8109,530,0,1,0,1
208248,1946,-8107,514,0,1,0,1
208253,1950,-8109,498,0,1,0,1
208258,1964,-8110,489,0,1,-1,1
208263,1976,-8110,500,0,2,0,1
208268,1984,-8110,533,0,1,0,1
208273,2002,-8110,572,0,1,0,1
208278,2016,-8110,616,0,0,0,1
208283,2031,-8106,645,0,-1,0,1
208288,2049,-8104,653,0,-1,0,1
208293,2062,-8104,653,0,-2,0,1
208298,2070,-8104,631,0,-3,0,1
208303,2075,-8109,599,0,-3,0,1
208308,2067,-8113,573,0,-2,-1,1
208313,2055,-8115,562,0,-1,-1,1
208318,2045,-8117,562,0,0,-1,1
208323,2029,-8115,574,0,1,-1,1
208328,2026,-8114,599,0,2,0,1
208333,2032,-8111,627,0,2,0,1
208338,2044,-8109,660,0,2,0,1
208343,2076,-8112,684,0,2,0,1
208348,2112,-8111,690,0,3,0,1
208353,2136,-8112,690,0,2,0,1
208358,2159,-8116,691,0,1,0,1
208363,2172,-8117,693,-1,0,0,1
208368,2163,-8112,704,-1,-1,0,1
208373,2147,-8112,724,-1,-2,0,1
208378,2129,-8112,745,-1,-2,0,1
208383,2102,-8112,762,-1,-2,0,1
208388,2084,-8111,765,-1,-2,0,1
208393,2075,-8109,755,-1,-2,0,1
208398,2066,-8107,735,-1,-1,0,1
208403,2066,-8106,708,-1,-1,0,1
208408,2064,-8108,671,-1,0,0,1
208413,2054,-8111,639,-1,1,0,1
208418,2050,-8114,614,-1,3,0,1
208423,2035,-8113,588,-1,3,-1,1
208428,2018,-8115,589,-1,3,-1,1
208433,2006,-8114,608,-1,2,-1,1
208438,1985,-8112,636,-1,2,-1,1
208443,1955,-8107,662,-1,1,-1,1
208448,1940,-8107,676,-1,1,-1,1
208453,1923,-8109,677,-1,1,-1,1
208458,1916,-8109,660,-1,1,-1,1
208463,1918,-8112,633,-1,0,-1,1
208468,1918,-8114,598,-1,0,-1,1
208473,1925,-8112,570,-1,0,-1,1
208478,1935,-8111,545,-1,1,-1,1
208483,1939,-8109,534,-1,2,-1,1
208488,1948,-8107,530,-1,2,-1,1
208493,1954,-8108,530,-1,2,-1,1
208498,1948,-8108,542,-1,1,-1,1
208503,1949,-8109,553,-1,1,-1,1
208508,1957,-8110,557,-1,1,-1,1
208513,1961,-8109,556,-1,1,-1,1
208518,1973,-8111,540,-1,1,-1,1
208523,1981,-8113,519,-1,2,-1,1
208528,1985,-8113,505,-1,3,-1,1
208533,1993,-8114,495,-1,3,-1,1
208538,1994,-8114,500,-1,3,-1,1
208543,1994,-8112,511,-1,3,-1,1
208548,2012,-8113,526,-1,4,-1,1
208553,2039,-8114,543,-1,4,-1,1
208558,2074,-8113,557,-1,4,-1,1
208563,2120,-8113,565,-1,3,-1,1
208568,2156,-8111,564,-1,2,-1,1
208573,2183,-8112,556,-1,2,-1,1
208578,2208,-8112,548,-1,1,-1,1
208583,2216,-8113,531,-1,0,-1,1
208588,2215,-8115,525,-1,-1,-1,1
208593,2206,-8115,529,-1,-1,-1,1
208598,2188,-8115,533,-1,-1,-1,0
208603,2173,-8114,541,-1,0,-1,0
208608,2170,-8113,544,-1,1,0,0
208613,2170,-8112,540,-1,2,0,0
208618,2174,-8114,527,-1,2,0,0
208623,2185,-8114,526,-1,2,0,0
208628,2188,-8112,530,-1,1,0,0
208633,2190,-8110,538,-1,0,0,0
208638,2193,-8109,555,-1,0,0,0
208643,2191,-8110,568,-1,-1,0,0
208648,2192,-8110,581,0,-2,0,0
208653,2192,-8109,583,0,-3,0,0
208658,2185,-8109,577,0,-3,0,0
208663,2176,-8110,561,0,-4,0,0
208668,2162,-8109,538,0,-3,0,0
208673,2143,-8112,512,0,-2,0,0
208678,2131,-8110,495,0,-2,0,0
208683,2110,-8110,493,-1,-1,0,0
208688,2085,-8108,496,-1,0,0,0
208693,2072,-8108,507,-1,2,0,0
208698,2059,-8108,524,-1,3,0,0
208703,2050,-8111,554,-1,3,0,0
208708,2056,-8112,575,-1,3,0,0
208713,2058,-8109,587,-1,2,0,0
208718,2059,-8107,601,-1,1,0,0
208723,2073,-8106,605,0,0,0,0
208728,2080,-8106,604,0,-1,0,0
208733,2082,-8106,602,0,-2,0,0
208738,2086,-8105,594,0,-3,0,0
208743,2077,-8105,582,0,-3,0,0
208748,2057,-8104,564,0,-3,0,0
208753,2040,-8107,547,0,-3,0,0
208758,2017,-8109,533,0,-2,0,0
208763,2002,-8111,528,0,-2,0,0
208768,1997,-8114,527,0,-2,0,0
208773,1999,-8113,529,0,-2,0,0
208778,2007,-8110,539,0,-2,0,0
208783,2028,-8111,539,0,-1,0,0
208788,2042,-8108,536,0,-1,0,0
208793,2055,-8107,529,0,-1,-1,0
208798,2062,-8111,522,0,-2,0,0
208803,2051,-8116,516,0,-2,-1,0
208808,2040,-8118,518,0,-2,-1,0
208813,2031,-8117,519,0,-2,-1,0
208818,2021,-8115,526,0,-2,-1,0
208823,2017,-8112,533,0,-2,-1,0
208828,2016,-8114,542,0,-1,0,0
208833,2021,-8112,545,0,-2,0,0
208838,2033,-8112,539,0,-1,0,0
208843,2049,-8112,530,0,-1,0,0
208848,2062,-8115,524,0,-2,0,0
208853,2073,-8115,515,0,-2,0,0
208858,2075,-8117,512,0,-1,0,0
208863,2074,-8119,520,0,0,0,0
208868,2074,-8119,530,0,1,0,0
208873,2073,-8120,542,0,1,-1,0
208878,2076,-8123,562,0,1,0,0
208883,2084,-8124,576,0,0,0,0
208888,2090,-8122,590,0,-1,0,0
208893,2097,-8123,609,0,-1,0,0
208898,2104,-8123,615,0,-1,0,0
208903,2108,-8121,612,0,-1,0,0
208908,2113,-8117,605,0,-2,0,0
208913,2111,-8115,591,0,-2,0,0
208918,2104,-8116,582,0,-3,0,0
208923,2093,-8115,573,0,-2,0,0
208928,2083,-8115,567,0,-2,0,0
208933,2070,-8113,567,0,-2,0,0
208938,2065,-8113,571,0,-1,0,0
208943,2064,-8110,575,0,-1,0,0
208948,2060,-8107,587,0,-1,0,0
208953,2060,-8106,594,0,-1,0,0
208958,2058,-8106,599,0,-1,0,0
208963,2052,-8107,605,0,-1,0,0
208968,2049,-8111,606,0,-1,0,0
208973,2049,-8111,600,0,0,0,0
208978,2045,-8108,598,0,-1,0,0
208983,2042,-8111,593,0,-1,0,0
208988,2033,-8111,590,0,-1,0,0
208993,2021,-8112,594,0,-1,0,0
208998,2013,-8112,593,0,-1,0,0
209003,2005,-8112,588,0,0,0,0
209008,2003,-8113,583,0,-1,0,0
209013,2000,-8114,573,0,-1,-1,0
209018,1992,-8114,563,0,0,0,0
209023,1982,-8115,557,0,0,-1,0
209028,1976,-8114,554,0,1,-1,0
209033,1970,-8116,552,-1,2,-1,0
209038,1966,-8117,557,-1,2,-1,0
209043,1968,-8119,567,-1,3,-1,0
209048,1971,-8121,584,-1,3,-1,0
209053,1979,-8120,604,-1,3,-1,0
209058,1990,-8116,618,0,2,-1,0
209063,1998,-8116,624,0,2,-1,0
209068,2005,-8118,628,0,1,-1,0
209073,2013,-8120,627,0,0,-1,0
209078,2014,-8120,623,0,-1,-1,0
209083,2016,-8119,618,0,-1,-1,0
209088,2013,-8116,608,-1,-2,-1,0
209093,2004,-8117,604,-1,-2,-1,0
209098,1989,-8116,602,-1,-1,-1,0
209103,1974,-8115,596,-1,0,-1,0
209108,1958,-8115,584,-1,1,-1,0
209113,1953,-8120,575,-1,1,-1,0
209118,1955,-8122,577,-1,2,-1,0
209123,1961,-8123,573,-1,2,-1,0
209128,1983,-8123,569,-1,3,-1,0
209133,2011,-8123,566,-1,3,-1,0
209138,2035,-8121,571,-1,4,-1,0
209143,2056,-8118,573,-1,4,-1,0
209148,2069,-8115,572,-1,4,-1,0
209153,2076,-8113,580,-1,3,-1,0
209158,2084,-8111,586,-1,2,-1,0
209163,2087,-8110,583,-1,2,-1,0
209168,2098,-8112,586,-1,1,-1,0
209173,2117,-8115,580,-1,0,-1,0
209178,2140,-8114,578,0,0,-1,0
209183,2163,-8113,570,0,-1,-1,0
209188,2186,-8111,561,0,-1,-1,0
209193,2203,-8108,554,0,-1,-1,0
209198,2205,-8106,550,0,-2,-1,0
209203,2198,-8106,545,0,-2,-1,0
209208,2187,-8106,539,0,-2,-1,0
209213,2168,-8106,535,0,-2,-1,0
209218,2152,-8105,530,0,-1,0,0
209223,2139,-8105,531,0,-1,0,0
209228,2136,-8104,531,0,-1,0,0
209233,2140,-8104,526,0,0,0,0
209238,2146,-8105,526,0,0,0,0
209243,2156,-8105,523,0,0,0,0
209248,2159,-8103,526,0,0,0,0
209253,2160,-8101,535,0,0,0,0
209258,2165,-8102,543,0,0,0,0
209263,2163,-8102,556,0,0,0,0
209268,2153,-8103,564,0,0,0,0
209273,2146,-8104,571,0,0,0,0
209278,2139,-8107,576,0,-1,0,0
209283,2129,-8108,586,0,-1,0,0
209288,2124,-8106,594,0,-1,0,0
209293,2115,-8108,601,0,-2,0,0
209298,2105,-8110,609,0,-2,0,0
209303,2096,-8109,612,0,-2,0,0
209308,2083,-8107,616,0,-3,0,0
209313,2065,-8107,618,0,-3,0,0
209318,2055,-8106,618,0,-2,0,0
209323,2047,-8105,622,0,-2,0,0
209328,2039,-8107,619,0,-2,0,0
209333,2037,-8110,622,0,-2,0,0
209338,2039,-8108,617,0,-2,0,0
209343,2042,-8105,614,0,-1,0,0
209348,2046,-8104,613,0,-2,0,0
209353,2047,-8105,613,0,-2,0,0
209358,2042,-8106,615,0,-2,0,0
209363,2034,-8108,612,0,-2,0,0
209368,2020,-8110,612,0,-2,0,0
209373,1998,-8111,618,0,-1,0,0
209378,1981,-8109,621,0,-1,0,0
209383,1966,-8110,627,0,0,0,0
209388,1962,-8111,631,0,0,0,0
209393,1970,-8111,638,0,-1,0,0
209398,1985,-8111,648,-1,-1,0,0
209403,2007,-8111,657,-1,-1,0,0
209408,2032,-8113,661,-1,-2,0,0
209413,2046,-8111,658,0,-2,0,0
209418,2055,-8110,652,0,-2,0,0
209423,2060,-8113,639,0,-3,-1,0
209428,2056,-8115,617,0,-3,-1,0
209433,2048,-8116,595,-1,-3,-1,0
209438,2042,-8116,577,-1,-2,-1,0
209443,2035,-8115,567,-1,-2,0,0
209448,2030,-8113,567,-1,-1,-1,0
209453,2025,-8113,574,-1,-1,-1,0
209458,2018,-8110,588,-1,0,-1,0
209463,2019,-8108,610,-1,0,-1,0
209468,2020,-8107,627,-1,-1,-1,0
209473,2019,-8106,637,-1,-1,-1,0
209478,2025,-8106,644,-1,-1,-1,0
209483,2032,-8107,644,0,-2,0,0
209488,2039,-8109,630,0,-2,-1,0
209493,2048,-8109,614,-1,-2,-1,0
209498,2058,-8110,598,-1,-3,-1,0
209503,2061,-8111,587,-1,-2,-1,0
209508,2064,-8113,579,-1,-2,-1,0
209513,2061,-8113,575,-1,-3,-1,0
209518,2050,-8116,574,-1,-3,-1,0
209523,2034,-8116,573,-1,-2,-1,0
209528,2017,-8116,575,-1,-1,-1,0
209533,2007,-8116,578,-1,0,-1,0
209538,2006,-8117,572,-1,0,-1,0
209543,2012,-8119,571,-1,0,-1,0
209548,2029,-8119,570,-1,0,-1,0
209553,2044,-8119,564,-1,0,0,0
209558,2065,-8120,572,-1,0,-1,0
209563,2086,-8118,583,-1,0,-1,0
209568,2099,-8116,593,-1,-1,-1,0
209573,2103,-8115,598,-1,-1,-1,0
209578,2097,-8114,599,-1,-2,-1,0
209583,2087,-8116,598,-1,-2,-1,0
209588,2078,-8114,588,-1,-2,-1,0
209593,2072,-8112,572,-1,-2,-1,0
209598,2069,-8111,557,-1,-2,0,0
209603,2069,-8110,555,-1,-2,0,0
209608,2077,-8109,552,-1,-2,0,0
209613,2082,-8112,552,-1,-2,0,0
209618,2089,-8113,554,-1,-1,0,0
209623,2102,-8114,559,-1,-1,0,0
209628,2111,-8116,560,-1,-1,0,0
209633,2117,-8116,561,-1,-1,0,0
209638,2118,-8117,559,-1,-1,0,0
209643,2115,-8117,562,-1,-1,0,0
209648,2114,-8116,567,-1,-2,0,0
209653,2107,-8113,569,-1,-3,0,0
209658,2100,-8116,572,-1,-3,0,0
209663,2097,-8115,572,-1,-3,0,0
209668,2098,-8114,571,-1,-3,0,0
209673,2096,-8113,566,-1,-3,0,0
209678,2096,-8111,558,0,-3,0,0
209683,2093,-8111,550,-1,-2,0,0
209688,2090,-8113,537,-1,-2,0,0
209693,2084,-8113,531,-1,-2,0,0
209698,2079,-8114,525,-1,-1,0,0
209703,2074,-8114,523,-1,0,0,0
209708,2075,-8114,523,-1,0,0,0
209713,2084,-8113,519,-1,1,0,0
209718,2092,-8111,522,-1,1,0,0
209723,2099,-8112,534,-1,0,0,0
209728,2100,-8111,546,-1,-1,0,0
209733,2096,-8107,564,-1,-1,0,0
209738,2084,-8106,585,0,-2,0,0
209743,2067,-8108,603,0,-2,0,0
209748,2052,-8110,609,0,-3,0,0
209753,2038,-8112,606,0,-3,0,0
209758,2022,-8115,593,0,-3,0,0
209763,2015,-8115,580,0,-3,0,0
209768,2021,-8114,562,0,-3,0,0
209773,2032,-8116,543,0,-3,0,0
209778,2041,-8117,537,-1,-2,0,0
209783,2051,-8114,536,-1,-2,0,0
209788,2061,-8115,542,-1,-1,0,0
209793,2067,-8114,548,-1,-2,0,0
209798,2063,-8112,557,0,-2,0,0
209803,2054,-8114,568,0,-1,0,0
209808,2041,-8116,573,0,-1,0,0
209813,2028,-8117,574,0,-2,0,0
209818,2013,-8119,571,0,-2,0,0
209823,1995,-8119,573,0,-2,0,0
209828,1988,-8118,569,0,-2,0,0
209833,1986,-8120,570,0,-1,0,0
209838,1992,-8117,575,0,-1,0,0
209843,2002,-8118,573,0,-1,0,0
209848,2010,-8119,571,0,-1,0,0
209853,2014,-8118,569,0,-1,-1,0
209858,2014,-8119,559,0,-1,-1,0
209863,2009,-8118,551,0,-1,-1,0
209868,2006,-8117,543,0,-1,-1,0
209873,2005,-8114,537,0,0,-1,0
209878,2006,-8111,537,-1,0,-1,0
209883,2009,-8113,541,-1,0,-1,0
209888,2010,-8117,546,-1,-1,-1,0
209893,2010,-8121,554,-1,-1,-1,0
209898,2011,-8121,561,0,0,-1,0
209903,2005,-8120,561,0,0,-1,0
209908,2002,-8118,560,0,0,-1,0
209913,2000,-8116,556,0,0,-1,0
209918,1999,-8115,552,0,0,-1,0
209923,2005,-8115,541,0,0,-1,0
209928,2010,-8117,535,0,1,-1,0
209933,2023,-8118,536,-1,1,-1,0
209938,2043,-8118,548,-1,1,-1,0
209943,2063,-8119,566,0,1,-1,0
209948,2083,-8121,577,0,0,-1,0
209953,2101,-8121,591,0,0,-1,0
209958,2114,-8121,601,0,0,-1,0
209963,2116,-8121,610,0,-1,-1,0
209968,2112,-8119,603,0,0,-1,0
209973,2103,-8118,591,0,0,-1,0
209978,2087,-8119,576,-1,0,-1,0
209983,2073,-8121,564,-1,0,-1,0
209988,2060,-8123,560,-1,0,-1,0
209993,2051,-8122,566,-1,1,-1,0
209998,2051,-8122,570,-1,1,0,0
210003,2059,-8121,579,-1,1,0,0
210008,2069,-8121,590,-1,1,-1,0
210013,2076,-8120,595,-1,0,-1,0
210018,2083,-8121,598,-1,0,-1,0
210023,2090,-8120,589,-1,-1,0,0
210028,2095,-8119,580,-1,-1,0,0
210033,2097,-8120,572,-1,-1,-1,0
210038,2096,-8118,568,-1,-1,-1,0
210043,2089,-8118,565,-1,-1,-1,0
210048,2079,-8117,570,-1,-1,0,0
210053,2075,-8119,576,-1,0,0,0
210058,2074,-8120,585,-1,-1,0,0
210063,2075,-8122,591,-1,-1,0,0
210068,2076,-8121,589,-1,-1,0,0
210073,2074,-8120,593,-1,-1,0,0
210078,2075,-8121,589,-1,-1,0,0
210083,2073,-8122,583,-1,-2,0,0
210088,2068,-8120,579,-1,-2,0,0
210093,2061,-8118,575,-1,-2,0,0
210098,2054,-8118,563,-1,-2,0,0
210103,2054,-8117,554,0,-2,0,0
210108,2052,-8119,544,0,-2,0,0
210113,2053,-8118,542,-1,-1,0,0
210118,2054,-8115,531,-1,-1,0,0
210123,2057,-8115,527,-1,0,-1,0
210128,2058,-8114,524,-1,1,0,0
210133,2060,-8112,526,-1,1,0,0
210138,2062,-8110,540,-1,1,0,0
210143,2064,-8111,558,-1,0,0,0
210148,2065,-8112,574,-1,0,0,0
210153,2066,-8112,595,-1,-1,0,0
210158,2064,-8113,610,-1,-1,0,0
210163,2062,-8114,615,0,-1,0,0
210168,2061,-8112,608,0,-1,0,0
210173,2063,-8114,592,0,-1,0,0
210178,2067,-8114,572,-1,-2,0,0
210183,2071,-8114,549,-1,-2,0,0
210188,2072,-8114,531,-1,-2,0,0
210193,2071,-8116,520,-1,-1,0,0
210198,2066,-8115,517,-1,0,0,0
210203,2057,-8116,520,-1,0,0,0
210208,2046,-8116,530,-1,1,0,0
210213,2044,-8114,543,-1,1,0,0
210218,2045,-8115,559,-1,1,0,0
210223,2047,-8117,575,-1,0,0,0
210228,2051,-8117,590,-1,0,0,0
210233,2057,-8115,595,-1,1,0,0
210238,2061,-8115,594,-1,1,0,0
210243,2061,-8114,586,-1,1,0,0
210248,2059,-8116,571,-1,1,0,0
210253,2055,-8117,559,-1,1,0,0
210258,2053,-8119,557,-1,1,0,0
210263,2049,-8118,563,-1,1,0,0
210268,2052,-8118,572,-1,2,0,0
210273,2059,-8120,588,-1,1,0,0
210278,2068,-8118,605,-1,1,0,0
210283,2076,-8115,610,-1,0,0,0
210288,2081,-8114,611,-1,0,0,0
210293,2079,-8115,603,-1,1,0,0
210298,2073,-8116,582,-1,2,0,0
210303,2063,-8115,559,-1,3,0,0
210308,2051,-8116,537,-1,3,0,0
210313,2042,-8117,529,-1,4,0,0
210318,2041,-8116,530,-1,4,0,0
210323,2044,-8117,550,-1,3,0,0
210328,2050,-8114,585,-1,3,0,0
210333,2056,-8114,620,-1,2,0,0
210338,2060,-8112,642,-1,1,0,0
210343,2063,-8110,652,-1,1,0,0
210348,2064,-8111,640,-1,0,0,0
210353,2066,-8112,619,0,-1,0,0
210358,2067,-8116,594,-1,-2,0,0
210363,2061,-8116,563,-1,-2,0,0
210368,2052,-8118,539,-1,-1,0,0
210373,2050,-8120,525,-1,0,0,0
210378,2045,-8121,525,-1,0,0,0
210383,2042,-8123,536,-1,1,0,0
210388,2040,-8121,557,-1,2,0,0
210393,2039,-8121,572,-1,3,0,0
210398,2045,-8120,582,-1,3,0,0
210403,2052,-8118,594,-1,3,0,0
210408,2060,-8118,595,-1,3,0,0
210413,2071,-8118,596,-1,2,0,0
210418,2082,-8121,602,-1,1,0,0
210423,2090,-8121,606,-1,0,0,0
210428,2091,-8118,613,-1,0,0,0
210433,2084,-8118,624,-1,-1,0,0
210438,2072,-8117,630,-1,-1,0,0
210443,2063,-8116,624,-1,0,0,0
210448,2058,-8118,617,-1,0,0,0
210453,2059,-8119,600,-1,1,0,0
210458,2066,-8119,579,-1,1,0,0
210463,2073,-8118,562,-1,2,0,0
210468,2077,-8118,548,-1,3,0,0
210473,2075,-8118,544,-1,4,0,0
210478,2073,-8118,549,-1,5,0,0
210483,2063,-8117,554,-1,6,0,0
210488,2055,-8116,566,-1,7,0,0
210493,2050,-8115,585,-1,7,0,0
210498,2046,-8116,597,-1,7,0,0
210503,2046,-8117,605,-1,6,0,0
210508,2055,-8116,612,-1,5,0,0
210513,2069,-8117,614,-1,4,0,0
210518,2091,-8118,611,-1,3,0,0
210523,2107,-8118,604,-1,3,0,0
210528,2116,-8117,601,-1,2,0,0
210533,2114,-8116,597,-1,2,0,0
210538,2099,-8117,593,-1,1,0,0
210543,2071,-8116,586,-1,2,0,0
210548,2038,-8115,576,-1,3,0,0
210553,2005,-8119,562,-1,5,0,0
210558,1978,-8121,538,-1,6,0,0
210563,1962,-8122,515,-1,7,0,0
210568,1963,-8124,498,-1,7,0,0
210573,1976,-8125,492,-1,7,0,0
210578,2001,-8125,496,-1,6,0,0
210583,2023,-8123,511,-1,5,0,0
210588,2044,-8122,535,-1,3,0,0
210593,2061,-8120,554,-1,2,0,0
210598,2061,-8121,569,-1,1,0,0
210603,2051,-8119,568,-1,1,0,0
210608,2032,-8119,553,-1,1,0,0
210613,2006,-8122,528,-1,1,0,0
210618,1980,-8124,503,-1,2,0,0
210623,1958,-8124,489,-1,2,0,0
210628,1944,-8122,483,-1,3,0,0
210633,1942,-8121,493,-1,3,0,0
210638,1945,-8121,513,-1,3,0,0
210643,1952,-8119,538,-1,3,0,0
210648,1953,-8118,567,-1,3,0,0
210653,1954,-8118,590,-1,2,0,0
210658,1952,-8118,602,0,1,0,0
210663,1946,-8119,600,0,0,0,0
210668,1937,-8118,588,0,-1,0,0
210673,1931,-8117,571,-1,0,0,0
210678,1927,-8117,552,-1,0,0,0
210683,1927,-8116,539,-1,1,-1,0
210688,1928,-8117,531,-1,1,-1,0
210693,1930,-8118,539,-1,1,-1,0
210698,1933,-8117,558,-1,1,-1,0
210703,1932,-8118,580,-1,1,-1,0
210708,1934,-8118,598,-1,2,-1,0
210713,1936,-8117,599,0,3,-1,0
210718,1939,-8117,589,0,3,-1,0
210723,1945,-8118,576,-1,3,-1,0
210728,1959,-8118,570,-1,3,-1,0
210733,1977,-8118,563,-1,2,-1,0
210738,1993,-8119,567,-1,1,-1,0
210743,2008,-8119,586,-1,1,-1,0
210748,2016,-8117,613,-1,0,-1,0
210753,2018,-8115,629,-1,0,-1,0
210758,2018,-8114,637,-1,-1,-1,0
210763,2018,-8115,631,-1,-1,-1,0
210768,2021,-8116,618,0,-1,-1,0
210773,2027,-8118,594,-1,-1,-1,0
210778,2033,-8123,570,-1,0,0,0
210783,2041,-8125,548,-1,0,0,0
210788,2050,-8122,539,-1,0,-1,0
210793,2060,-8124,548,-1,1,-1,0
210798,2070,-8126,564,-1,1,-1,0
210803,2075,-8124,586,-1,1,-1,0
210808,2077,-8122,604,-1,1,-1,0
210813,2076,-8118,618,-1,0,-1,0
210818,2078,-8115,623,-1,0,0,0
210823,2083,-8117,610,0,-1,0,0
210828,2088,-8118,588,-1,-1,0,0
210833,2094,-8119,565,-1,-1,0,0
210838,2100,-8119,543,-1,-1,0,0
210843,2107,-8119,528,-1,-1,0,0
210848,2107,-8119,522,-1,-1,0,0
210853,2102,-8119,521,-1,-1,0,0
210858,2087,-8117,531,-1,-1,0,0
210863,2065,-8118,543,-1,-1,0,0
210868,2043,-8117,550,0,-1,0,0
210873,2029,-8118,553,0,-1,0,0
210878,2018,-8121,546,0,-1,0,0
210883,2008,-8121,535,0,-1,0,0
210888,2007,-8117,527,0,-1,0,0
210893,2009,-8119,517,0,-1,0,0
210898,2009,-8121,516,-1,-1,0,0
210903,2012,-8123,527,0,0,0,0
210908,2017,-8124,545,-1,0,0,0
210913,2017,-8122,560,0,0,0,0
210918,2019,-8119,578,0,-1,0,0
210923,2018,-8116,583,0,-1,0,0
210928,2018,-8116,582,0,-1,0,0
210933,2018,-8119,570,0,-1,0,0
210938,2017,-8120,552,0,-1,0,0
210943,2013,-8120,537,0,-1,0,0
210948,2006,-8121,529,0,-1,0,0
210953,1997,-8121,527,0,0,0,0
210958,1991,-8116,537,0,0,0,0
210963,1983,-8117,557,0,0,0,0
210968,1970,-8120,580,0,-1,0,0
210973,1957,-8118,600,0,0,0,0
210978,1948,-8117,614,0,1,0,0
210983,1946,-8119,608,0,1,0,0
210988,1946,-8120,596,0,2,-1,0
210993,1947,-8120,580,0,2,-1,0
210998,1954,-8118,565,0,2,-1,0
211003,1959,-8113,559,-1,2,-1,0
211008,1964,-8109,564,-1,2,-1,0
211013,1969,-8107,580,-1,2,-1,0
211018,1975,-8108,594,-1,3,-1,0
211023,1985,-8109,610,-1,3,-1,0
211028,1989,-8110,627,0,3,-1,0
211033,1996,-8109,634,-1,2,-1,0
211038,2009,-8111,633,-1,2,-1,0
211043,2019,-8111,627,-1,2,-1,0
211048,2030,-8111,621,-1,3,-1,0
211053,2037,-8113,613,-1,3,-1,0
211058,2043,-8115,614,-1,4,-1,0
211063,2045,-8114,623,-1,4,-1,0
211068,2041,-8115,629,-1,4,-1,0
211073,2035,-8115,639,-1,4,-1,0
211078,2033,-8118,651,-1,4,0,0
211083,2031,-8120,659,-1,4,0,0
211088,2035,-8118,658,-1,5,-1,0
211093,2041,-8115,654,-1,6,0,0
211098,2056,-8118,646,-1,6,0,0
211103,2075,-8120,634,-1,6,0,0
211108,2095,-8118,634,-1,4,0,0
211113,2110,-8117,644,-1,2,0,0
211118,2123,-8116,658,-1,1,0,0
211123,2128,-8115,679,-1,-1,0,0
211128,2127,-8114,696,-1,-1,0,0
211133,2114,-8116,704,-1,-2,0,0
211138,2096,-8119,693,-1,-2,0,0
211143,2080,-8121,664,-1,-2,0,0
211148,2062,-8126,628,-1,-1,0,0
211153,2044,-8126,592,-1,0,0,0
211158,2034,-8128,563,-1,2,0,0
211163,2028,-8129,541,-1,3,0,0
211168,2026,-8129,534,-1,4,0,0
211173,2033,-8127,546,-1,5,0,0
211178,2040,-8126,572,-1,4,0,0
211183,2047,-8126,601,-1,4,0,0
211188,2057,-8125,626,-1,2,0,0
211193,2062,-8126,636,-1,0,0,0
211198,2059,-8127,629,-1,-1,0,0
211203,2060,-8126,606,-1,-2,0,0
211208,2056,-8127,585,-1,-2,0,0
211213,2047,-8127,552,-1,-2,0,0
211218,2037,-8127,528,-1,-2,0,0
211223,2021,-8128,511,-1,-3,0,0
211228,1999,-8130,512,-1,-3,0,0
211233,1969,-8130,520,-1,-3,0,0
211238,1945,-8126,531,-1,-2,0,0
211243,1925,-8125,543,-1,-1,0,0
211248,1913,-8125,559,0,0,0,0
211253,1911,-8127,563,0,0,0,0
211258,1918,-8125,550,0,0,0,0
211263,1929,-8125,543,0,0,0,0
211268,1937,-8126,537,0,0,0,0
211273,1939,-8126,533,-1,0,0,0
211278,1938,-8128,539,-1,0,0,0
211283,1934,-8127,547,-1,0,0,0
211288,1927,-8128,560,-1,0,-1,0
211293,1924,-8126,577,-1,-1,0,0
211298,1914,-8124,594,0,-1,-1,0
211303,1906,-8122,597,0,-1,-1,0
211308,1902,-8121,595,0,-1,-1,0
211313,1898,-8121,584,0,0,-1,0
211318,1894,-8123,568,0,0,-1,0
211323,1894,-8124,556,0,1,-1,0
211328,1899,-8125,553,-1,1,-1,0
211333,1909,-8123,556,-1,1,-1,0
211338,1923,-8122,571,-1,1,-1,0
211343,1939,-8120,593,-1,1,-1,0
211348,1949,-8119,617,-1,2,-1,0
211353,1960,-8120,636,0,2,-1,0
211358,1973,-8119,640,0,2,-1,0
211363,1986,-8118,638,0,1,-1,0
211368,1994,-8117,629,0,0,-1,0
211373,2002,-8116,616,-1,0,-1,0
211378,2012,-8116,614,-1,0,-1,0
211383,2017,-8115,619,-1,-1,-1,0
211388,2015,-8112,628,-1,-1,-1,0
211393,2010,-8114,634,-1,-1,-1,0
211398,2003,-8114,637,-1,-1,-1,0
211403,1997,-8116,642,-1,-1,-1,0
211408,1990,-8117,642,-1,-1,-1,0
211413,1992,-8118,636,-1,-2,-1,0
211418,1998,-8119,632,-1,-1,-1,0
211423,2002,-8119,627,-1,-1,-1,0
211428,2001,-8120,617,-1,-1,-1,0
211433,1999,-8121,610,-1,0,-1,0
211438,1998,-8122,609,-1,1,-1,0
211443,1994,-8122,607,-1,1,-1,0
211448,1989,-8123,604,-1,1,-1,0
211453,1985,-8123,610,-1,1,-1,0
211458,1984,-8122,610,-1,1,-1,0
211463,1984,-8120,612,-1,2,-1,0
211468,1987,-8119,610,-1,2,-1,0
211473,1995,-8118,600,-1,3,-1,0
211478,2006,-8116,598,-1,3,-1,0
211483,2018,-8117,595,-1,3,-1,0
211488,2032,-8118,598,-1,2,-1,0
211493,2047,-8119,604,-1,1,-1,0
211498,2062,-8120,613,-1,0,-1,0
211503,2072,-8119,624,-1,-1,-1,0
211508,2079,-8116,631,-1,-1,-1,0
211513,2080,-8116,625,0,-1,0,0
211518,2080,-8116,621,-1,-2,-1,0
211523,2074,-8116,603,-1,-2,0,0
211528,2069,-8116,585,-1,-1,-1,0
211533,2065,-8118,566,-1,-1,0,0
211538,2063,-8122,552,-1,-1,0,0
211543,2063,-8123,543,-1,-1,0,0
211548,2063,-8122,542,-1,0,0,0
211553,2062,-8121,546,-1,0,0,0
211558,2064,-8120,555,-1,0,0,0
211563,2065,-8118,567,-1,0,0,0
211568,2067,-8118,574,0,-1,0,0
211573,2068,-8117,580,0,-2,0,0
211578,2067,-8117,574,0,-2,0,0
211583,2065,-8117,566,0,-2,0,0
211588,2061,-8120,561,0,-2,0,0
211593,2059,-8118,555,0,-2,0,0
211598,2059,-8116,552,0,-3,0,0
211603,2058,-8116,557,0,-3,0,0
211608,2062,-8117,569,0,-3,0,0
211613,2064,-8116,583,0,-3,0,0
211618,2057,-8116,586,0,-3,0,0
211623,2047,-8117,585,0,-3,0,0
211628,2032,-8122,586,0,-2,0,0
211633,2020,-8124,580,0,-2,0,0
211638,2005,-8126,570,0,-2,0,0
211643,1991,-8126,557,0,-2,0,0
211648,1977,-8127,552,0,-2,0,0
211653,1965,-8126,559,0,-1,0,0
211658,1954,-8129,570,0,-1,0,0
211663,1941,-8129,584,0,-1,0,0
211668,1931,-8128,603,0,-1,0,0
211673,1928,-8126,611,0,-1,0,0
211678,1928,-8122,615,0,-1,0,0
211683,1929,-8122,607,0,-1,0,0
211688,1932,-8123,596,0,-1,0,0
211693,1936,-8120,586,0,-1,-1,0
211698,1935,-8121,577,0,-1,-1,0
211703,1931,-8120,577,0,-1,-1,0
211708,1926,-8120,587,0,-1,-1,0
211713,1928,-8120,601,0,0,-1,0
211718,1929,-8118,610,0,0,-1,0
211723,1933,-8116,610,0,0,-1,0
211728,1942,-8118,613,0,1,-1,0
211733,1948,-8122,612,0,1,-1,0
211738,1954,-8123,613,0,1,-1,0
211743,1958,-8122,616,0,1,-1,0
211748,1960,-8120,621,0,1,-1,0
211753,1962,-8118,629,0,2,-1,0
211758,1966,-8121,638,0,1,-1,0
211763,1974,-8123,645,0,1,-1,0
211768,1981,-8124,646,0,1,-1,0
211773,1991,-8126,645,0,0,-1,0
211778,2001,-8127,649,0,0,-1,0
211783,2007,-8129,647,0,-1,-1,0
211788,2008,-8129,638,0,0,-1,0
211793,2004,-8128,623,0,0,-1,0
211798,1996,-8124,607,0,0,-1,0
211803,1985,-8124,595,-1,0,-1,0
211808,1975,-8125,589,-1,1,-1,0
211813,1967,-8124,591,-1,1,-1,0
211818,1959,-8122,601,-1,1,-1,0
211823,1961,-8122,608,-1,2,-1,0
211828,1968,-8123,618,-1,2,-1,0
211833,1972,-8122,632,-1,2,-1,0
211838,1986,-8120,641,-1,2,-1,0
211843,2000,-8120,641,0,1,-1,0
211848,2012,-8122,630,0,1,-1,0
211853,2018,-8121,614,-1,1,-1,0
211858,2012,-8123,603,0,1,-1,0
211863,2009,-8122,596,0,0,-1,0
211868,2010,-8120,590,-1,0,-1,0
211873,2013,-8120,583,-1,-1,-1,0
211878,2019,-8120,585,-1,-1,-1,0
211883,2027,-8120,593,-1,-1,-1,0
211888,2029,-8118,593,0,-1,-1,0
211893,2027,-8117,593,0,-1,-1,0
211898,2018,-8119,584,0,-1,-1,0
211903,2004,-8121,581,0,-1,-1,0
211908,1992,-8120,579,0,0,-1,0
211913,1987,-8120,577,0,0,-1,0
211918,1988,-8124,578,0,0,-1,0
211923,1994,-8123,585,0,0,-1,0
211928,2008,-8123,592,0,0,-1,0
211933,2026,-8122,591,0,0,-1,0
211938,2044,-8121,592,0,0,-1,0
211943,2057,-8119,591,0,0,-1,0
211948,2063,-8119,593,0,-1,-1,0
211953,2059,-8119,592,0,-1,-1,0
211958,2051,-8121,585,0,-1,-1,0
211963,2040,-8121,579,0,-1,-1,0
211968,2033,-8121,577,0,-1,0,0
211973,2031,-8118,576,0,-1,0,0
211978,2031,-8118,581,0,-1,0,0
211983,2042,-8119,583,0,-1,0,0
211988,2058,-8119,586,0,-1,0,0
211993,2073,-8119,586,0,-1,0,0
211998,2083,-8120,594,0,-1,0,0
212003,2084,-8119,604,0,-2,0,0
212008,2077,-8118,609,0,-2,0,0
212013,2068,-8119,614,0,-1,0,0
212018,2055,-8122,613,0,-1,0,0
212023,2050,-8124,608,0,-1,0,0
212028,2049,-8126,599,0,-1,0,0
212033,2048,-8124,599,0,-1,0,0
212038,2051,-8122,593,0,-1,0,0
212043,2058,-8122,592,0,-1,0,0
212048,2055,-8122,592,0,-1,0,0
212053,2043,-8121,596,0,0,0,0
212058,2028,-8122,601,0,0,0,0
212063,2017,-8124,606,0,0,0,0
212068,2008,-8119,616,0,0,0,0
212073,2006,-8119,626,0,-1,0,0
212078,2009,-8119,639,0,-1,0,0
212083,2017,-8119,643,0,-1,0,0
212088,2027,-8121,646,0,-1,0,0
212093,2033,-8120,645,0,-1,0,0
212098,2027,-8120,639,0,-1,0,0
212103,2013,-8118,627,0,-1,0,0
212108,1992,-8120,623,0,-1,0,0
212113,1973,-8121,621,0,0,0,0
212118,1958,-8119,618,0,0,0,0
212123,1953,-8120,617,0,0,0,0
212128,1957,-8121,627,0,0,0,0
212133,1961,-8118,632,0,-1,0,0
212138,1965,-8117,636,0,-1,0,0
212143,1965,-8114,636,0,-1,0,0
212148,1968,-8112,636,0,-2,0,0
212153,1958,-8113,631,0,-2,-1,0
212158,1940,-8115,625,0,-2,-1,0
212163,1923,-8116,618,0,-1,-1,0
212168,1907,-8117,616,0,-1,0,0
212173,1899,-8119,611,0,0,-1,0
212178,1892,-8122,611,0,0,0,0
212183,1892,-8122,614,-1,0,0,0
212188,1896,-8119,624,0,0,-1,0
212193,1905,-8119,620,0,1,-1,0
212198,1915,-8117,617,0,1,-1,0
212203,1924,-8119,612,0,0,-1,0
212208,1925,-8120,606,0,0,-1,0
212213,1920,-8119,596,0,0,-1,0
212218,1914,-8117,590,0,0,-1,0
212223,1901,-8119,589,0,1,-1,0
212228,1895,-8124,585,0,1,-1,0
212233,1890,-8125,589,0,1,-1,0
212238,1887,-8126,586,0,2,-1,0
212243,1900,-8125,590,0,2,-1,0
212248,1919,-8124,605,0,2,-1,0
212253,1942,-8125,617,0,2,-1,0
212258,1967,-8125,625,-1,1,-1,0
212263,1991,-8125,632,0,1,-1,0
212268,2011,-8126,638,0,1,-1,0
212273,2022,-8127,638,0,1,-1,0
212278,2030,-8127,635,0,0,-1,0
212283,2036,-8127,627,0,0,-1,0
212288,2041,-8126,619,0,0,-1,0
212293,2054,-8124,612,0,0,-1,0
212298,2063,-8122,607,-1,0,-1,1
212303,2071,-8121,609,-1,0,-1,1
212308,2076,-8122,614,-1,0,-1,1
212313,2080,-8121,613,0,0,-1,1
212318,2082,-8120,615,0,0,-1,1
212323,2081,-8121,617,0,0,-1,1
212328,2086,-8120,620,0,-1,0,1
212333,2087,-8121,622,0,-1,0,1
212338,2093,-8121,626,-1,-2,0,1
212343,2099,-8124,627,0,-2,0,1
212348,2105,-8122,624,0,-2,0,1
212353,2112,-8121,623,0,-2,0,1
212358,2112,-8120,628,0,-2,0,1
212363,2108,-8120,627,0,-3,0,1
212368,2099,-8122,620,0,-3,0,1
212373,2088,-8122,617,0,-2,0,1
212378,2077,-8125,612,0,-2,0,1
212383,2067,-8125,608,0,-1,0,1
212388,2059,-8124,609,0,-1,0,1
212393,2057,-8123,615,-1,-1,0,1
212398,2052,-8123,623,-1,-1,0,1
212403,2047,-8120,626,-1,-1,0,1
212408,2042,-8119,628,0,0,0,1
212413,2037,-8121,628,-1,0,0,1
212418,2028,-8122,624,-1,0,0,1
212423,2015,-8123,620,0,-1,0,1
212428,1998,-8124,613,0,-1,0,1
212433,1982,-8125,602,0,0,0,1
212438,1970,-8124,597,0,0,0,1
212443,1960,-8126,594,0,-1,0,1
212448,1954,-8126,593,0,-1,0,1
212453,1945,-8127,593,0,0,0,1
212458,1940,-8128,593,0,0,0,1
212463,1933,-8129,590,0,1,0,1
212468,1923,-8131,591,0,1,-1,1
212473,1908,-8132,599,0,1,0,1
212478,1895,-8133,607,0,1,-1,1
212483,1883,-8128,619,0,2,-1,1
212488,1872,-8126,624,0,2,-1,1
212493,1869,-8128,629,0,2,-1,1
212498,1872,-8127,632,0,2,-1,1
212503,1879,-8125,639,0,2,-1,1
212508,1888,-8122,641,0,2,-1,1
212513,1895,-8123,644,0,1,-1,1
212518,1896,-8121,646,0,1,-1,1
212523,1894,-8122,648,0,1,-1,1
212528,1884,-8122,649,0,1,-1,1
212533,1881,-8120,643,0,1,-1,1
212538,1880,-8121,639,0,1,-1,1
212543,1887,-8120,635,0,1,-1,1
212548,1900,-8121,630,0,2,-1,1
212553,1919,-8121,624,0,2,-1,1
212558,1940,-8120,620,0,2,-1,1
212563,1964,-8120,618,0,2,-1,1
212568,1979,-8119,616,0,1,-1,1
212573,1985,-8121,618,0,1,-1,1
212578,1984,-8121,622,0,1,-1,1
212583,1983,-8120,623,0,1,-1,1
212588,1976,-8122,624,0,1,-1,1
212593,1970,-8124,624,0,1,-1,1
212598,1967,-8122,616,0,1,-1,1
212603,1970,-8120,615,0,1,-1,1
212608,1983,-8121,620,0,2,-1,1
212613,2002,-8120,631,-1,2,-1,1
212618,2022,-8118,643,-1,1,-1,1
212623,2046,-8119,664,-1,1,-1,1
212628,2064,-8119,686,-1,1,-1,1
212633,2068,-8116,705,-1,1,-1,1
212638,2072,-8114,714,-1,1,-1,1
212643,2070,-8114,711,-1,1,-1,1
212648,2066,-8114,700,-1,1,-1,1
212653,2061,-8115,685,-1,1,-1,1
212658,2056,-8115,671,-1,1,-1,1
212663,2049,-8115,660,-1,1,-1,1
212668,2044,-8116,653,-1,1,-1,1
212673,2036,-8118,650,-1,1,-1,1
212678,2022,-8117,653,-1,1,-1,1
212683,2012,-8117,658,-1,0,-1,1
212688,1999,-8116,657,-1,0,-1,1
212693,1991,-8116,652,-1,0,-1,1
212698,1985,-8117,643,-1,0,-1,1
212703,1982,-8117,626,-1,0,-1,1
212708,1984,-8118,608,-1,0,-1,1
212713,1991,-8116,587,-1,0,-1,1
212718,1996,-8119,572,-1,0,-1,1
212723,1999,-8120,563,-1,1,-1,1
212728,1993,-8119,562,-1,1,-1,1
212733,1983,-8120,566,-1,1,-1,1
212738,1971,-8120,573,-1,1,-1,1
212743,1953,-8122,575,0,2,-1,1
212748,1937,-8123,583,0,2,-1,1
212753,1922,-8124,589,0,3,-1,1
212758,1914,-8123,594,0,3,-1,1
212763,1917,-8121,591,0,3,-1,1
212768,1927,-8118,594,-1,3,-1,1
212773,1941,-8118,596,-1,2,-1,1
212778,1959,-8118,603,-1,2,-1,1
212783,1978,-8119,616,-1,1,-1,1
212788,1997,-8120,627,0,1,-1,1
212793,2009,-8120,637,0,0,-1,1
212798,2009,-8122,644,0,0,-1,1
212802,2002,-8123,646,0,0,-1,1
212808,1991,-8124,642,0,0,-1,1
212813,1980,-8124,636,0,0,-1,1
212818,1969,-8124,629,0,1,-1,1
212823,1959,-8124,620,0,1,-1,1
212828,1954,-8124,619,0,2,-1,1
212833,1958,-8123,626,-1,2,-1,1
212838,1965,-8120,634,-1,2,-1,1
212843,1976,-8118,650,-1,2,-1,1
212848,1991,-8116,664,-1,2,-1,1
212853,2008,-8117,674,0,2,-1,1
212858,2021,-8117,676,0,1,-1,1
212863,2028,-8118,672,0,0,-1,1
212868,2032,-8119,659,0,0,-1,1
212873,2028,-8119,648,0,-1,-1,1
212878,2023,-8119,637,0,-1,-1,1
212883,2019,-8119,632,0,-1,-1,1
212888,2008,-8117,637,0,-2,-1,1
212893,1994,-8116,646,0,-2,-1,1
212897,1976,-8115,656,0,-2,-1,1
212902,1961,-8113,664,0,-1,-1,1
212907,1941,-8112,681,0,-2,-1,1
212913,1914,-8110,693,0,-1,-1,1
212918,1881,-8112,696,0,-1,-1,1
212923,1845,-8113,695,0,1,-1,1
212928,1808,-8117,693,0,2,-1,1
212933,1775,-8116,691,-1,3,-2,1
212938,1743,-8114,699,-1,3,-2,1
212943,1724,-8114,711,-1,3,-2,1
212948,1710,-8113,729,-1,3,-2,1
212953,1700,-8112,754,-1,2,-2,1
212958,1695,-8112,774,-1,2,-2,1
212962,1688,-8111,782,-1,1,-2,1
212968,1673,-8112,779,-1,2,-3,1
212973,1649,-8113,762,-1,3,-3,1
212977,1611,-8112,740,-1,5,-3,1
212983,1575,-8111,719,-1,8,-3,1
212988,1546,-8108,701,-1,11,-3,1
212993,1537,-8106,699,-1,14,-3,1
212998,1555,-8107,707,-1,16,-3,1
213002,1601,-8107,732,-1,18,-3,1
213008,1677,-8104,759,-1,20,-3,1
213013,1766,-8103,785,-1,20,-3,1
213018,1858,-8104,812,-1,21,-3,1
213023,1954,-8105,834,-1,23,-3,1
213027,2055,-8105,845,-1,24,-3,1
213033,2166,-8105,861,-1,24,-3,1
213038,2295,-8107,870,-2,25,-3,1
213043,2443,-8104,883,-2,25,-2,1
213048,2613,-8099,896,-2,27,-2,1
213053,2809,-8096,906,-2,29,-1,1
213058,3026,-8095,910,-2,32,-1,1
213063,3256,-8093,919,-2,35,0,1
213068,3493,-8092,913,-2,38,1,1
213073,3746,-8091,907,-2,41,2,1
213078,4018,-8090,918,-2,43,3,1
213083,4306,-8088,929,-2,46,4,1
213088,4628,-8083,955,-2,49,5,1
213093,4981,-8082,993,-3,52,7,1
213097,5361,-8077,1041,-3,53,8,1
213103,5760,-8070,1098,-3,53,10,1
213108,6160,-8060,1172,-3,53,11,1
213113,6561,-8048,1255,-4,53,13,1
213118,6959,-8038,1352,-4,52,15,1
213123,7344,-8025,1456,-4,48,17,1
213128,7721,-8006,1557,-5,41,19,1
213133,8071,-7982,1657,-5,30,21,1
213137,8372,-7954,1754,-6,17,24,1
213143,8622,-7923,1839,-6,5,26,1
213148,8811,-7887,1898,-6,-5,28,1
213153,8908,-7850,1927,-6,-13,30,1
213158,8921,-7811,1935,-7,-22,32,1
213163,8853,-7771,1929,-7,-31,34,1
213168,8711,-7727,1919,-7,-39,36,1
213173,8527,-7682,1923,-7,-47,38,1
213178,8316,-7635,1934,-7,-55,40,1
213183,8085,-7591,1951,-7,-60,42,1
213187,7861,-7545,1976,-7,-63,44,1
213193,7647,-7496,2000,-7,-66,45,1
213198,7431,-7447,2021,-7,-72,46,1
213203,7201,-7397,2035,-7,-79,48,1
213207,6932,-7347,2050,-7,-89,49,1
213212,6628,-7295,2069,-7,-98,50,1
213218,6291,-7249,2097,-7,-107,51,1
213223,5906,-7203,2138,-6,-115,52,1
213227,5506,-7159,2189,-6,-121,53,1
213233,5100,-7118,2240,-6,-125,54,1
213238,4686,-7081,2295,-5,-130,54,1
213243,4253,-7052,2348,-5,-134,55,1
213247,3792,-7033,2391,-4,-134,55,1
213253,3314,-7016,2435,-4,-132,55,1
213258,2875,-7001,2457,-4,-130,55,1
213263,2445,-6991,2459,-3,-129,55,1
213268,1964,-6984,2447,-3,-131,55,1
213272,1384,-6996,2417,-2,-133,54,1
213278,762,-7025,2381,-2,-132,50,1
213282,297,-7079,2407,-3,-128,46,1
213288,17,-7134,2455,-4,-119,45,1
213293,-1129,-7166,2085,-4,-112,43,1
213297,-2733,-7230,1842,-1,-126,37,1
213303,-3798,-7288,1726,0,-116,35,1
213308,-4366,-7306,1378,0,-94,34,1
213312,-5522,-7365,1195,1,-83,36,1
213318,-6627,-7449,1154,1,-83,37,1
213323,-6852,-7502,1007,0,-65,37,1
213327,-6922,-7569,965,1,-52,38,1
213333,-6490,-7631,971,1,-47,36,1
213337,-5818,-7678,928,1,-34,32,1
213342,-5429,-7732,873,1,-32,28,1
213347,-5267,-7782,852,1,-36,23,1
213353,-5263,-7830,763,2,-33,19,1
213357,-5468,-7866,619,2,-31,15,1
213363,-5949,-7909,550,2,-28,13,1
213367,-6817,-7963,543,1,-26,13,1
213373,-7404,-8005,548,1,-23,13,1
213378,-7739,-8044,612,1,-13,14,1
213382,-7726,-8080,716,1,-5,14,1
213388,-7128,-8103,796,1,5,13,1
213393,-6299,-8122,879,1,12,10,1
213398,-5534,-8144,977,1,10,8,1
213402,-4852,-8164,1058,1,5,5,1
213408,-4298,-8184,1081,0,0,2,1
213413,-3960,-8201,1076,0,-5,1,1
213417,-3790,-8212,1068,0,-7,0,1
213422,-3669,-8223,1059,-1,-7,0,1
213427,-3576,-8230,1071,-1,-6,0,1
213433,-3544,-8238,1145,-2,-6,1,1
213438,-3330,-8238,1199,-2,-6,1,1
213443,-2972,-8235,1222,-2,-4,1,1
213447,-2594,-8235,1256,-2,-5,1,1
213453,-2181,-8241,1271,-2,-7,0,1
213458,-1771,-8246,1235,-2,-10,0,1
213463,-1444,-8252,1187,-2,-15,-1,1
213467,-1208,-8258,1112,-2,-19,-2,1
213472,-1056,-8260,1004,-2,-21,-2,1
213477,-994,-8261,891,-2,-22,-3,1
213483,-981,-8262,789,-3,-22,-3,1
213488,-976,-8260,702,-3,-20,-2,1
213493,-967,-8257,635,-3,-18,-2,1
213498,-953,-8253,580,-2,-17,-2,1
213503,-922,-8251,507,-2,-14,-2,1
213507,-886,-8251,425,-2,-10,-3,1
213513,-843,-8254,339,-2,-6,-3,1
213518,-785,-8254,250,-2,-2,-3,1
213523,-726,-8254,174,-1,0,-4,1
213527,-681,-8257,110,-1,1,-4,1
213532,-639,-8257,61,-1,1,-4,1
213537,-586,-8255,33,-1,2,-4,1
213543,-519,-8254,24,-1,3,-3,1
213548,-431,-8253,38,-1,5,-4,1
213552,-342,-8256,54,-1,6,-4,1
213557,-271,-8255,77,-1,8,-4,1
213563,-207,-8256,114,-1,8,-4,1
213568,-151,-8256,145,-1,8,-4,1
213572,-113,-8257,176,-1,8,-4,1
213578,-74,-8253,217,-1,8,-4,1
213582,-31,-8252,249,-1,9,-4,1
213587,3,-8252,292,-1,10,-4,1
213593,51,-8252,340,-1,10,-4,1
213597,120,-8252,384,-1,11,-4,1
213602,205,-8255,436,-1,12,-3,1
213607,312,-8253,486,-1,14,-3,1
213612,432,-8250,532,-1,15,-3,1
213618,551,-8251,568,-1,15,-3,1
213622,658,-8249,587,-1,14,-2,1
213628,740,-8247,599,-1,12,-2,1
213632,803,-8248,614,-1,11,-2,1
213638,851,-8248,615,-1,9,-2,1
213643,868,-8249,615,-1,7,-2,1
213647,862,-8249,600,-1,4,-2,1
213653,836,-8249,578,-1,2,-1,1
213658,795,-8251,559,-1,1,-1,1
213663,766,-8252,542,-1,0,-1,1
213668,754,-8251,532,-1,0,-1,1
213672,739,-8253,527,-1,-1,0,1
213678,731,-8255,514,-1,-2,0,1
213682,724,-8256,497,-1,-2,0,1
213688,710,-8256,483,-1,-3,0,1
213692,696,-8257,476,-1,-4,0,1
213698,671,-8258,474,-1,-5,0,1
213702,619,-8258,469,-1,-7,0,1
213707,546,-8257,453,-1,-7,0,1
213713,448,-8257,435,-1,-7,0,1
213718,338,-8255,406,-1,-6,0,1
213722,236,-8254,386,-1,-5,0,1
213727,145,-8253,371,-1,-3,0,1
213732,68,-8253,365,-1,-2,0,1
213738,12,-8252,359,-1,0,0,1
213743,-19,-8251,347,-1,1,0,1
213747,-14,-8252,343,-1,3,0,1
213753,24,-8254,349,-1,4,0,1
213757,76,-8255,358,-1,4,0,1
213762,128,-8258,370,-1,4,0,1
213768,168,-8260,379,-1,3,0,1
213773,187,-8261,386,-1,1,0,1
213777,188,-8261,394,-1,0,-1,1
213783,177,-8262,405,-1,-1,-1,1
213787,150,-8259,421,-1,-2,-1,1
213793,104,-8258,433,-1,-2,-1,1
213797,45,-8256,436,-1,-2,-1,1
213802,-9,-8256,440,-1,-1,-1,1
213808,-41,-8254,439,-1,0,-1,1
213812,-50,-8257,438,-1,2,-1,1
213817,-37,-8258,436,-1,3,0,1
213822,-10,-8260,433,-1,4,-1,1
213828,25,-8261,423,-1,4,-1,1
213833,69,-8261,408,-1,5,-1,1
213837,108,-8263,400,-1,5,-1,1
213842,147,-8264,396,-1,4,-1,1
213847,175,-8263,389,-1,4,-1,1
213853,178,-8263,380,-1,4,-1,1
213858,169,-8264,371,-1,3,-1,1
213862,153,-8265,366,-1,2,-1,1
213867,133,-8265,361,-1,1,-1,1
213872,118,-8264,358,-1,0,-1,1
213877,104,-8265,362,-1,0,-1,1
213882,86,-8266,365,-1,0,-1,1
213888,74,-8267,356,-1,0,-1,1
213892,64,-8266,342,-1,1,-1,1
213897,59,-8267,333,-1,2,-1,1
213903,73,-8264,327,-1,3,-1,1
213907,87,-8265,323,-1,5,-1,1
213913,106,-8269,315,-1,5,-1,1
213917,135,-8270,303,-1,5,-1,1
213922,161,-8268,290,-1,5,-1,1
213928,193,-8266,279,-1,4,-1,1
213932,224,-8266,277,-1,4,-1,1
213937,234,-8267,280,-1,4,-1,1
213942,233,-8270,277,0,3,-1,1
213947,218,-8268,271,0,2,-1,1
213953,189,-8269,270,0,1,-1,1
213957,161,-8268,269,0,0,-1,1
213963,135,-8265,275,0,0,-1,1
213968,108,-8264,283,0,0,-1,1
213973,93,-8265,280,0,0,-1,1
213977,81,-8262,281,0,0,-1,1
213982,83,-8261,282,0,0,-1,1
213988,92,-8261,278,0,0,-1,1
213993,97,-8262,278,0,0,-1,1
213997,97,-8261,268,0,1,-1,1
214002,85,-8264,249,0,1,-1,1
214008,64,-8267,240,0,2,-1,1
214012,48,-8268,238,0,2,-1,1
214017,37,-8267,242,0,3,-1,1
214023,27,-8266,259,0,3,-1,1
214027,22,-8263,274,0,4,-1,1
214033,17,-8265,292,0,4,-1,1
214038,6,-8265,318,0,5,-1,1
214043,7,-8263,347,0,5,-1,1
214048,25,-8262,382,0,5,-1,1
214053,53,-8262,415,0,4,-1,1
214058,83,-8260,437,0,3,-1,1
214063,113,-8262,453,0,2,-1,1
214068,146,-8263,472,0,1,-1,1
214073,183,-8263,486,0,1,-1,1
214078,214,-8264,506,0,0,-1,1
214082,234,-8264,525,0,0,-1,1
214087,246,-8263,543,0,0,-1,1
214092,252,-8261,552,0,0,-1,1
214097,249,-8260,559,0,-1,-1,1
214102,245,-8260,573,0,-1,-1,1
214108,250,-8259,576,0,-1,-1,1
214112,258,-8260,576,0,-1,-1,1
214117,266,-8260,577,-1,-2,-1,1
214123,271,-8260,567,-1,-2,-1,1
214127,274,-8262,554,-1,-2,-1,1
214132,281,-8261,542,-1,-2,-1,1
214137,292,-8261,528,-1,-2,-1,1
214143,297,-8258,516,-1,-3,-1,1
214148,296,-8260,497,-1,-3,0,1
214152,290,-8259,479,-1,-4,0,1
214158,278,-8261,463,-1,-4,0,1
214162,269,-8259,448,-1,-4,0,1
214167,263,-8258,433,-1,-3,0,1
214172,253,-8258,421,-1,-3,0,1
214177,236,-8257,405,-1,-4,0,1
214183,213,-8257,391,-1,-4,0,1
214188,186,-8258,386,-1,-3,0,1
214192,170,-8256,377,-1,-2,0,1
214197,160,-8256,368,-1,-1,0,1
214202,148,-8256,367,-1,-1,0,1
214208,142,-8255,359,-1,-1,0,1
214213,133,-8256,356,-1,-1,0,1
214217,127,-8257,353,0,-1,0,1
214222,129,-8258,352,0,-1,0,1
214227,136,-8261,353,0,0,0,1
214232,140,-8261,352,0,0,0,1
214237,139,-8258,341,0,0,0,1
214243,137,-8260,337,0,-1,0,1
214248,138,-8262,335,0,-1,0,1
214253,140,-8259,334,0,-1,0,1
214258,143,-8257,341,0,0,0,1
214262,143,-8257,344,0,0,0,1
214267,138,-8257,348,0,0,0,1
214273,125,-8256,356,0,0,-1,1
214277,113,-8256,358,0,0,0,1
214282,115,-8256,368,0,0,0,1
214288,130,-8256,379,0,0,0,1
214293,141,-8255,382,0,-1,0,1
214297,154,-8253,384,0,-1,0,0
214303,162,-8257,391,0,-2,0,0
214307,175,-8262,394,0,-2,0,0
214312,189,-8263,407,0,-3,0,0
214318,193,-8266,423,0,-3,0,0
214322,194,-8269,430,0,-4,0,0
214328,187,-8271,444,0,-4,0,0
214333,171,-8270,451,0,-4,0,0
214338,154,-8268,455,0,-4,0,0
214342,143,-8263,459,0,-3,0,0
214347,136,-8260,455,0,-2,0,0
214352,127,-8261,446,0,-1,0,0
214358,125,-8263,438,-1,-1,0,0
214362,132,-8266,430,-1,0,0,0
214367,145,-8268,433,-1,0,0,0
214373,163,-8268,442,-1,-1,0,0
214378,184,-8267,452,-1,-1,0,0
214382,197,-8266,462,-1,-1,0,0
214387,207,-8265,475,-1,-1,0,0
214392,213,-8263,486,-1,-2,0,0
214397,222,-8263,490,-1,-3,0,0
214402,236,-8264,489,-1,-4,0,0
214407,246,-8266,481,-1,-5,0,0
214412,251,-8269,471,-1,-5,0,0
214417,244,-8271,455,-1,-5,0,0
214422,227,-8271,441,-1,-5,0,0
214428,206,-8271,436,-1,-4,0,0
214432,183,-8269,437,-1,-3,0,0
214437,153,-8270,438,-1,-2,0,0
214442,126,-8267,436,-1,-1,0,0
214447,104,-8266,432,-1,-1,0,0
214453,86,-8265,422,-1,-1,0,0
214457,84,-8262,413,-1,0,0,0
214462,95,-8262,404,-1,0,0,0
214468,105,-8262,397,-1,0,0,0
214472,115,-8265,389,-1,0,0,0
214477,116,-8265,380,-1,0,0,0
214482,110,-8263,378,-1,-1,0,0
214488,110,-8261,386,-1,-1,0,0
214492,110,-8259,396,-1,-1,0,0
214497,109,-8258,410,-1,-2,0,0
214502,105,-8257,412,-1,-2,0,0
214507,97,-8259,419,-1,-3,0,0
214513,96,-8260,419,-1,-3,0,0
214517,97,-8261,408,-1,-3,0,0
214522,98,-8262,395,-1,-3,0,0
214527,96,-8262,380,-1,-2,0,0
214532,91,-8259,359,-1,-2,0,0
214537,81,-8259,337,-1,-1,0,0
214542,77,-8256,324,-1,0,0,0
214547,81,-8256,328,-1,0,0,0
214553,87,-8259,339,-1,1,0,0
214557,90,-8261,350,-1,1,0,0
214563,92,-8259,364,-1,1,0,0
214567,91,-8262,376,-1,1,0,0
214572,97,-8262,382,-1,1,0,0
214577,105,-8263,386,0,0,0,0
214582,113,-8263,384,0,0,-1,0
214587,111,-8261,378,-1,0,-1,0
214592,103,-8261,374,-1,0,-1,0
214597,94,-8262,371,-1,0,-1,0
214602,86,-8263,372,-1,0,-1,0
214607,81,-8262,386,-1,0,-1,0
214612,72,-8261,399,-1,0,-1,0
214617,63,-8260,410,-1,1,-1,0
214622,56,-8258,419,-1,2,-1,0
214628,55,-8259,416,0,3,-1,0
214633,58,-8256,414,0,4,-1,0
214637,65,-8257,410,0,4,-1,0
214643,75,-8257,400,0,5,-1,0
214647,82,-8258,388,-1,5,-1,0
214652,91,-8257,383,-1,5,-1,0
214657,92,-8256,387,-1,6,-1,0
214662,101,-8256,401,-1,6,-1,0
214668,109,-8257,418,-1,7,-1,0
214673,114,-8257,439,-1,7,-1,0
214677,112,-8257,455,-1,7,-1,0
214682,105,-8255,458,-1,6,-1,0
214687,103,-8255,462,-1,6,-1,0
214692,116,-8255,467,-1,6,-1,0
214698,132,-8257,467,-1,4,-1,0
214702,148,-8259,471,-1,3,-1,0
214707,159,-8258,467,-1,3,-1,0
214713,165,-8256,463,-1,2,-1,0
214717,164,-8256,458,-1,1,-1,0
214722,161,-8257,462,-1,1,-1,0
214728,157,-8257,466,-1,2,-1,0
214732,140,-8257,465,-1,2,-1,0
214737,118,-8257,457,-1,1,-1,0
214742,96,-8257,447,-1,1,-1,0
214747,79,-8259,430,-1,1,-1,0
214752,75,-8256,416,-1,2,-1,0
214757,85,-8257,395,-1,2,-1,0
214762,97,-8258,373,-1,2,-1,0
214767,113,-8259,358,-1,2,-1,0
214772,126,-8257,346,-1,2,-1,0
214777,135,-8256,340,-1,1,-1,0
214782,140,-8261,352,-1,1,-1,0
214787,140,-8263,363,-1,1,-1,0
214792,137,-8263,379,-1,1,-1,0
214797,134,-8261,391,-1,0,-1,0
214802,131,-8260,402,-1,0,-1,0
214807,134,-8256,394,-1,0,-1,0
214813,147,-8256,383,-1,0,-1,0
214818,164,-8256,369,-1,0,-1,0
214822,184,-8257,348,-1,0,-1,0
214827,198,-8258,328,-1,0,-1,0
214832,204,-8260,314,-1,0,-1,0
214837,208,-8260,308,-1,0,-1,0
214843,210,-8261,309,-1,0,-1,0
214847,209,-8262,316,-1,0,-1,0
214852,202,-8259,327,-1,0,-1,0
214857,189,-8259,337,-1,-1,-1,0
214863,172,-8258,341,-1,-1,-1,0
214868,163,-8256,345,-1,-1,-1,0
214872,159,-8258,343,-1,0,-1,0
214878,159,-8257,338,-1,0,-1,0
214883,160,-8256,328,-1,0,-1,0
214887,167,-8259,320,-1,0,0,0
214892,179,-8261,324,-1,0,-1,0
214898,190,-8263,322,-1,0,-1,0
214902,203,-8264,320,0,0,-1,0
214908,209,-8265,321,0,0,-1,0
214912,206,-8267,317,0,0,-1,0
214917,200,-8265,304,0,0,-1,0
214923,186,-8265,300,0,0,-1,0
214927,178,-8265,303,0,1,-1,0
214932,176,-8266,301,0,1,-1,0
214938,175,-8267,302,0,2,-1,0
214943,179,-8268,307,0,2,-1,0
214948,184,-8266,317,0,2,-1,0
214953,181,-8269,325,0,2,-1,0
214957,176,-8268,343,0,3,-1,0
214962,171,-8268,364,0,3,-1,0
214968,163,-8269,388,0,3,-1,0
214972,146,-8265,406,0,3,-1,0
214978,134,-8265,413,0,3,0,0
214983,127,-8266,420,0,3,-1,0
214988,127,-8265,424,0,3,0,0
214992,139,-8264,421,0,3,0,0
214997,156,-8260,419,0,3,0,0
215003,168,-8261,415,0,2,-1,0
215007,179,-8260,408,-1,2,-1,0
215012,187,-8262,409,-1,1,-1,0
215018,191,-8262,411,-1,0,-1,0
215023,196,-8261,416,-1,0,0,0
215028,192,-8259,430,-1,-1,-1,0
215032,185,-8256,440,-1,-1,-1,0
215037,175,-8254,443,-1,-1,0,0
215042,166,-8254,440,-1,-1,0,0
215047,164,-8253,438,-1,-1,0,0
215052,163,-8254,435,-1,-1,0,0
215058,162,-8254,431,-1,-1,0,0
215062,161,-8254,426,-1,-1,0,0
215067,161,-8252,421,-1,-1,0,0
215073,162,-8250,415,-1,-1,0,0
215077,163,-8252,419,-1,-1,-1,0
215083,164,-8254,417,-1,-1,0,0
215087,159,-8259,413,-1,-1,0,0
215093,154,-8260,403,-1,-1,-1,0
215097,150,-8260,401,-1,-2,0,0
215102,143,-8259,396,-1,-2,0,0
215107,139,-8258,388,-1,-2,0,0
215113,134,-8260,374,-1,-1,0,0
215117,129,-8262,355,-1,-1,0,0
215122,126,-8262,335,-1,-1,-1,0
215127,118,-8262,328,-1,-1,-1,0
215132,113,-8265,324,-1,0,0,0
215137,116,-8265,328,-1,0,0,0
215142,121,-8265,335,-1,-1,0,0
215147,128,-8263,342,-1,-1,-1,0
215152,132,-8262,343,-1,-1,-1,0
215157,135,-8263,345,-1,0,-1,0
215163,134,-8264,349,-1,0,-1,0
215167,135,-8264,354,0,0,-1,0
215173,133,-8264,355,0,0,-1,0
215178,129,-8265,357,-1,0,-1,0
215182,128,-8266,356,-1,0,-1,0
215188,127,-8267,361,-1,0,-1,0
215193,131,-8269,366,-1,-1,0,0
215197,144,-8268,369,-1,-1,0,0
215202,156,-8266,362,-1,-1,0,0
215208,169,-8265,366,-1,-1,-1,0
215212,176,-8267,368,0,-1,-1,0
215217,177,-8267,368,-1,-1,-1,0
215222,177,-8267,366,-1,-1,-1,0
215227,174,-8266,362,-1,-1,-1,0
215233,172,-8269,359,-1,-1,-1,0
215237,173,-8271,361,-1,-1,0,0
215243,174,-8272,363,-1,-2,-1,0
215247,175,-8273,371,-1,-2,0,0
215252,178,-8272,384,-1,-1,-1,0
215257,176,-8272,398,-1,-1,0,0
215262,165,-8271,403,-1,-1,0,0
215267,146,-8270,405,-1,-1,-1,0
215272,119,-8268,404,-1,0,-1,0
215277,95,-8269,405,-1,0,-1,0
215282,78,-8271,403,-1,0,-1,0
215287,67,-8270,402,-1,0,-1,0
215292,67,-8267,400,-1,0,-1,0
215297,72,-8267,401,-1,1,-1,0
215302,76,-8268,404,-1,1,-1,0
215307,80,-8265,411,-1,2,-1,0
215313,81,-8261,418,-1,2,-1,0
215317,75,-8259,429,-1,3,-1,0
215322,64,-8258,435,-1,3,-1,0
215327,54,-8256,435,-1,3,-1,0
215332,52,-8258,431,-1,3,-1,0
215337,58,-8257,425,-1,3,-1,0
215342,72,-8255,416,-1,3,-1,0
215347,88,-8256,403,-1,4,-1,0
215352,102,-8260,393,-1,4,-1,0
215357,110,-8260,376,-1,5,-1,0
215362,108,-8258,358,-1,5,-1,0
215367,102,-8260,344,-1,6,-1,0
215372,98,-8261,333,-1,6,-1,0
215377,93,-8264,324,-1,5,-1,0
215382,87,-8261,310,-1,5,-1,0
215387,92,-8261,298,-1,6,-1,0
215393,106,-8261,290,0,6,-1,0
215397,119,-8259,284,0,5,-1,0
215402,132,-8262,280,0,6,-1,0
215407,132,-8262,277,0,6,-1,0
215412,120,-8259,278,0,7,-1,0
215417,102,-8262,282,0,7,-1,0
215422,79,-8261,283,0,8,-1,0
215427,58,-8262,287,0,10,-1,0
215432,57,-8260,287,0,12,-1,0
215437,62,-8260,288,0,14,-1,0
215442,80,-8263,286,0,15,-1,0
215447,104,-8262,277,0,16,-1,0
215452,135,-8265,267,0,16,-1,0
215458,165,-8265,263,0,16,-1,0
215462,190,-8265,261,0,16,-1,0
215467,204,-8265,267,0,16,-1,0
215472,205,-8266,272,0,16,-1,0
215477,199,-8262,287,0,17,-1,0
215482,192,-8259,308,0,16,-1,0
215487,189,-8258,333,0,15,-1,0
215492,186,-8255,353,0,13,-1,0
215497,172,-8254,366,0,13,-1,0
215502,158,-8256,369,0,14,-1,0
215507,140,-8258,375,0,17,-1,0
215512,88,-8255,373,0,20,-1,0
215517,40,-8255,308,0,29,-1,0
215522,-9,-8254,266,1,39,-1,0
215527,-66,-8261,167,1,52,-1,0
215532,-61,-8268,115,1,61,-1,0
215537,3,-8273,107,0,63,-1,0
215542,64,-8274,121,0,58,-1,0
215547,130,-8272,213,0,48,-1,0
215552,188,-8267,334,-1,40,-1,0
215557,222,-8263,447,0,34,-1,0
215562,244,-8263,554,0,30,-1,0
215567,253,-8261,622,0,28,-1,0
215572,245,-8264,641,0,27,-1,0
215577,220,-8266,613,1,26,-1,0
215582,181,-8268,530,0,26,-1,0
215587,124,-8270,432,0,27,-1,0
215592,59,-8270,329,0,31,-1,0
215597,-5,-8269,237,0,36,-1,0
215602,-66,-8268,172,0,44,-1,0
215607,-112,-8264,137,0,53,-1,0
215612,-135,-8263,118,0,62,-2,0
215617,-131,-8260,125,0,69,-2,0
215622,-86,-8258,140,0,72,-1,0
215627,-18,-8260,170,0,71,-1,0
215632,66,-8262,216,0,66,-1,0
215637,154,-8263,276,0,59,-1,0
215642,230,-8263,342,0,49,-1,0
215647,295,-8264,411,0,39,-1,0
215652,351,-8262,440,0,25,-1,0
215657,361,-8261,455,1,10,-1,0
215662,327,-8262,453,1,0,-1,0
215667,265,-8261,424,0,-2,-1,0
215672,204,-8261,415,0,1,-1,0
215677,143,-8263,415,0,7,-1,0
215682,95,-8265,408,0,13,-1,0
215687,54,-8266,414,0,20,-1,0
215692,44,-8268,423,0,26,-1,0
215697,50,-8267,427,0,30,-1,0
215702,70,-8264,435,0,32,-1,0
215707,108,-8262,447,0,31,-1,0
215712,164,-8260,468,0,29,-1,0
215717,229,-8261,488,0,24,-1,0
215722,294,-8263,503,0,20,-1,0
215727,346,-8262,516,0,15,-1,0
215732,380,-8263,518,0,13,-1,0
215737,390,-8264,508,0,12,-1,0
215742,380,-8267,484,0,12,-1,0
215747,353,-8269,449,0,13,-1,0
215752,312,-8266,410,0,14,-1,0
215757,265,-8267,370,0,15,-1,0
215762,216,-8270,329,0,17,-1,0
215767,169,-8271,308,0,20,-1,0
215772,141,-8270,294,0,23,-1,0
215777,129,-8268,299,0,27,-1,0
215782,131,-8268,317,0,32,-1,0
215787,143,-8267,338,0,36,-1,0
215792,155,-8267,359,0,40,-1,0
215797,166,-8266,371,0,43,-1,0
215802,184,-8266,393,0,44,-1,0
215807,205,-8268,412,0,44,-1,0
215812,229,-8270,431,0,41,-1,0
215817,249,-8273,446,-1,37,-1,0
215822,257,-8271,447,-1,32,-1,0
215827,259,-8270,447,-1,26,-1,0
215832,248,-8269,433,-1,22,-1,0
215837,229,-8269,412,-1,19,-1,0
215842,201,-8270,380,-1,18,-1,0
215847,163,-8271,348,0,19,-1,0
215852,124,-8271,317,0,22,-1,0
215857,84,-8272,279,-1,25,-1,0
215862,46,-8274,248,-1,29,-1,0
215867,15,-8273,224,0,34,-1,0
215872,-12,-8274,209,0,39,-1,0
215877,-21,-8273,208,0,44,-1,0
215882,-21,-8273,219,-1,49,-1,0
215887,19,-8270,240,-1,54,-1,0
215892,85,-8266,272,-1,58,0,0
215897,155,-8264,307,-1,61,0,0
215902,237,-8263,335,0,61,0,0
215907,308,-8262,343,0,61,0,0
215912,346,-8265,341,0,60,0,0
215917,370,-8268,311,0,58,0,0
215922,367,-8269,274,0,57,0,0
215927,342,-8269,234,0,58,0,0
215932,299,-8272,188,0,59,0,0
215937,253,-8275,166,-1,63,0,0
215942,185,-8276,152,-1,72,0,0
215947,118,-8275,144,-1,84,0,0
215952,73,-8274,143,0,98,0,0
215957,-6,-8277,117,0,114,0,0
215962,-51,-8280,113,0,131,0,0
215967,-58,-8282,92,0,147,0,0
215972,-25,-8281,85,0,157,1,0
215977,28,-8282,83,0,164,1,0
215982,105,-8283,86,0,167,1,0
215987,177,-8284,107,0,167,1,0
215992,238,-8283,132,0,164,0,0
215997,278,-8281,167,0,158,0,0
216002,296,-8280,222,0,149,0,0
216007,297,-8282,280,-1,137,0,0
216012,287,-8283,346,-1,123,0,0
216017,274,-8281,409,-1,109,1,0
216022,266,-8280,460,-1,95,1,0
216027,259,-8280,499,-1,82,1,0
216032,247,-8278,523,-1,70,1,0
216037,237,-8277,526,-1,59,0,0
216042,218,-8275,523,-1,50,0,0
216047,186,-8272,499,-1,43,0,0
216052,156,-8272,467,-1,39,0,0
216057,118,-8273,440,-1,36,0,0
216062,81,-8270,410,-1,35,0,0
216067,38,-8269,385,-1,36,0,0
216072,-8,-8269,365,-2,39,0,0
216077,-46,-8267,346,-2,45,0,0
216082,-60,-8268,337,-2,53,0,0
216087,-73,-8270,329,-2,59,0,0
216092,-75,-8271,285,-2,66,0,0
216097,-81,-8271,257,-2,76,0,0
216102,-84,-8272,228,-2,86,0,0
216107,-84,-8269,189,-2,98,0,0
216112,-81,-8268,165,-2,109,0,0
216117,-76,-8266,149,-2,118,0,0
216122,-65,-8266,143,-2,126,0,0
216127,-52,-8263,146,-2,132,0,0
216132,-36,-8260,148,-2,136,0,0
216137,-8,-8260,138,-2,137,0,0
216142,25,-8259,113,-2,134,0,0
216147,68,-8261,79,-2,126,0,0
216152,113,-8264,32,-2,114,0,0
216157,171,-8264,-21,-1,99,0,0
216162,217,-8265,-72,-1,82,0,0
216167,262,-8266,-117,-1,65,0,0
216172,287,-8267,-151,-1,48,0,0
216177,290,-8269,-181,-1,33,0,0
216182,282,-8268,-196,-1,21,-1,0
216187,243,-8268,-202,-1,11,-1,0
216192,191,-8265,-195,-1,4,-1,0
216197,128,-8265,-186,-1,1,-1,0
216202,56,-8266,-175,-1,1,-1,0
216207,-6,-8267,-153,-1,4,-1,0
216212,-54,-8267,-127,-1,9,-1,0
216217,-84,-8265,-97,-1,14,-1,0
216222,-99,-8263,-70,-1,19,-1,0
216227,-105,-8261,-55,-1,24,-1,0
216232,-101,-8258,-70,-1,29,-1,0
216237,-95,-8257,-106,0,34,-1,0
216242,-81,-8260,-162,0,40,-1,0
216247,-54,-8261,-222,0,47,-1,0
216252,-22,-8264,-278,0,53,-1,0
216257,14,-8268,-318,-1,58,-1,0
216262,40,-8266,-347,-1,61,-1,0
216267,69,-8265,-350,0,64,-1,0
216272,97,-8261,-338,0,66,-1,0
216277,119,-8258,-309,0,69,-1,0
216282,141,-8259,-264,0,70,-1,0
216287,158,-8259,-225,0,70,-1,0
216292,172,-8261,-183,0,69,-1,0
216297,187,-8261,-143,0,67,-1,0
216302,196,-8261,-109,0,64,-1,0
216307,200,-8256,-67,0,60,-1,0
216312,168,-8254,-59,0,54,-1,0
216317,135,-8254,-50,0,48,-1,0
216322,95,-8251,-35,0,42,-1,0
216327,55,-8254,-45,0,35,-1,0
216332,34,-8254,-42,0,28,-1,0
216337,20,-8255,-58,0,24,-1,0
216342,19,-8261,-67,0,21,-1,0
216347,38,-8261,-70,0,22,-1,0
216352,60,-8262,-82,0,25,-1,0
216357,91,-8260,-75,0,30,-1,0
216362,123,-8258,-65,0,37,-1,0
216367,151,-8258,-50,0,43,-1,0
216372,171,-8259,-22,0,49,-1,0
216377,193,-8259,-11,-1,55,-1,0
216382,222,-8259,-2,0,59,-1,0
216387,258,-8260,4,0,62,0,0
216392,308,-8263,-12,0,64,0,0
216397,358,-8261,-27,0,63,0,0
216402,406,-8264,-50,0,60,0,0
216407,450,-8265,-69,0,54,0,0
216412,486,-8267,-77,-1,46,0,0
216417,516,-8267,-79,-1,38,0,0
216422,539,-8266,-73,-1,28,0,0
216427,555,-8266,-74,0,19,0,0
216432,563,-8265,-78,0,10,0,0
216437,547,-8267,-78,0,3,0,0
216442,516,-8265,-74,0,-3,0,0
216447,469,-8266,-72,-1,-7,0,0
216452,412,-8265,-65,0,-7,0,0
216457,351,-8265,-61,0,-5,0,0
216462,287,-8264,-67,0,0,0,0
216467,226,-8263,-82,0,7,0,0
216472,168,-8262,-108,0,15,0,0
216477,113,-8262,-147,0,23,0,0
216482,65,-8261,-187,0,32,0,0
216487,22,-8260,-216,0,40,0,0
216492,-16,-8259,-239,0,47,0,0
216497,-59,-8260,-247,-1,52,0,0
216502,-104,-8258,-240,-1,55,-1,0
216507,-143,-8260,-228,-1,58,-1,0
216512,-182,-8263,-207,0,59,-1,0
216517,-217,-8264,-186,0,60,-1,0
216522,-250,-8268,-169,0,61,-1,0
216527,-280,-8272,-155,-1,62,-1,0
216532,-307,-8274,-131,-1,65,-1,0
216537,-330,-8273,-105,-1,70,-1,0
216542,-340,-8271,-73,-1,76,-1,0
216547,-340,-8273,-48,-1,84,-1,0
216552,-328,-8272,-39,-1,92,-1,0
216557,-297,-8272,-39,-1,100,-1,0
216562,-257,-8270,-52,-1,107,-1,0
216567,-204,-8269,-75,-1,113,-1,0
216572,-145,-8267,-98,-1,118,-1,0
216577,-81,-8266,-121,-1,121,-1,0
216582,-14,-8265,-141,-1,121,-1,0
216587,54,-8262,-153,-1,119,-1,0
216592,128,-8265,-162,-1,114,-1,0
216597,202,-8266,-166,-1,109,-1,0
216602,269,-8266,-176,-1,102,-1,0
216607,330,-8267,-197,0,95,-1,0
216612,388,-8268,-223,0,87,-1,0
216617,446,-8269,-244,0,80,-1,0
216622,507,-8269,-261,0,73,-1,0
216627,564,-8266,-276,0,66,-1,0
216632,618,-8264,-272,0,60,-1,0
216637,674,-8263,-257,0,52,-1,0
216642,720,-8264,-246,0,44,-1,0
216647,759,-8264,-241,0,35,-1,0
216652,795,-8262,-247,0,26,-1,0
216657,818,-8262,-270,0,16,0,0
216662,826,-8264,-303,1,5,-1,0
216667,811,-8266,-341,1,-6,0,0
216672,770,-8269,-364,0,-18,-1,0
216677,699,-8271,-369,0,-28,-1,0
216682,606,-8271,-359,0,-37,-1,0
216687,493,-8269,-329,0,-44,-1,0
216692,371,-8270,-288,0,-50,-1,0
216697,258,-8270,-257,1,-52,-1,0
216702,171,-8268,-250,1,-51,-1,0
216707,113,-8270,-264,1,-46,-1,0
216712,90,-8271,-305,1,-37,-1,0
216717,87,-8272,-345,1,-26,-1,0
216722,95,-8274,-370,1,-13,-1,0
216727,118,-8273,-383,0,0,-1,0
216732,151,-8273,-366,0,9,-1,0
216737,182,-8269,-321,0,14,-1,0
216742,217,-8266,-275,0,16,-1,0
216747,260,-8264,-246,1,17,-1,0
216752,318,-8262,-247,1,16,0,0
216757,393,-8263,-272,1,13,0,0
216762,465,-8262,-331,1,9,0,0
216767,524,-8264,-408,1,3,0,0
216772,569,-8266,-479,1,-6,0,0
216777,585,-8268,-533,1,-16,-1,0
216782,570,-8268,-555,1,-24,-1,0
216787,526,-8268,-544,1,-31,-1,0
216792,459,-8268,-499,1,-34,-1,0
216797,376,-8266,-438,1,-34,-1,0
216802,285,-8264,-375,1,-32,-1,0
216807,196,-8259,-323,2,-28,-1,0
216812,122,-8259,-285,2,-20,-1,0
216817,79,-8260,-267,2,-11,-1,0
216822,75,-8263,-271,2,-1,0,0
216827,106,-8262,-293,2,9,0,0
216832,168,-8262,-324,2,18,0,0
216837,243,-8265,-348,2,26,0,0
216842,315,-8267,-356,2,33,0,0
216847,374,-8269,-350,1,38,0,0
216852,414,-8271,-321,1,42,0,0
216857,431,-8273,-272,1,43,0,0
216862,428,-8272,-202,1,41,0,0
216867,401,-8271,-125,1,36,0,0
216872,358,-8271,-58,1,29,0,0
216877,302,-8270,-10,1,23,0,0
216882,247,-8268,15,1,20,0,0
216887,210,-8266,22,1,18,0,0
216892,200,-8268,11,1,18,0,0
216897,173,-8265,4,1,18,0,0
216902,173,-8270,-66,1,21,0,0
216907,193,-8275,-122,1,26,0,0
216912,214,-8279,-148,1,29,0,0
216917,246,-8283,-182,1,29,0,0
216922,270,-8282,-167,1,28,0,0
216927,273,-8280,-108,0,26,-1,0
216932,264,-8276,-34,0,23,-1,0
216937,242,-8274,57,0,22,0,0
216942,219,-8274,144,0,20,0,0
216947,212,-8274,194,1,19,0,0
216952,214,-8275,217,1,17,0,0
216957,230,-8275,217,1,15,0,0
216962,263,-8278,194,0,13,0,0
216967,304,-8280,176,0,12,0,0
216972,345,-8279,165,0,10,0,0
216977,386,-8277,166,-1,8,0,0
216982,411,-8275,194,-1,7,0,0
216987,416,-8275,237,-1,5,0,0
216992,403,-8273,270,-1,3,-1,0
216997,371,-8274,296,-1,1,-1,0
217002,326,-8274,320,-1,-2,-1,0
217007,279,-8269,316,-1,-5,-1,0
217012,238,-8269,292,-1,-9,-1,0
217017,198,-8275,257,-1,-12,-1,0
217022,174,-8276,216,-1,-14,-1,0
217027,168,-8275,173,-1,-16,-1,0
217032,183,-8274,138,-1,-17,-1,0
217037,217,-8275,119,-1,-19,-1,0
217042,252,-8275,101,-1,-20,-1,0
217047,283,-8274,89,-1,-20,-1,0
217052,305,-8274,87,-2,-18,-1,0
217057,324,-8274,86,-2,-15,-1,0
217062,332,-8275,89,-2,-15,-1,0
217067,322,-8273,105,-2,-15,-1,0
217072,291,-8273,106,-2,-15,-1,0
217077,243,-8274,91,-2,-13,-1,0
217082,196,-8272,73,-2,-10,-1,0
217087,143,-8272,40,-2,-6,-1,0
217092,108,-8277,-4,-2,-1,-1,0
217097,102,-8280,-36,-2,3,-1,0
217102,116,-8279,-64,-2,5,-1,0
217107,154,-8284,-75,-2,5,-1,0
217112,195,-8285,-52,-2,3,-1,0
217117,231,-8281,-18,-2,1,-1,0
217122,264,-8278,31,-2,1,-1,0
217127,287,-8279,78,-2,1,-1,0
217132,298,-8277,118,-2,1,-1,0
217137,302,-8275,129,-2,0,-1,0
217142,302,-8272,112,-2,-2,-1,0
217147,284,-8270,80,-2,-4,-1,0
217152,255,-8268,30,-2,-6,-1,0
217157,234,-8269,-35,-3,-7,-1,0
217162,219,-8269,-79,-3,-9,-1,0
217167,202,-8271,-112,-3,-10,-1,0
217172,185,-8267,-133,-3,-9,-1,0
217177,176,-8264,-149,-3,-7,-1,0
217182,176,-8267,-159,-2,-6,-1,0
217187,180,-8268,-176,-2,-4,-1,0
217192,187,-8264,-194,-2,-4,-2,0
217197,203,-8263,-209,-2,-4,-2,0
217202,229,-8262,-222,-2,-6,-1,0
217207,256,-8261,-229,-2,-8,-1,0
217212,295,-8261,-223,-2,-10,-1,0
217217,341,-8263,-212,-2,-11,-1,0
217222,396,-8262,-190,-2,-12,-1,0
217227,453,-8257,-155,-2,-13,-1,0
217232,504,-8258,-124,-2,-15,-1,0
217237,551,-8260,-105,-2,-17,-1,0
217242,579,-8259,-88,-2,-20,-1,0
217247,587,-8259,-85,-2,-22,-1,0
217252,582,-8258,-101,-2,-24,-1,0
217257,564,-8262,-115,-2,-26,-1,0
217262,532,-8261,-148,-2,-29,-1,0
217267,493,-8260,-200,-2,-29,-1,0
217272,454,-8259,-263,-2,-27,-1,0
217277,420,-8260,-336,-2,-23,0,0
217282,400,-8260,-421,-2,-18,0,0
217287,398,-8261,-495,-2,-13,0,0
217292,414,-8265,-551,-2,-9,0,0
217297,444,-8266,-575,-2,-7,0,0
217302,483,-8266,-566,-2,-6,0,0
217307,526,-8267,-543,-2,-7,0,0
217312,557,-8264,-501,-2,-7,0,0
217317,576,-8264,-447,-2,-8,0,0
217322,588,-8263,-404,-2,-9,0,0
217327,592,-8260,-363,-1,-10,0,0
217332,583,-8262,-339,-1,-12,0,0
217337,566,-8262,-342,-1,-14,0,0
217342,534,-8259,-359,-1,-15,1,0
217347,492,-8259,-386,-1,-16,1,0
217352,447,-8260,-417,-1,-16,0,0
217357,397,-8263,-441,-1,-16,1,0
217362,341,-8264,-462,-1,-15,1,0
217367,282,-8266,-480,-1,-14,1,0
217372,225,-8269,-492,-1,-11,1,0
217377,183,-8286,-507,-1,-9,1,0
217382,146,-8295,-533,-1,-7,1,0
217387,157,-8308,-492,-1,-5,1,0
217392,202,-8335,-377,0,-4,0,0
217397,257,-8368,-240,0,-3,0,0
217402,300,-8402,-121,1,-3,0,0
217407,311,-8428,-63,1,-4,0,0
217412,287,-8450,-64,2,-6,-1,0
217417,255,-8476,-80,2,-7,-1,0
217422,242,-8508,-63,2,-8,-1,0
217427,258,-8546,-4,2,-8,-1,0
217432,294,-8586,73,3,-7,-1,0
217437,323,-8627,125,3,-6,-1,0
217442,330,-8661,137,4,-5,-1,0
217447,314,-8686,127,4,-5,-2,0
217452,293,-8696,127,4,-6,-2,0
217457,281,-8697,163,4,-6,-2,0
217462,286,-8696,223,4,-6,-2,0
217467,305,-8689,278,4,-5,-2,0
217472,325,-8673,302,5,-3,-2,0
217477,332,-8649,288,5,-2,-2,0
217482,315,-8622,263,5,-1,-2,0
217487,291,-8588,251,5,-1,-2,0
217492,281,-8552,275,5,-1,-2,0
217497,303,-8515,317,5,-1,-2,0
217502,350,-8478,355,5,0,-2,0
217507,403,-8445,373,5,0,-2,0
217512,433,-8413,374,5,-1,-2,0
217517,436,-8383,358,5,-2,-2,0
217522,417,-8349,350,5,-4,-2,0
217527,403,-8308,351,5,-4,-2,0
217532,411,-8270,355,5,-3,-2,0
217537,436,-8223,346,5,-2,-2,0
217542,468,-8172,325,5,-1,-2,0
217547,491,-8118,304,5,-1,-3,0
217552,492,-8060,302,5,-2,-2,0
217557,485,-8001,318,5,-4,-3,0
217562,491,-7952,344,5,-5,-2,0
217567,517,-7912,364,5,-5,-2,0
217572,559,-7875,354,5,-5,-2,0
217577,593,-7845,319,5,-6,-2,0
217582,603,-7823,281,5,-7,-2,0
217587,588,-7814,258,4,-6,-2,0
217592,561,-7816,239,4,-6,-2,0
217597,535,-7825,226,4,-5,-2,0
217602,530,-7837,209,4,-5,-2,0
217607,536,-7852,184,4,-5,-2,0
217612,541,-7870,146,4,-4,-2,0
217617,535,-7890,103,4,-3,-2,0
217622,507,-7913,58,4,-2,-2,0
217627,463,-7935,32,4,-1,-2,0
217632,418,-7961,24,4,-2,-2,0
217637,391,-7994,32,4,-2,-2,0
217642,390,-8030,33,5,-3,-2,0
217647,396,-8075,19,5,-4,-2,0
217652,390,-8123,-13,5,-5,-3,0
217657,357,-8176,-51,5,-5,-3,0
217662,313,-8230,-79,5,-6,-3,0
217667,272,-8283,-94,5,-6,-3,0
217672,247,-8332,-94,5,-6,-3,0
217677,245,-8383,-100,5,-6,-3,0
217682,250,-8426,-122,5,-5,-4,0
217687,243,-8461,-163,5,-4,-4,0
217692,218,-8489,-214,5,-3,-4,0
217697,182,-8509,-242,5,-3,-4,0
217702,160,-8530,-243,5,-2,-4,0
217707,170,-8547,-224,6,-1,-4,0
217712,214,-8556,-196,6,0,-4,0
217717,267,-8562,-184,6,1,-4,0
217722,308,-8556,-189,6,1,-4,0
217727,321,-8541,-200,6,2,-5,0
217732,334,-8518,-202,6,2,-5,0
217737,355,-8489,-172,6,2,-5,0
217742,384,-8456,-129,5,2,-4,0
217747,431,-8413,-91,5,3,-5,0
217752,473,-8369,-61,5,2,-4,0
217757,503,-8323,-56,5,2,-4,0
217762,523,-8276,-52,5,2,-4,0
217767,541,-8228,-39,5,1,-4,0
217772,563,-8180,-12,5,1,-4,0
217777,592,-8136,25,4,1,-4,0
217782,620,-8102,56,4,1,-4,0
217787,645,-8074,77,4,2,-4,0
217792,666,-8052,84,4,3,-4,0
217797,680,-8034,89,4,4,-4,0
217802,689,-8020,97,3,5,-3,0
217807,690,-8009,111,3,7,-3,0
217812,681,-8006,127,3,8,-3,0
217817,666,-8013,143,3,10,-3,0
217822,655,-8024,154,3,11,-3,0
217827,656,-8029,166,3,12,-3,0
217832,660,-8037,178,2,12,-2,0
217837,659,-8045,206,2,11,-2,0
217842,653,-8056,239,2,10,-2,0
217847,651,-8065,273,2,10,-2,0
217852,655,-8074,294,1,9,-2,0
217857,655,-8087,303,1,8,-1,0
217862,646,-8105,305,1,6,-1,0
217867,629,-8132,312,0,5,-1,0
217872,613,-8162,325,0,4,-1,0
217877,599,-8190,333,0,3,-1,0
217882,586,-8214,331,0,3,-1,0
217887,573,-8236,314,-1,4,-1,0
217892,552,-8252,287,-1,4,-1,0
217897,521,-8262,260,-1,5,-1,0
217902,486,-8273,243,-1,5,-1,0
217907,458,-8286,231,-1,7,0,0
217912,434,-8298,215,-1,8,0,0
217917,415,-8305,199,-1,9,0,0
217922,397,-8302,176,-2,10,-1,0
217927,379,-8299,168,-2,10,0,0
217932,361,-8295,175,-2,9,-1,0
217937,352,-8293,192,-2,7,-1,0
217942,348,-8289,196,-2,6,-1,0
217947,347,-8285,184,-2,5,-1,0
217952,345,-8280,154,-3,5,-1,0
217957,337,-8274,108,-3,6,-1,0
217962,330,-8266,76,-3,6,-1,0
217967,335,-8256,67,-3,6,0,0
217972,349,-8251,85,-3,6,0,0
217977,374,-8244,107,-4,6,0,0
217982,403,-8233,109,-4,7,0,0
217987,428,-8218,93,-4,7,0,0
217992,441,-8202,61,-4,7,0,0
217997,440,-8179,42,-4,6,1,0
218002,430,-8150,41,-4,7,1,0
218007,418,-8122,57,-5,7,1,0
218012,408,-8095,64,-5,8,1,0
218017,395,-8074,52,-5,9,1,0
218022,378,-8054,34,-5,10,2,0
218027,352,-8041,2,-5,11,2,0
218032,320,-8029,-17,-5,11,2,0
218037,286,-8021,-29,-5,12,2,0
218042,253,-8009,-38,-5,12,2,0
218047,228,-7992,-43,-5,12,2,0
218052,212,-7971,-47,-5,12,2,0
218057,198,-7948,-51,-5,12,2,0
218062,181,-7925,-66,-5,11,3,0
218067,162,-7897,-80,-5,11,3,0
218072,138,-9109,-75,-5,12,3,0
218077,161,-9337,-43,-5,15,3,0
218082,144,-9201,-50,-4,9,2,0
218087,110,-9010,-25,-4,2,1,0
218092,129,-8898,6,-4,12,1,0
218097,145,-8820,45,-3,19,1,0
218102,184,-8752,85,-3,14,2,0
218107,241,-8682,85,-3,8,2,0
218112,285,-8619,46,-3,8,2,0
218117,344,-8569,22,-3,8,2,0
218122,405,-8524,8,-3,8,1,0
218127,431,-8483,-9,-3,8,1,0
218132,429,-8452,-20,-3,8,1,0
218137,396,-8424,-40,-3,10,1,0
218142,331,-8403,-75,-3,13,1,0
218147,276,-8384,-96,-3,15,1,0
218152,250,-8366,-103,-3,16,1,0
218157,250,-8351,-109,-3,17,1,0
218162,284,-8341,-103,-3,16,1,0
218167,334,-8334,-90,-3,14,1,0
218172,386,-8324,-79,-3,13,1,0
218177,440,-8315,-60,-3,11,1,0
218182,484,-8309,-43,-3,10,1,0
218187,495,-8303,-33,-3,8,1,0
218192,485,-8299,-29,-3,7,1,0
218197,445,-8299,-37,-3,6,1,0
218202,391,-8297,-62,-3,4,1,0
218207,348,-8295,-92,-3,3,1,0
218212,322,-8293,-114,-3,3,1,0
218217,314,-8291,-136,-3,2,1,0
218222,323,-8287,-148,-3,1,1,0
218227,334,-8286,-154,-3,0,1,0
218232,343,-8283,-156,-3,-2,1,0
218237,354,-8279,-154,-3,-3,1,0
218242,362,-8278,-148,-2,-4,1,0
218247,355,-8277,-151,-2,-6,1,0
218252,333,-8274,-157,-2,-7,1,0
218257,307,-8274,-175,-2,-8,1,0
218262,280,-8274,-200,-2,-9,1,0
218267,262,-8275,-231,-2,-9,1,0
218272,267,-8274,-269,-2,-9,1,0
218277,287,-8277,-311,-2,-8,1,0
218282,304,-8279,-354,-1,-7,1,0
218287,319,-8280,-393,-1,-7,1,0
218292,334,-8277,-422,-1,-6,1,0
218297,345,-8271,-439,-1,-7,1,0
218302,359,-8267,-449,-1,-8,1,0
218307,366,-8266,-450,-1,-9,1,0
218312,357,-8267,-451,-1,-9,1,0
218317,341,-8268,-454,0,-10,1,0
218322,327,-8269,-456,0,-9,1,0
218327,319,-8269,-473,0,-9,1,0
218332,322,-8267,-495,0,-9,1,0
218337,330,-8266,-520,0,-8,1,0
218342,342,-8263,-554,1,-8,1,0
218347,345,-8262,-585,1,-8,1,0
218352,341,-8262,-604,1,-7,1,0
218357,332,-8261,-612,1,-7,1,0
218362,321,-8262,-598,1,-6,1,0
218367,307,-8264,-575,1,-6,0,0
218372,285,-8266,-566,1,-5,0,0
218377,254,-8268,-556,2,-5,0,0
218382,219,-8267,-551,2,-4,1,0
218387,190,-8262,-557,2,-3,0,0
218392,175,-8263,-558,2,-1,0,0
218397,166,-8262,-563,2,0,0,0
218402,160,-8264,-567,2,0,0,0
218407,151,-8265,-570,3,1,0,0
218412,153,-8266,-561,3,1,0,0
218417,165,-8265,-531,3,2,0,0
218422,185,-8265,-488,3,2,0,0
218427,198,-8264,-447,3,3,0,0
218432,206,-8264,-400,3,3,0,0
218437,209,-8265,-353,3,3,0,0
218442,208,-8266,-309,3,3,0,0
218447,212,-8267,-255,3,2,0,0
218452,217,-8271,-191,3,2,0,0
218457,224,-8272,-129,3,1,0,0
218462,222,-8273,-67,3,1,0,0
218467,218,-8272,-3,3,1,0,0
218472,226,-8273,63,3,1,0,0
218477,227,-8272,129,3,1,0,0
218482,225,-8272,180,3,1,0,0
218487,212,-8273,217,3,1,0,0
218492,184,-8275,241,3,2,0,0
218497,154,-8273,251,3,4,0,0
218502,139,-8273,261,2,5,0,0
218507,138,-8276,276,2,6,0,0
218512,154,-8274,301,2,6,0,0
218517,175,-8271,339,2,5,0,0
218522,198,-8271,385,2,4,0,0
218527,218,-8272,431,1,3,0,0
218532,238,-8271,475,1,2,0,0
218537,255,-8270,516,1,1,-1,0
218542,270,-8271,542,1,0,-1,0
218547,275,-8273,557,1,-1,-1,0
218552,267,-8276,556,1,-2,-1,0
218557,251,-8279,538,1,-3,-1,0
218562,244,-8281,520,1,-3,-1,0
218567,249,-8281,507,1,-3,-1,0
218572,263,-8284,499,1,-3,0,0
218577,278,-8282,490,0,-4,0,0
218582,295,-8280,482,0,-4,-1,0
218587,313,-8280,478,0,-5,-1,0
218592,330,-8280,472,0,-5,-1,0
218597,343,-8280,459,0,-5,-1,0
218602,353,-8281,443,0,-4,-1,0
218607,350,-8278,415,0,-3,-1,0
218612,344,-8278,380,0,-2,-1,0
218617,343,-8278,349,0,-2,0,0
218622,350,-8278,328,0,-3,0,0
218627,363,-8276,320,0,-3,0,0
218632,377,-8276,315,0,-3,0,0
218637,389,-8278,314,0,-3,0,0
218642,395,-8279,310,0,-3,0,0
218647,403,-8280,301,0,-2,0,0
218652,404,-8280,281,0,-2,0,0
218657,404,-8280,265,0,-2,0,0
218662,397,-8280,242,0,-3,0,0
218667,382,-8279,216,0,-3,0,0
218672,365,-8276,192,0,-3,0,0
218677,356,-8274,179,0,-3,0,0
218682,355,-8275,173,0,-3,0,0
218687,362,-8278,175,0,-3,0,0
218692,365,-8279,176,0,-2,0,0
218697,361,-8276,171,0,-2,0,0
218702,352,-8277,160,0,-2,0,0
218707,341,-8278,142,0,-2,0,0
218712,333,-8276,132,0,-2,0,0
218717,331,-8276,130,0,-2,0,0
218722,328,-8275,127,0,-2,0,0
218727,322,-8274,122,0,-2,0,0
218732,314,-8271,115,0,-2,0,0
218737,310,-8269,104,0,-1,0,0
218742,313,-8268,104,0,0,0,0
218747,320,-8269,99,0,0,0,0
218752,325,-8268,96,0,0,0,0
218757,325,-8265,98,0,-1,0,0
218762,323,-8265,92,0,-1,0,0
218767,323,-8266,94,0,-1,0,0
218772,325,-8269,106,0,0,0,0
218777,327,-8270,113,0,0,0,0
218782,322,-8275,125,0,0,0,0
218787,311,-8278,133,0,0,0,0
218792,293,-8281,133,0,0,0,0
218797,275,-8282,139,0,0,0,0
218802,264,-8285,145,0,0,0,0
218807,258,-8282,149,0,0,0,0
218812,254,-8280,153,0,-1,0,0
218817,255,-8278,161,0,-1,0,0
218822,260,-8275,174,0,-1,0,0
218827,264,-8273,182,0,-1,0,0
218832,274,-8270,188,0,-1,0,0
218837,280,-8266,195,0,-1,0,0
218842,273,-8265,193,0,-1,0,0
218847,254,-8262,188,0,-1,0,0
218852,230,-8263,177,0,-1,0,0
218857,212,-8265,166,0,0,0,0
218862,199,-8265,166,0,1,0,0
218867,192,-8266,171,0,1,-1,0
218872,183,-8268,174,0,1,-1,0
218877,179,-8272,176,0,1,-1,0
218882,179,-8274,181,0,1,-1,0
218887,186,-8271,189,0,1,-1,0
218892,202,-8272,198,0,1,-1,0
218897,221,-8273,212,0,1,-1,0
218902,233,-8276,216,0,0,-1,0
218907,239,-8273,212,0,0,-1,0
218912,241,-8273,201,0,-1,-1,0
218917,243,-8273,199,0,-1,-1,0
218922,253,-8273,200,0,-1,-1,0
218927,266,-8270,209,0,-2,-1,0
218932,277,-8270,215,-1,-2,-1,0
218937,284,-8272,224,-1,-3,-1,0
218942,294,-8271,228,-1,-3,-1,0
218947,305,-8272,225,0,-3,-1,0
218952,313,-8274,227,0,-3,-1,0
218957,314,-8275,223,0,-3,-1,0
218962,311,-8275,216,0,-3,-1,0
218967,299,-8278,199,-1,-2,-1,0
218972,291,-8279,182,-1,-2,-1,0
218977,288,-8282,177,-1,-2,-1,0
218982,287,-8284,171,-1,-2,-1,0
218987,288,-8284,167,-1,-1,-1,0
218992,284,-8286,168,-1,-1,-1,0
218997,285,-8288,166,-1,0,-1,0
219002,292,-8289,170,-1,0,-1,0
219007,303,-8287,175,-1,-1,-1,0
219012,316,-8285,183,-1,-1,-1,0
219017,324,-8288,194,-1,-1,-1,0
219022,330,-8287,207,-1,-2,-1,0
219027,334,-8286,216,-1,-2,-1,0
219032,341,-8284,227,-1,-2,-1,0
219037,353,-8282,237,-1,-3,-1,0
219042,367,-8280,248,-1,-3,-1,0
219047,375,-8280,253,-1,-3,-1,0
219052,379,-8277,253,-1,-4,-1,0
219057,379,-8279,250,-1,-4,-1,0
219062,376,-8279,248,-1,-4,-1,0
219067,367,-8278,246,-1,-4,-1,0
219072,357,-8279,238,-1,-4,-1,0
219077,342,-8277,233,-1,-4,-1,0
219082,325,-8277,226,-1,-4,-1,0
219087,309,-8276,221,-1,-5,-1,0
219092,300,-8276,221,-1,-5,-1,0
219097,299,-8277,226,-1,-6,-1,0
219102,302,-8276,232,-1,-5,-1,0
219107,304,-8274,234,-1,-5,-1,0
219112,306,-8271,227,-1,-4,-1,0
219117,303,-8271,218,-1,-4,-1,0
219122,304,-8273,208,-1,-4,-1,0
219127,299,-8274,195,-1,-4,-1,0
219132,289,-8274,190,-1,-4,-1,0
219137,278,-8274,186,-1,-4,-1,0
219142,268,-8273,192,-1,-4,-1,0
219147,264,-8274,200,-1,-4,-1,0
219152,266,-8275,211,-1,-4,-1,0
219157,274,-8275,222,-1,-3,-1,0
219162,287,-8274,231,-1,-2,-1,0
219167,297,-8274,235,-1,-2,-1,0
219172,302,-8280,232,-1,-3,-1,0
219177,304,-8285,231,-1,-3,-1,0
219182,304,-8284,227,-1,-3,-1,0
219187,299,-8281,230,-1,-4,-1,0
219192,293,-8280,231,-2,-4,-1,0
219197,280,-8280,225,-1,-4,-1,0
219202,263,-8281,213,-1,-4,-1,0
219207,248,-8283,202,-1,-4,-1,0
219212,235,-8285,188,-1,-3,-1,0
219217,230,-8285,176,-2,-3,-1,0
219222,232,-8283,166,-2,-3,-1,0
219227,231,-8283,148,-2,-3,-1,0
219232,231,-8283,144,-2,-2,-1,0
219237,238,-8282,139,-2,-2,-1,0
219242,250,-8279,146,-2,-1,-1,0
219247,265,-8276,144,-1,-1,-1,0
219252,275,-8275,140,-1,0,-1,0
219257,276,-8275,131,-1,0,-1,0
219262,279,-8277,122,-1,1,-1,0
219267,280,-8280,111,-1,1,-1,0
219272,289,-8280,109,-2,0,-1,0
219277,301,-8278,108,-1,0,-1,0
219282,308,-8275,109,-2,0,-1,0
219287,313,-8275,107,-2,0,-1,0
219292,322,-8272,108,-1,0,-1,0
219297,332,-8272,109,-1,0,-1,0
219302,352,-8273,107,-1,0,-1,0
219307,372,-8272,101,-1,-1,-1,0
219312,383,-8273,99,-1,-1,-1,0
219317,387,-8271,89,-1,-2,-1,0
219322,384,-8271,79,-1,-2,-1,0
219327,382,-8271,73,-1,-1,-1,0
219332,385,-8271,63,-1,-1,-1,0
219337,384,-8271,56,-1,-1,-1,0
219342,380,-8269,41,-1,0,-1,0
219347,376,-8268,28,-1,1,-1,0
219352,376,-8270,12,-1,1,-1,0
219357,376,-8271,1,-1,1,-1,0
219362,382,-8271,-5,-1,1,-1,0
219367,386,-8273,-12,-1,0,-1,0
219372,386,-8271,-19,-1,0,-1,0
219377,380,-8270,-35,-1,0,-1,0
219382,372,-8268,-46,-1,0,-1,0
219387,367,-8266,-56,-1,1,-1,0
219392,363,-8267,-72,-1,1,-1,0
219397,356,-8269,-86,-1,1,-1,0
219402,349,-8272,-101,-1,1,-1,0
219407,345,-8273,-110,-1,1,-1,0
219412,348,-8271,-107,-1,1,-1,0
219417,359,-8271,-102,-1,1,-1,0
219422,373,-8269,-92,0,1,-1,0
219427,387,-8267,-81,0,1,-1,0
219432,391,-8264,-76,0,1,-1,0
219437,389,-8263,-76,0,2,-1,0
219442,380,-8264,-82,0,3,-1,0
219447,375,-8266,-91,0,3,-1,0
219452,364,-8269,-94,0,3,-1,0
219457,353,-8269,-100,0,3,-1,0
219462,342,-8267,-102,0,5,-1,0
219467,334,-8266,-102,0,5,-1,0
219472,332,-8269,-92,0,6,-1,0
219477,334,-8269,-72,0,6,-1,0
219482,338,-8268,-47,0,5,-1,0
219487,346,-8268,-22,0,4,-1,0
219492,352,-8266,5,0,4,-1,0
219497,355,-8269,19,0,3,-1,0
219502,363,-8273,42,0,3,-1,0
219507,379,-8275,63,0,3,-1,0
219512,395,-8274,79,0,2,-1,0
219517,405,-8270,94,0,2,-1,0
219522,406,-8269,109,0,1,-1,0
219527,402,-8270,118,0,1,-1,0
219532,397,-8269,133,0,1,-1,0
219537,397,-8271,147,0,1,-1,0
219542,398,-8269,159,0,1,-1,0
219547,400,-8272,175,0,1,-1,0
219552,396,-8275,194,0,0,-1,0
219557,386,-8278,204,0,0,-1,0
219562,379,-8275,220,0,0,-1,0
219567,377,-8274,231,0,0,-1,0
219572,376,-8273,237,0,1,-1,0
219577,377,-8272,236,0,1,-1,0
219582,372,-8269,232,0,1,-1,0
219587,366,-8269,234,0,0,-1,0
219592,360,-8268,235,0,0,-1,0
219597,353,-8268,231,0,0,-1,0
219602,349,-8271,228,0,1,-1,0
219607,346,-8272,223,0,2,-1,0
219612,342,-8272,215,0,2,-1,0
219617,338,-8272,213,0,2,-1,0
219622,341,-8272,214,-1,1,-1,0
219627,343,-8273,213,-1,1,-1,0
219632,345,-8272,218,-1,1,-1,0
219637,343,-8272,220,-1,0,-1,0
219642,337,-8270,216,-1,0,-1,0
219647,330,-8270,217,-1,1,-1,0
219652,323,-8271,213,-1,1,-1,0
219657,320,-8274,202,-1,1,-1,0
219662,318,-8274,191,-1,1,-1,0
219667,314,-8274,181,-1,2,-1,0
219672,311,-8274,173,-1,1,-1,0
219677,312,-8274,166,-1,1,-1,0
219682,319,-8275,163,-1,1,-1,0
219687,327,-8274,162,-1,1,-1,0
219692,342,-8273,163,-1,2,-1,0
219697,356,-8272,163,-1,1,-1,0
219702,366,-8274,158,-1,1,-1,0
219707,369,-8273,155,-1,0,-1,0
219712,368,-8276,145,-1,0,-1,0
219717,367,-8277,138,-1,0,-1,0
219722,367,-8277,124,-1,1,-1,0
219727,361,-8278,109,-1,2,-1,0
219732,357,-8281,92,-1,2,-1,0
219737,354,-8283,83,-1,3,-1,0
219742,351,-8283,76,-1,3,-1,0
219747,353,-8282,76,-1,3,-1,0
219752,359,-8278,80,-1,4,-1,0
219757,362,-8278,84,-1,4,-1,0
219762,368,-8278,93,-1,4,-1,0
219767,378,-8277,100,-1,3,-1,0
219772,388,-8278,106,-1,2,-1,0
219777,389,-8274,105,-1,1,-1,0
219782,390,-8271,101,-1,1,-1,0
219787,384,-8271,91,-1,1,-1,0
219792,377,-8272,78,-1,0,-1,0
219797,372,-8272,65,-1,0,-1,0
219802,366,-8273,43,-1,1,-1,0
219807,361,-8274,17,-1,2,-1,0
219812,354,-8275,-17,0,4,-1,0
219817,353,-8279,-49,0,5,-1,0
219822,356,-8280,-75,0,5,-1,0
219827,363,-8280,-96,0,6,-1,0
219832,369,-8281,-103,0,6,-1,0
219837,369,-8282,-111,0,6,-1,0
219842,363,-8278,-113,0,7,-1,0
219847,350,-8277,-124,0,7,-1,0
219852,327,-8273,-131,0,7,-1,0
219857,296,-8274,-147,0,6,-1,0
219862,265,-8274,-188,0,5,-1,0
219867,226,-8273,-259,1,5,-1,0
219872,185,-8271,-361,1,6,-1,0
219877,146,-8272,-487,1,6,-1,0
219882,110,-8277,-623,1,7,-2,0
219887,72,-8278,-766,2,7,-2,0
219892,30,-8278,-908,2,7,-2,0
219897,-14,-8277,-1040,2,7,-2,0
219902,-56,-8274,-1164,3,9,-2,0
219907,-82,-8269,-1287,4,11,-2,0
219912,-92,-8266,-1418,4,13,-2,0
219917,-76,-8262,-1556,5,14,-2,0
219922,-39,-8258,-1713,6,14,-2,0
219927,19,-8255,-1906,7,14,-2,0
219932,78,-8255,-2127,8,13,-2,0
219937,139,-8253,-2369,9,12,-2,0
219942,199,-8249,-2625,10,12,-2,0
219947,236,-8242,-2897,12,13,-2,0
219952,255,-8233,-3186,13,17,-2,0
219957,249,-8226,-3476,14,22,-2,0
219962,233,-8216,-3760,16,28,-2,0
219967,213,-8208,-4026,17,34,-2,0
219972,179,-8200,-4251,19,39,-2,0
219977,170,-8186,-4490,20,44,-2,0
219982,223,-8161,-4743,22,49,-1,0
219987,300,-8135,-5026,25,52,-1,0
219992,288,-8122,-5239,27,54,-1,0
219997,201,-8135,-5077,27,55,-2,0
220002,152,-8115,-4731,25,57,-3,0
220007,85,-8065,-4553,25,59,-2,0
220012,17,-8017,-4246,27,56,-2,0
220017,-57,-7978,-3832,29,55,-1,0
220022,-122,-7936,-3619,31,53,-1,0
220027,-143,-7904,-3470,34,50,0,0
220032,-119,-7880,-3331,35,44,0,0
220037,-84,-7853,-3371,36,41,0,0
220042,-76,-7831,-3417,37,41,0,0
220047,-107,-7812,-3394,37,42,0,0
220052,-194,-7787,-3343,36,44,-1,0
220057,-324,-7755,-3180,36,44,-1,0
220062,-535,-7721,-2764,36,42,-1,0
220067,-764,-7679,-2193,37,41,0,0
220072,-906,-7637,-1549,38,43,0,0
220077,-933,-7607,-891,39,44,0,0
220082,-875,-7586,-377,40,46,0,0
220087,-729,-7574,-41,41,44,0,0
220092,-524,-7572,161,41,40,-1,0
220097,-359,-7575,282,40,31,-2,0
220102,-290,-7576,371,39,23,-2,0
220107,-314,-7572,533,38,19,-3,0
220112,-464,-7565,794,37,22,-3,0
220117,-692,-7550,1127,36,29,-3,0
220122,-919,-7541,1509,37,41,-3,0
220127,-1090,-7539,1894,37,52,-3,0
220132,-1146,-7542,2200,37,59,-2,0
220137,-1120,-7548,2432,37,64,-2,0
220142,-1026,-7558,2579,36,69,-1,0
220147,-857,-7572,2689,35,72,-1,0
220152,-659,-7591,2886,33,76,-2,0
220157,-444,-7605,3148,32,79,-2,0
220162,-255,-7616,3512,31,81,-2,0
220167,-108,-7626,3944,30,82,-3,0
220172,-38,-7637,4378,29,81,-3,0
220177,-38,-7650,4782,29,79,-2,0
220182,-85,-7667,5080,28,75,-2,0
220187,-149,-7691,5265,27,71,-2,0
220192,-188,-7721,5357,26,66,-1,0
220197,-167,-7747,5372,25,61,0,0
220202,-89,-7774,5369,23,57,0,0
220207,29,-7796,5380,21,54,0,0
220212,144,-7815,5424,20,52,0,0
220217,235,-7831,5525,19,51,0,0
220222,294,-7842,5630,18,49,-1,0
220227,293,-7858,5717,17,47,-1,0
220232,245,-7876,5768,16,46,-1,0
220237,162,-7896,5756,15,45,-1,0
220242,71,-7911,5702,14,43,0,0
220247,12,-7928,5610,13,41,0,0
220252,-6,-7947,5515,12,38,0,0
220257,17,-7963,5456,11,33,0,0
220262,64,-7973,5429,9,28,0,0
220267,121,-7982,5443,8,23,0,0
220272,185,-7984,5473,8,17,0,0
220277,232,-7987,5474,7,12,0,0
220282,240,-7993,5421,7,7,0,0
220287,221,-8000,5272,6,5,0,0
220292,174,-8012,5050,6,3,0,0
220297,119,-8023,4793,5,4,0,0
220302,95,-8033,4541,4,4,0,0
220307,95,-8042,4351,3,4,0,0
220312,126,-8042,4251,2,3,1,0
220317,180,-8039,4234,1,2,0,0
220322,234,-8035,4256,1,0,0,0
220327,282,-8031,4273,1,-2,0,0
220332,304,-8031,4234,1,-5,0,0
220337,286,-8031,4113,1,-9,0,0
220342,241,-8035,3916,1,-11,0,0
220347,192,-8036,3661,1,-13,1,0
220352,136,-8038,3400,0,-13,1,0
220357,100,-8043,3163,0,-12,1,0
220362,89,-8046,2978,-1,-10,1,0
220367,95,-8045,2864,-1,-9,1,0
220372,104,-8042,2801,-1,-7,1,0
220377,112,-8040,2755,-1,-5,1,0
220382,114,-8039,2700,-1,-3,0,0
220387,92,-8037,2621,-1,-1,0,0
220392,43,-8040,2517,-1,-1,0,0
220397,-21,-8043,2388,-1,-2,0,0
220402,-89,-8044,2262,-1,-3,0,0
220407,-136,-8048,2154,-1,-3,1,0
220412,-139,-8048,2074,-1,-3,1,0
220417,-107,-8047,2041,-1,-3,1,0
220422,-55,-8045,2037,-1,-4,1,0
220427,1,-8041,2039,-1,-4,0,0
220432,38,-8038,2030,0,-4,0,0
220437,39,-8036,1982,0,-4,0,0
220442,8,-8037,1899,0,-3,0,0
220447,-52,-8040,1804,0,-2,0,0
220452,-123,-8042,1706,0,1,0,0
220457,-179,-8045,1634,0,3,0,0
220462,-211,-8051,1600,0,5,0,0
220467,-214,-8052,1612,0,7,0,0
220472,-190,-8050,1668,0,9,0,0
220477,-155,-8044,1745,0,9,0,0
220482,-125,-8039,1826,0,8,0,0
220487,-108,-8035,1885,1,7,0,0
220492,-104,-8033,1904,1,6,-1,0
220497,-117,-8034,1882,1,5,0,0
220502,-132,-8038,1834,1,4,0,0
220507,-141,-8040,1785,1,3,0,0
220512,-146,-8043,1745,1,3,0,0
220517,-137,-8043,1730,1,3,0,0
220522,-113,-8041,1738,1,4,0,0
220527,-85,-8040,1767,1,6,-1,0
220532,-68,-8039,1805,1,6,-1,0
220537,-63,-8040,1840,1,8,-1,0
220542,-75,-8039,1870,1,9,-1,0
220547,-103,-8041,1883,1,9,-1,0
220552,-136,-8042,1882,1,10,-1,0
220557,-170,-8043,1877,1,10,-1,0
220562,-185,-8043,1869,1,11,-1,0
220567,-174,-8045,1874,1,10,-1,0
220572,-139,-8042,1901,1,9,-1,0
220577,-92,-8039,1937,1,8,0,0
220582,-39,-8036,1977,1,6,-1,0
220587,1,-8035,2010,1,5,-1,0
220592,22,-8033,2022,1,5,-1,0
220597,22,-8035,2012,1,6,-1,0
220602,-1,-8036,1994,1,6,-1,0
220607,-42,-8039,1973,1,6,-1,0
220612,-85,-8041,1975,1,6,-1,0
220617,-119,-8038,2011,1,6,-1,0
220622,-136,-8036,2066,0,6,-1,0
220627,-133,-8032,2141,0,6,-1,0
220632,-117,-8031,2216,1,6,-1,0
220637,-84,-8031,2259,1,6,-1,0
220642,-46,-8032,2274,1,5,-1,0
220647,-24,-8032,2260,1,3,-1,0
220652,-20,-8033,2227,1,2,-1,0
220657,-31,-8035,2197,1,1,-1,0
220662,-56,-8038,2169,0,2,-1,0
220667,-80,-8040,2157,0,3,-1,0
220672,-87,-8040,2159,0,3,-1,0
220677,-83,-8038,2175,0,3,-1,0
220682,-76,-8034,2203,0,3,-1,0
220687,-59,-8032,2245,0,3,-1,0
220692,-43,-8030,2272,0,3,-1,0
220697,-28,-8031,2290,0,3,-1,0
220702,-6,-8031,2289,0,3,-1,0
220707,12,-8031,2266,0,3,-1,0
220712,24,-8032,2235,0,3,-1,0
220717,34,-8034,2204,0,2,-1,0
220722,39,-8033,2171,0,2,-1,0
220727,51,-8032,2143,0,2,-1,0
220732,65,-8032,2121,0,2,-1,0
220737,77,-8034,2102,0,2,-1,0
220742,85,-8035,2086,0,2,-1,0
220747,86,-8034,2069,0,2,-1,0
220752,79,-8033,2057,0,1,-1,0
220757,70,-8032,2055,0,1,-1,0
220762,56,-8033,2048,0,1,-1,0
220767,42,-8031,2038,0,1,-1,0
220772,37,-8028,2028,0,1,-1,0
220777,38,-8026,2016,0,2,-1,0
220782,49,-8026,2005,0,2,0,0
220787,70,-8022,1984,0,2,0,0
220792,84,-8020,1958,0,2,0,0
220797,94,-8019,1930,0,3,0,0
220802,100,-8022,1904,0,3,-1,0
220807,98,-8023,1879,0,4,-1,0
220812,91,-8025,1855,0,3,-1,0
220817,75,-8028,1832,0,3,-1,0
220822,49,-8033,1818,0,3,-1,0
220827,20,-8034,1821,0,3,-1,0
220832,-5,-8034,1842,0,4,-1,0
220837,-24,-8031,1877,0,4,0,0
220842,-39,-8029,1919,0,4,-1,0
220847,-50,-8029,1961,0,4,0,0
220852,-58,-8026,2000,0,5,-1,0
220857,-62,-8023,2021,0,5,-1,0
220862,-66,-8023,2032,0,5,-1,0
220867,-81,-8021,2032,0,5,-1,0
220872,-95,-8019,2028,0,5,-1,0
220877,-109,-8017,2024,0,5,-1,0
220882,-123,-8019,2015,0,5,-1,0
220887,-125,-8019,2024,0,5,-1,0
220892,-125,-8018,2034,0,5,-1,0
220897,-116,-8018,2042,0,5,-1,0
220902,-93,-8017,2057,0,6,-1,0
220907,-67,-8019,2072,0,6,-1,0
220912,-48,-8019,2075,0,6,-1,0
220917,-39,-8018,2080,0,6,-1,0
220922,-45,-8019,2075,0,6,-1,0
220927,-58,-8020,2084,0,6,-1,0
220932,-71,-8024,2101,0,5,-1,0
220937,-81,-8024,2123,0,4,-1,0
220942,-80,-8020,2153,0,3,-1,0
220947,-65,-8018,2182,0,3,-1,0
220952,-43,-8020,2202,0,2,-1,0
220957,-19,-8021,2206,0,1,-1,0
220962,-2,-8019,2198,0,1,-1,0
220967,0,-8020,2178,0,1,-1,0
220972,-7,-8019,2150,0,1,-1,0
220977,-31,-8020,2127,0,1,-1,0
220982,-55,-8019,2116,-1,2,-1,0
220987,-71,-8015,2115,-1,1,-1,0
220992,-80,-8015,2132,-1,1,0,0
220997,-71,-8015,2161,-1,1,0,0
221002,-48,-8017,2188,-1,0,0,0
221007,-18,-8015,2208,-1,0,0,0
221012,12,-8016,2219,-1,-1,0,0
221017,33,-8018,2222,-1,-1,0,0
221022,41,-8020,2209,-1,-2,-1,0
221027,28,-8022,2183,-1,-3,-1,0
221032,5,-8025,2156,-1,-2,-1,0
221037,-20,-8024,2135,-1,-2,-1,0
221042,-45,-8026,2120,-1,-2,-1,0
221047,-61,-8028,2117,-1,-2,0,0
221052,-62,-8024,2119,-1,-1,0,0
221057,-56,-8022,2123,-1,-1,0,0
221062,-38,-8021,2118,-1,0,0,0
221067,-23,-8021,2110,-1,-1,0,0
221072,-14,-8023,2100,-1,-1,0,0
221077,-13,-8021,2081,-1,-1,-1,0
221082,-22,-8017,2069,-1,-1,-1,0
221087,-37,-8018,2061,-1,-1,0,0
221092,-47,-8018,2063,-1,-2,0,0
221097,-56,-8015,2063,-1,-2,0,0
221102,-57,-8015,2068,-1,-2,0,0
221107,-54,-8015,2069,-1,-2,0,0
221112,-48,-8016,2063,-1,-2,0,0
221117,-42,-8014,2047,-1,-2,0,0
221122,-36,-8015,2021,-1,-1,0,0
221127,-35,-8015,1993,-1,0,0,0
221132,-32,-8015,1976,-1,0,0,0
221137,-33,-8015,1969,-1,0,0,0
221142,-35,-8017,1977,-1,0,0,0
221147,-39,-8017,1992,-1,0,0,0
221152,-49,-8016,2007,-1,-1,0,0
221157,-56,-8017,2020,-1,-1,0,0
221162,-62,-8017,2024,-1,-1,0,0
221167,-69,-8019,2020,-1,-1,0,0
221172,-66,-8022,2007,-1,-2,0,0
221177,-67,-8023,1994,-1,-2,0,0
221182,-70,-8023,1983,-1,-2,0,0
221187,-71,-8026,1977,-1,-1,0,0
221192,-70,-8026,1989,-1,-1,0,0
221197,-70,-8025,2010,-1,-1,0,0
221202,-71,-8022,2034,-1,-1,0,0
221207,-65,-8018,2053,-1,0,0,0
221212,-62,-8017,2067,-1,0,0,0
221217,-66,-8017,2064,-1,-1,0,0
221222,-72,-8017,2054,-1,-2,0,0
221227,-77,-8022,2036,-1,-2,0,0
221232,-80,-8023,2014,-1,-3,0,0
221237,-84,-8025,1989,-1,-3,0,0
221242,-83,-8025,1974,-1,-3,0,0
221247,-77,-8024,1960,-1,-2,0,0
221252,-66,-8022,1955,-1,-2,0,0
221257,-49,-8021,1953,-1,-1,0,0
221262,-37,-8021,1956,-1,0,0,0
221267,-29,-8019,1961,-1,1,0,0
221272,-27,-8016,1965,-1,1,0,0
221277,-32,-8017,1968,0,2,0,0
221282,-42,-8017,1967,0,2,0,0
221287,-51,-8017,1964,0,1,0,0
221292,-56,-8017,1959,0,1,0,0
221297,-59,-8019,1953,0,1,0,0
221302,-54,-8021,1950,0,1,0,0
221307,-42,-8021,1955,0,1,0,0
221312,-29,-8022,1961,0,2,0,0
221317,-15,-8022,1969,0,2,0,0
221322,-7,-8024,1985,0,2,0,0
221327,-9,-8024,2005,0,3,0,0
221332,-20,-8021,2030,0,3,0,0
221337,-36,-8024,2050,0,3,0,0
221342,-55,-8021,2066,0,3,0,0
221347,-66,-8022,2074,0,3,0,0
221352,-71,-8025,2082,0,2,0,0
221357,-72,-8026,2090,0,1,0,0
221362,-73,-8029,2103,0,1,0,0
221367,-76,-8029,2122,0,0,0,0
221372,-79,-8030,2135,-1,0,0,0
221377,-84,-8028,2143,-1,-1,0,0
221382,-93,-8028,2140,-1,-2,0,0
221387,-106,-8027,2136,-1,-3,0,0
221392,-115,-8029,2124,-1,-3,0,0
221397,-116,-8027,2112,-1,-2,0,0
221402,-114,-8028,2102,-1,-2,0,0
221407,-107,-8028,2091,-1,-1,0,0
221412,-103,-8030,2076,-1,-1,0,0
221417,-108,-8030,2060,-1,-1,0,0
221422,-114,-8028,2047,-1,0,-1,0
221427,-127,-8028,2035,-1,0,-1,0
221432,-138,-8029,2022,-1,0,-1,0
221437,-150,-8031,2004,-1,0,0,0
221442,-158,-8028,1986,-1,-1,-1,0
221447,-164,-8025,1976,-1,-1,0,0
221452,-163,-8022,1978,-1,-2,0,0
221457,-158,-8023,1983,-1,-1,0,0
221462,-144,-8025,1993,-1,-1,0,0
221467,-126,-8024,2005,-1,-1,0,0
221472,-114,-8023,2010,0,-1,-1,0
221477,-111,-8023,2010,0,-1,-1,0
221482,-115,-8024,2006,0,-1,-1,0
221487,-118,-8024,1999,0,0,-1,0
221492,-120,-8024,1998,0,0,-1,0
221497,-112,-8025,1996,0,1,-1,0
221502,-95,-8024,1995,0,1,-1,0
221507,-74,-8022,1993,0,1,-1,0
221512,-54,-8022,1989,0,1,-1,0
221517,-42,-8022,1988,0,1,-1,0
221522,-38,-8020,1978,0,1,-1,0
221527,-44,-8022,1963,0,1,-1,0
221532,-54,-8026,1946,0,0,-1,0
221537,-69,-8029,1943,0,0,-1,0
221542,-87,-8027,1941,0,-1,0,0
221547,-97,-8026,1948,0,-1,0,0
221552,-87,-8024,1960,0,-1,0,0
221557,-67,-8024,1969,0,-1,0,0
221562,-31,-8023,1983,0,0,0,0
221567,8,-8021,1996,0,0,0,0
221572,38,-8023,2010,0,0,0,0
221577,51,-8025,2016,0,1,0,0
221582,43,-8027,2012,0,1,-1,0
221587,16,-8028,2008,0,2,0,0
221592,-22,-8027,2006,0,3,0,0
221597,-61,-8028,2002,0,5,0,0
221602,-88,-8028,2013,0,6,0,0
221607,-95,-8025,2037,0,7,0,0
221612,-91,-8022,2062,0,7,0,0
221617,-79,-8023,2094,0,7,0,0
221622,-60,-8024,2129,0,6,0,0
221627,-47,-8025,2157,0,4,0,0
221632,-45,-8027,2185,-1,2,0,0
221637,-53,-8026,2204,-1,1,0,0
221642,-60,-8024,2223,-1,0,0,0
221647,-69,-8024,2225,-1,-1,0,0
221652,-73,-8027,2219,-1,-1,0,0
221657,-69,-8027,2209,-1,-2,0,0
221662,-64,-8030,2198,-1,-1,0,0
221667,-57,-8030,2191,-1,-1,0,0
221672,-52,-8028,2188,-1,-1,0,0
221677,-61,-8026,2190,-1,0,-1,0
221682,-80,-8026,2188,-1,0,0,0
221687,-99,-8025,2184,-1,1,-1,0
221692,-116,-8023,2174,-1,1,-1,0
221697,-130,-8024,2162,-1,0,-1,0
221702,-136,-8025,2148,-1,-1,0,0
221707,-137,-8025,2128,-1,-1,0,0
221712,-133,-8023,2108,-1,-2,0,0
221717,-128,-8024,2084,-1,-3,0,0
221722,-119,-8022,2064,-1,-4,0,0
221727,-105,-8022,2042,-1,-5,0,0
221732,-90,-8025,2027,-1,-5,0,0
221737,-75,-8028,2018,-1,-4,0,0
221742,-64,-8028,2009,-1,-4,0,0
221747,-60,-8025,1998,-1,-3,0,0
221752,-62,-8027,1986,-1,-1,-1,0
221757,-70,-8027,1975,-1,0,-1,0
221762,-75,-8024,1965,-1,0,-1,0
221767,-80,-8023,1952,-1,0,0,0
221772,-83,-8023,1947,-1,0,0,0
221777,-87,-8024,1942,-1,0,0,0
221782,-87,-8022,1940,-1,0,0,0
221787,-84,-8021,1936,-1,-1,0,0
221792,-78,-8021,1925,-1,-1,0,0
221797,-77,-8019,1905,0,-2,0,0
221802,-78,-8018,1880,0,-2,0,0
221807,-79,-8020,1863,0,-2,0,0
221812,-75,-8021,1859,-1,-2,0,0
221817,-73,-8021,1859,-1,-1,0,0
221822,-74,-8023,1868,0,-1,0,0
221827,-75,-8024,1884,0,-1,0,0
221832,-73,-8023,1905,0,0,0,0
221837,-71,-8020,1923,0,0,0,0
221842,-73,-8020,1938,0,0,0,0
221847,-77,-8019,1938,0,0,0,0
221852,-82,-8022,1933,0,0,0,0
221857,-84,-8024,1924,0,0,0,0
221862,-88,-8023,1924,0,0,0,0
221867,-93,-8023,1932,0,-1,0,0
221872,-98,-8024,1953,0,-1,0,0
221877,-103,-8025,1982,0,-1,0,0
221882,-111,-8024,2007,0,-1,0,0
221887,-118,-8022,2027,0,-1,0,0
221892,-121,-8026,2042,0,0,0,0
221897,-123,-8028,2048,0,0,0,0
221902,-131,-8029,2048,0,0,0,0
221907,-138,-8031,2051,0,0,0,0
221912,-138,-8031,2050,0,1,0,0
221917,-130,-8030,2051,0,1,0,0
221922,-119,-8028,2067,0,1,0,0
221927,-105,-8025,2082,0,1,0,0
221932,-92,-8027,2103,0,0,0,0
221937,-83,-8025,2123,0,-1,0,0
221942,-84,-8023,2130,0,-1,0,0
221947,-88,-8022,2129,0,-2,-1,0
221952,-94,-8023,2123,0,-2,0,0
221957,-104,-8027,2113,0,-3,0,0
221962,-117,-8029,2098,-1,-3,0,0
221967,-124,-8031,2093,-1,-2,0,0
221972,-126,-8031,2085,-1,-2,0,0
221977,-122,-8030,2094,-1,-2,0,0
221982,-113,-8029,2120,-1,-2,0,0
221987,-102,-8031,2146,-1,-2,0,0
221992,-92,-8031,2153,-1,-2,0,0
221997,-81,-8028,2153,-1,-1,-1,0
222002,-73,-8027,2130,-1,-1,0,0
222007,-69,-8027,2101,-1,-1,0,0
222012,-72,-8029,2076,-1,-1,-1,0
222017,-78,-8030,2059,-1,-1,-1,0
222022,-83,-8031,2046,-1,-1,-1,0
222027,-86,-8032,2044,-1,-1,0,0
222032,-88,-8033,2055,-1,0,-1,0
222037,-87,-8029,2079,-1,0,0,0
222042,-83,-8026,2104,-1,-1,0,0
222047,-81,-8025,2116,-1,-1,0,0
222052,-77,-8025,2111,-1,-1,0,0
222057,-72,-8027,2083,-1,-2,0,0
222062,-67,-8025,2044,-1,-2,0,0
222067,-65,-8022,2005,-1,-2,0,0
222072,-68,-8023,1970,-1,-2,0,0
222077,-68,-8025,1951,-1,-1,0,0
222082,-67,-8025,1950,-1,-1,0,0
222087,-67,-8025,1965,-1,0,0,0
222092,-68,-8023,1986,-1,0,0,0
222097,-72,-8020,2009,-1,-1,0,0
222102,-82,-8018,2020,-1,-1,0,0
222107,-87,-8015,2019,0,0,0,0
222112,-85,-8015,2005,0,0,0,0
222117,-82,-8016,1978,0,0,0,0
222122,-76,-8018,1955,0,-1,0,0
222127,-74,-8020,1934,-1,-1,0,0
222132,-77,-8020,1927,-1,-1,0,0
222137,-80,-8025,1931,-1,0,0,0
222142,-90,-8024,1945,-1,0,0,0
222147,-101,-8023,1962,-1,0,0,0
222152,-109,-8020,1978,0,0,0,0
222157,-112,-8020,1982,0,0,0,0
222162,-112,-8023,1976,0,0,0,0
222167,-112,-8027,1959,0,1,0,0
222172,-109,-8029,1943,0,1,0,0
222177,-102,-8030,1940,0,1,0,0
222182,-102,-8028,1942,0,1,0,0
222187,-108,-8028,1952,0,0,0,0
222192,-116,-8027,1972,0,0,0,0
222197,-120,-8027,1990,0,0,0,0
222202,-119,-8026,2006,0,0,0,0
222207,-117,-8025,2011,0,0,0,0
222212,-112,-8025,2007,0,0,0,0
222217,-107,-8027,2000,0,0,0,0
222222,-105,-8026,1993,0,0,-1,0
222227,-105,-8028,1986,0,0,-1,0
222232,-111,-8026,1982,0,0,-1,0
222237,-119,-8023,1986,0,1,-1,0
222242,-127,-8021,2002,0,1,-1,0
222247,-130,-8022,2023,0,2,-1,0
222252,-127,-8018,2040,0,2,0,0
222257,-120,-8019,2051,0,1,-1,0
222262,-116,-8023,2057,0,1,-1,0
222267,-115,-8026,2056,0,0,-1,0
222272,-117,-8027,2044,0,0,-1,0
222277,-121,-8027,2035,0,0,-1,0
222282,-122,-8028,2027,0,0,-1,0
222287,-123,-8030,2023,0,0,-1,0
222292,-122,-8031,2024,0,0,-1,0
222297,-122,-8028,2022,0,-1,-1,0
222302,-127,-8027,2019,0,-1,-1,0
222307,-126,-8024,2017,0,-1,-1,0
222312,-122,-8024,2024,0,-1,-1,0
222317,-116,-8023,2027,0,-1,-1,0
222322,-107,-8021,2029,0,-1,-1,0
222327,-99,-8019,2026,0,-1,-1,0
222332,-96,-8022,2026,0,-1,-1,0
222337,-98,-8021,2023,0,-1,-1,0
222342,-104,-8022,2018,0,-1,-1,0
222347,-106,-8019,2012,0,-1,-1,0
222352,-107,-8018,1999,0,-1,-1,0
222357,-105,-8015,1977,0,-1,-1,0
222362,-102,-8016,1957,0,-1,-1,0
222367,-94,-8020,1929,0,-1,-1,0
222372,-78,-8022,1909,0,0,-1,0
222377,-59,-8023,1896,0,0,-1,0
222382,-45,-8021,1892,0,1,-1,0
222387,-32,-8021,1910,0,1,-1,0
222392,-24,-8019,1932,0,2,-1,0
222397,-25,-8018,1967,0,2,-1,0
222402,-31,-8016,1989,0,2,-1,0
222407,-37,-8016,2005,0,2,-1,0
222412,-41,-8015,2009,0,2,-1,0
222417,-45,-8016,2003,0,2,0,0
222422,-45,-8015,2001,0,2,0,0
222427,-40,-8016,2000,0,1,0,0
222432,-40,-8018,2008,0,1,0,0
222437,-42,-8019,2021,0,1,0,0
222442,-44,-8019,2039,0,1,0,0
222447,-47,-8017,2057,0,1,-1,0
222452,-59,-8015,2071,0,1,0,0
222457,-72,-8014,2081,0,2,0,0
222462,-76,-8014,2078,0,2,0,0
222467,-80,-8016,2072,0,2,0,0
222472,-85,-8015,2069,0,2,0,0
222477,-87,-8017,2062,0,1,0,0
222482,-92,-8018,2055,0,1,0,0
222487,-97,-8016,2066,0,1,0,0
222492,-101,-8018,2086,0,1,0,0
222497,-108,-8019,2107,0,0,0,0
222502,-114,-8019,2122,0,0,0,0
222507,-122,-8020,2122,0,-1,-1,0
222512,-133,-8023,2115,0,-1,-1,0
222517,-143,-8022,2098,0,0,-1,0
222522,-152,-8022,2070,0,0,0,0
222527,-156,-8022,2049,0,1,0,0
222532,-156,-8019,2040,0,1,-1,0
222537,-155,-8019,2046,0,1,-1,0
222542,-156,-8020,2064,0,1,-1,0
222547,-158,-8023,2087,0,1,-1,0
222552,-159,-8023,2111,0,1,-1,0
222557,-158,-8023,2126,0,1,-1,0
222562,-157,-8021,2131,0,0,-1,0
222567,-155,-8022,2121,0,0,-1,0
222572,-155,-8025,2098,0,0,-1,0
222577,-158,-8024,2074,0,0,-1,0
222582,-161,-8026,2061,0,0,-1,0
222587,-158,-8028,2062,0,0,-1,0
222592,-152,-8028,2065,0,1,-1,0
222597,-143,-8028,2081,0,1,-1,0
222602,-138,-8029,2096,0,1,-1,0
222607,-138,-8029,2106,0,0,-1,0
222612,-136,-8027,2107,0,0,-1,0
222617,-131,-8027,2094,0,0,-1,0
222622,-127,-8024,2075,0,0,-1,0
222627,-120,-8024,2054,0,0,-1,0
222632,-109,-8024,2035,0,0,-1,0
222637,-94,-8022,2026,0,0,-1,0
222642,-80,-8019,2019,0,0,-1,0
222647,-71,-8020,2024,0,0,-1,0
222652,-70,-8019,2033,0,1,-1,0
222657,-78,-8020,2041,0,1,-1,0
222662,-85,-8017,2050,0,0,-1,0
222667,-89,-8017,2058,0,0,-1,0
222672,-88,-8017,2066,0,0,-1,0
222677,-86,-8018,2064,0,0,-1,0
222682,-78,-8021,2060,0,0,-1,0
222687,-64,-8022,2050,0,0,-1,0
222692,-47,-8023,2039,0,0,-1,0
222697,-40,-8022,2039,0,0,-1,1
222702,-40,-8020,2036,0,-1,-1,1
222707,-49,-8018,2032,0,-1,-1,1
222712,-62,-8019,2025,0,-1,-1,1
222717,-71,-8018,2019,0,-1,-1,1
222722,-75,-8018,2012,0,-2,-1,1
222727,-74,-8019,2001,0,-2,-1,1
222732,-69,-8021,1992,0,-2,0,1
222737,-55,-8020,1989,0,-1,0,1
222742,-43,-8018,1990,0,0,0,1
222747,-31,-8018,1994,0,0,-1,1
