millis,ax,ay,az,gx,gy,gz,label
1335053,616,-8289,499,0,-1,0,0
1335059,618,-8291,492,0,-1,-1,0
1335064,620,-8289,483,0,-1,0,0
1335068,617,-8288,476,0,-2,0,0
1335074,606,-8287,471,0,-2,-1,0
1335079,598,-8289,471,0,-2,-1,0
1335084,590,-8290,466,-1,-2,-1,0
1335088,585,-8289,461,0,-1,-1,0
1335094,583,-8286,458,0,-1,-1,0
1335098,582,-8288,452,0,-2,-1,0
1335103,577,-8288,445,0,-2,-1,0
1335108,567,-8288,432,0,-1,-1,0
1335113,560,-8286,420,0,-1,-1,0
1335118,554,-8286,407,0,0,-1,0
1335124,550,-8285,396,0,0,-1,0
1335128,547,-8287,383,0,1,-1,0
1335133,547,-8289,374,0,1,-1,0
1335138,549,-8289,365,0,1,-1,0
1335143,549,-8286,353,0,2,-1,0
1335148,549,-8286,348,0,3,-1,0
1335153,553,-8283,344,0,3,-1,0
1335158,556,-8281,344,0,4,-1,0
1335163,562,-8280,346,0,4,-1,0
1335168,569,-8283,347,0,4,-1,0
1335173,576,-8284,347,0,3,-1,0
1335178,583,-8286,345,0,3,-1,0
1335183,587,-8286,340,0,3,-1,0
1335188,592,-8287,338,0,2,-1,0
1335193,598,-8288,336,0,2,-1,0
1335198,602,-8289,334,0,1,-1,0
1335203,604,-8291,326,0,1,-1,0
1335208,602,-8294,317,0,1,-1,0
1335213,600,-8293,307,0,1,-1,0
1335218,599,-8293,306,0,1,-1,0
1335223,600,-8292,309,0,1,-1,0
1335228,601,-8290,308,0,1,-1,0
1335233,600,-8289,312,0,2,-1,0
1335238,599,-8289,314,0,2,-1,0
1335243,597,-8286,322,0,2,-1,0
1335248,595,-8288,326,0,2,-1,0
1335253,593,-8287,334,0,1,-1,0
1335258,592,-8289,337,0,1,-1,0
1335263,590,-8291,344,0,1,-1,0
1335268,590,-8291,357,0,1,-1,0
1335273,588,-8290,368,0,1,-1,0
1335278,582,-8288,373,0,1,-1,0
1335283,578,-8286,380,0,1,-1,0
1335288,576,-8282,392,0,1,-1,0
1335293,578,-8280,406,0,1,-1,0
1335298,581,-8280,412,0,1,-1,0
1335303,587,-8282,418,0,1,-1,0
1335308,597,-8279,422,0,1,-1,0
1335313,607,-8278,424,0,1,-1,0
1335318,617,-8279,422,0,1,-1,0
1335323,626,-8282,423,0,2,-1,0
1335328,640,-8286,426,0,2,-1,0
1335333,654,-8288,428,0,2,-1,0
1335338,662,-8286,431,0,2,-1,0
1335343,670,-8285,430,0,2,-1,0
1335348,679,-8284,434,0,2,-1,0
1335353,688,-8283,438,0,2,-1,0
1335358,699,-8281,442,0,2,-1,0
1335363,711,-8278,439,0,3,-1,0
1335368,723,-8278,431,0,3,-1,0
1335373,738,-8278,426,0,3,-1,0
1335378,753,-8279,425,0,3,-1,0
1335383,770,-8277,424,0,3,-1,0
1335388,784,-8278,429,0,2,-1,0
1335393,798,-8278,431,0,1,-1,0
1335398,806,-8278,433,0,0,-1,0
1335403,811,-8278,434,0,-1,-1,0
1335408,815,-8280,436,0,-2,-1,0
1335413,821,-8282,440,0,-2,-1,0
1335418,828,-8284,440,0,-2,-1,0
1335423,837,-8283,434,0,-1,0,0
1335428,847,-8283,430,0,-1,0,0
1335433,863,-8280,427,0,-1,0,0
1335438,880,-8280,420,0,-1,0,0
1335443,894,-8275,416,0,-1,0,0
1335448,911,-8276,415,0,0,0,0
1335453,926,-8278,414,0,0,0,0
1335458,941,-8275,421,0,-1,0,0
1335463,958,-8273,430,0,-1,0,0
1335468,963,-8273,439,0,-1,0,0
1335473,967,-8270,458,0,-2,0,0
1335478,970,-8267,473,0,-2,0,0
1335483,960,-8267,478,0,-3,1,0
1335488,947,-8271,485,0,-4,1,0
1335493,927,-8272,484,0,-4,1,0
1335498,904,-8273,479,0,-3,1,0
1335503,882,-8275,477,0,-3,1,0
1335508,855,-8277,474,0,-2,1,0
1335513,826,-8278,474,0,-1,1,0
1335518,792,-8278,479,0,0,1,0
1335523,762,-8277,488,0,1,1,0
1335528,736,-8275,499,0,1,1,0
1335533,709,-8274,515,0,1,1,0
1335538,687,-8276,524,0,1,1,0
1335543,672,-8280,534,0,1,1,0
1335548,656,-8282,544,0,0,1,0
1335553,641,-8284,550,0,0,1,0
1335558,624,-8283,555,-1,0,1,0
1335563,607,-8286,561,-1,0,1,0
1335568,592,-8288,563,-1,1,1,0
1335573,578,-8289,566,-1,1,1,0
1335578,569,-8289,564,-1,2,1,0
1335583,565,-8290,562,-1,3,1,0
1335588,564,-8291,563,-1,3,1,0
1335593,563,-8294,563,-1,4,1,0
1335598,562,-8290,566,-1,5,1,0
1335603,561,-8288,573,-1,5,0,0
1335608,557,-8287,583,-1,5,0,0
1335613,548,-8287,585,-1,5,0,0
1335618,539,-8286,592,-1,5,0,0
1335623,528,-8287,600,-1,5,0,0
1335628,521,-8287,603,-1,5,0,0
1335633,516,-8291,599,-1,5,0,0
1335638,510,-8292,591,-1,5,0,0
1335643,505,-8293,579,-1,5,0,0
1335648,499,-8290,559,-1,5,0,0
1335653,498,-8289,542,-2,5,0,0
1335658,495,-8287,527,-2,5,0,0
1335663,491,-8287,516,-2,4,0,0
1335668,487,-8286,513,-2,3,0,0
1335673,481,-8287,517,-2,3,0,0
1335678,481,-8289,518,-2,2,0,0
1335683,486,-8287,518,-2,3,0,0
1335688,497,-8285,520,-2,3,0,0
1335693,515,-8285,516,-2,3,0,0
1335698,534,-8285,508,-2,2,0,0
1335703,548,-8286,497,-2,2,0,0
1335708,554,-8286,489,-2,1,0,0
1335713,551,-8286,480,-2,1,0,0
1335718,543,-8289,470,-2,2,0,0
1335723,532,-8290,460,-2,2,0,0
1335728,524,-8290,452,-2,3,0,0
1335733,519,-8291,440,-2,3,0,0
1335738,516,-8292,431,-2,3,0,0
1335743,516,-8293,424,-2,3,0,0
1335748,519,-8294,428,-2,3,0,0
1335753,516,-8293,427,-2,3,-1,0
1335758,510,-8292,427,-2,2,-1,0
1335763,499,-8293,426,-2,2,-1,0
1335768,485,-8290,423,-2,2,-1,0
1335773,475,-8289,415,-2,2,-1,0
1335778,467,-8289,412,-2,3,-1,0
1335783,462,-8288,397,-2,3,-1,0
1335788,462,-8290,382,-2,3,-1,0
1335793,466,-8290,366,-2,4,-1,0
1335798,471,-8289,355,-2,4,-1,0
1335803,474,-8288,347,-2,5,-1,0
1335808,475,-8285,342,-2,5,-1,0
1335813,481,-8285,338,-2,6,-1,0
1335818,490,-8285,340,-2,7,-1,0
1335823,497,-8284,339,-2,7,-1,0
1335828,505,-8286,344,-2,7,-1,0
1335833,519,-8287,350,-2,6,-1,0
1335838,531,-8288,358,-2,6,-1,0
1335843,546,-8288,364,-2,5,-1,0
1335848,563,-8288,380,-2,4,-1,0
1335853,578,-8286,393,-2,3,-1,0
1335858,592,-8284,410,-2,2,-1,0
1335863,607,-8283,414,-2,1,-1,0
1335868,619,-8281,409,-2,1,-1,0
1335873,631,-8280,402,-2,0,-1,0
1335878,639,-8282,388,-2,0,-1,0
1335883,639,-8281,373,-2,0,-1,0
1335888,634,-8279,358,-2,-1,-1,0
1335893,625,-8281,339,-2,0,-1,0
1335898,615,-8285,324,-2,0,-1,0
1335903,606,-8286,309,-2,0,-1,0
1335908,601,-8286,301,-2,0,-1,0
1335913,595,-8287,292,-2,0,-1,0
1335918,593,-8287,283,-2,0,-1,0
1335923,594,-8285,276,-1,0,-1,0
1335928,596,-8286,271,-1,1,-1,0
1335933,602,-8287,266,-1,1,-1,0
1335938,603,-8289,269,-1,2,-1,0
1335943,606,-8286,268,-1,2,-1,0
1335948,611,-8287,267,-1,3,-1,0
1335953,618,-8287,269,-1,3,-1,0
1335958,623,-8288,274,-1,3,-1,0
1335963,629,-8288,278,-1,2,-1,0
1335968,634,-8288,285,-1,2,-1,0
1335973,642,-8285,295,-1,1,-1,0
1335978,649,-8285,297,-1,1,-1,0
1335983,651,-8285,295,-1,1,-1,0
1335988,653,-8285,296,-1,1,-1,0
1335993,655,-8286,295,-1,1,-1,0
1335998,656,-8287,291,-1,1,-1,0
1336003,655,-8287,287,-1,2,-1,0
1336008,653,-8288,287,-1,2,-1,0
1336013,654,-8289,284,-1,2,-1,0
1336018,656,-8288,282,-1,2,-1,0
1336023,658,-8289,285,-1,3,-1,0
1336028,665,-8287,286,-1,3,-1,0
1336033,674,-8285,289,-1,3,-1,0
1336038,685,-8285,294,-1,2,-1,0
1336043,695,-8283,299,-1,2,-1,0
1336048,704,-8282,302,-1,2,-1,0
1336053,713,-8279,303,-1,3,-1,0
1336058,723,-8278,299,-1,4,-1,0
1336063,736,-8280,292,-1,4,-1,0
1336068,746,-8283,284,-1,5,-1,0
1336073,754,-8283,277,-1,5,-1,0
1336078,760,-8283,273,-1,4,-1,0
1336083,768,-8284,270,-1,4,-1,0
1336088,773,-8285,271,-1,4,-1,0
1336093,779,-8287,275,-1,3,0,0
1336098,781,-8286,281,-1,3,0,0
1336103,781,-8285,285,-1,2,0,0
1336108,780,-8284,290,-1,2,0,0
1336113,779,-8285,289,-1,2,0,0
1336118,778,-8286,288,-1,2,0,0
1336123,773,-8286,287,-1,2,0,0
1336128,772,-8284,288,-1,2,0,0
1336133,770,-8285,287,-1,2,0,0
1336138,771,-8285,287,-1,2,0,0
1336143,770,-8284,284,-1,1,0,0
1336148,769,-8282,285,-1,1,0,0
1336153,768,-8281,289,-1,0,0,0
1336158,767,-8279,301,-1,0,0,0
1336163,764,-8274,313,-1,0,0,0
1336168,763,-8275,321,-1,0,0,0
1336173,759,-8275,332,-1,0,0,0
1336178,756,-8275,335,-1,0,0,0
1336183,753,-8274,337,-1,0,0,0
1336188,747,-8274,329,-1,1,0,0
1336193,739,-8272,327,-1,1,0,0
1336198,725,-8269,324,-1,1,0,0
1336203,714,-8267,320,-1,1,0,0
1336208,704,-8270,319,-1,2,0,0
1336213,697,-8273,318,-1,2,0,0
1336218,687,-8277,318,-1,2,0,0
1336223,678,-8281,315,-1,2,0,0
1336228,668,-8283,319,-1,2,0,0
1336233,655,-8283,321,-1,2,0,0
1336238,647,-8286,321,-1,2,0,0
1336243,638,-8288,317,-1,2,0,0
1336248,628,-8291,310,-1,2,0,0
1336253,619,-8289,299,-1,2,0,0
1336258,611,-8284,294,-1,3,0,0
1336263,601,-8281,291,-1,3,0,0
1336268,593,-8279,285,-1,3,0,0
1336273,587,-8281,277,-1,2,0,0
1336278,583,-8281,280,-1,2,0,0
1336283,583,-8281,281,-1,2,0,0
1336288,589,-8283,279,-1,2,0,0
1336293,593,-8284,272,-1,1,0,0
1336298,594,-8282,268,-1,1,0,0
1336303,596,-8279,264,-1,0,0,0
1336308,598,-8280,257,-1,0,0,0
1336313,596,-8285,249,-1,0,0,0
1336318,590,-8288,240,-1,0,0,0
1336323,583,-8290,231,-1,0,0,0
1336328,576,-8288,225,-1,0,0,0
1336333,565,-8291,219,-1,-1,0,0
1336338,553,-8290,208,-1,-1,0,0
1336343,541,-8287,201,-1,-1,0,0
1336348,533,-8287,193,0,-1,0,0
1336353,521,-8286,183,0,-1,0,0
1336358,513,-8284,177,0,-1,0,0
1336363,502,-8285,174,0,-1,0,0
1336368,492,-8287,163,0,-1,0,0
1336373,486,-8288,156,0,-1,0,0
1336378,483,-8289,149,0,-1,0,0
1336383,480,-8289,147,0,-2,0,0
1336388,477,-8289,143,0,-2,0,0
1336393,472,-8285,134,0,-2,0,0
1336398,472,-8284,130,0,-2,0,0
1336403,470,-8284,124,0,-2,0,0
1336408,471,-8285,125,0,-2,0,0
1336413,470,-8286,126,0,-2,0,0
1336418,472,-8282,127,0,-2,-1,0
1336423,474,-8281,133,0,-2,-1,0
1336428,472,-8282,140,0,-3,-1,0
1336433,474,-8284,144,0,-4,-1,0
1336438,473,-8287,139,0,-4,-1,0
1336443,471,-8287,140,1,-4,-1,0
1336448,474,-8286,134,1,-3,-1,0
1336453,476,-8287,122,1,-3,-1,0
1336458,484,-8286,117,1,-3,-1,0
1336463,495,-8285,117,1,-4,-1,0
1336468,503,-8284,122,1,-4,-1,0
1336473,512,-8284,127,1,-4,-1,0
1336478,521,-8285,132,1,-4,-1,0
1336483,532,-8287,143,1,-4,-1,0
1336488,542,-8288,152,1,-4,-1,0
1336493,553,-8289,159,1,-4,-1,0
1336498,564,-8289,164,1,-4,-1,0
1336503,574,-8288,167,1,-4,-1,0
1336508,584,-8288,172,1,-4,-1,0
1336513,594,-8287,178,1,-4,-1,0
1336518,608,-8286,184,1,-4,-1,0
1336523,620,-8286,187,1,-4,-1,0
1336528,628,-8289,197,1,-4,-1,0
1336533,634,-8289,209,1,-3,-1,0
1336538,644,-8287,223,1,-3,-1,0
1336543,652,-8285,235,1,-3,-1,0
1336548,662,-8284,244,1,-3,-1,0
1336553,672,-8283,258,1,-3,-1,0
1336558,683,-8284,271,1,-4,-1,0
1336563,691,-8283,289,1,-6,-1,0
1336568,698,-8281,311,1,-7,0,0
1336573,697,-8278,323,1,-8,0,0
1336578,692,-8278,338,1,-8,0,0
1336583,691,-8276,352,1,-8,0,0
1336588,692,-8275,368,1,-7,0,0
1336593,695,-8276,386,1,-7,0,0
1336598,702,-8277,397,1,-6,0,0
1336603,706,-8275,404,1,-6,0,0
1336608,712,-8274,415,1,-6,0,0
1336613,722,-8277,423,1,-6,0,0
1336618,731,-8276,430,1,-7,0,0
1336623,735,-8277,435,1,-7,0,0
1336628,738,-8279,442,1,-7,0,0
1336633,743,-8280,450,1,-7,0,0
1336638,747,-8281,459,1,-7,0,0
1336643,750,-8280,465,1,-7,0,0
1336648,751,-8281,475,1,-7,0,0
1336653,752,-8282,481,1,-7,0,0
1336658,750,-8283,493,1,-7,0,0
1336663,746,-8285,500,1,-7,0,0
1336668,744,-8285,503,1,-6,0,0
1336673,740,-8283,504,1,-6,0,0
1336678,731,-8282,501,1,-6,0,0
1336683,720,-8283,494,1,-5,0,0
1336688,712,-8284,490,0,-5,0,0
1336693,705,-8285,484,0,-4,0,0
1336698,698,-8286,481,0,-4,0,0
1336703,691,-8284,470,0,-5,0,0
1336708,687,-8286,465,0,-5,0,0
1336713,682,-8289,458,0,-4,0,0
1336718,677,-8288,449,0,-4,0,0
1336723,674,-8286,440,0,-3,1,0
1336728,672,-8286,435,0,-3,0,0
1336733,674,-8286,428,0,-2,0,0
1336738,677,-8283,423,0,-2,1,0
1336743,677,-8282,415,0,-2,1,0
1336748,677,-8284,404,0,-2,1,0
1336753,674,-8283,399,0,-2,1,0
1336758,673,-8285,401,0,-2,1,0
1336763,670,-8284,404,0,-2,1,0
1336768,670,-8283,402,0,-2,1,0
1336773,670,-8283,400,0,-2,1,0
1336778,671,-8281,393,0,-2,1,0
1336783,670,-8280,391,0,-3,1,0
1336788,667,-8280,386,0,-3,1,0
1336793,660,-8280,381,0,-3,1,0
1336798,651,-8285,380,0,-4,1,0
1336803,641,-8286,381,0,-4,1,0
1336808,633,-8284,379,0,-4,1,0
1336813,627,-8285,374,0,-4,1,0
1336818,621,-8288,367,0,-3,1,0
1336823,617,-8287,366,0,-3,1,0
1336828,613,-8289,358,0,-3,1,0
1336833,611,-8292,347,0,-3,1,0
1336838,607,-8292,339,0,-3,1,0
1336843,606,-8290,332,0,-3,1,0
1336848,604,-8289,330,0,-4,1,0
1336853,601,-8288,330,1,-4,1,0
1336858,593,-8288,328,1,-4,1,0
1336863,586,-8289,330,1,-5,1,0
1336868,579,-8289,334,1,-5,1,0
1336873,575,-8286,345,1,-5,1,0
1336878,571,-8284,352,1,-6,1,0
1336883,566,-8283,363,1,-6,1,0
1336888,565,-8281,375,1,-6,1,0
1336893,562,-8282,387,1,-6,1,0
1336898,560,-8282,395,1,-6,1,0
1336903,561,-8284,399,1,-6,1,0
1336908,562,-8283,400,1,-6,1,0
1336913,564,-8283,398,1,-7,1,0
1336918,569,-8283,397,1,-7,1,0
1336923,572,-8283,399,1,-7,1,0
1336928,572,-8284,395,1,-7,1,0
1336933,568,-8285,396,1,-7,1,0
1336938,561,-8284,405,1,-8,1,0
1336943,554,-8282,409,1,-8,1,0
1336948,547,-8280,413,1,-7,1,0
1336953,543,-8279,412,1,-7,1,0
1336958,539,-8281,416,1,-7,1,0
1336963,533,-8282,424,1,-7,1,0
1336968,526,-8282,435,1,-7,1,0
1336973,517,-8280,441,1,-7,1,0
1336978,509,-8279,460,1,-7,1,0
1336983,506,-8278,477,1,-6,1,0
1336988,502,-8280,491,1,-6,1,0
1336993,499,-8282,505,1,-5,1,0
1336998,494,-8285,513,0,-5,1,0
1337003,490,-8283,523,0,-5,1,0
1337008,492,-8285,530,0,-5,1,0
1337013,493,-8285,532,0,-5,1,0
1337018,492,-8284,542,0,-5,1,0
1337023,487,-8284,553,0,-6,1,0
1337028,483,-8286,563,0,-5,1,0
1337033,480,-8288,568,0,-5,1,0
1337038,475,-8287,571,0,-5,1,0
1337043,471,-8285,576,0,-5,1,0
1337048,464,-8281,583,0,-5,1,0
1337053,459,-8279,589,0,-4,1,0
1337058,448,-8281,593,0,-4,1,0
1337063,436,-8284,601,0,-3,1,0
1337068,424,-8287,608,0,-2,1,0
1337073,415,-8289,612,0,-2,0,0
1337078,409,-8292,611,0,-2,0,0
1337083,405,-8290,613,0,-1,0,0
1337088,401,-8286,607,0,-1,0,0
1337093,402,-8287,606,0,-1,0,0
1337098,402,-8286,601,0,0,0,0
1337103,401,-8286,596,-1,0,0,0
1337108,402,-8290,587,-1,0,0,0
1337113,402,-8288,575,-1,0,0,0
1337118,400,-8288,565,-1,0,0,0
1337123,400,-8289,558,-1,0,0,0
1337128,401,-8287,548,-1,1,0,0
1337133,401,-8286,536,-1,1,0,0
1337138,401,-8286,521,-1,1,0,0
1337143,403,-8282,511,-1,1,0,0
1337148,406,-8284,498,-1,1,0,0
1337153,406,-8284,484,-1,1,0,0
1337158,410,-8283,476,-1,1,0,0
1337163,415,-8285,466,-1,1,0,0
1337168,422,-8285,455,-1,2,0,0
1337173,428,-8286,438,-1,2,0,0
1337178,435,-8291,427,-1,2,0,0
1337183,445,-8293,412,-1,2,0,0
1337188,453,-8291,397,-1,3,0,0
1337193,463,-8289,393,-1,3,0,0
1337198,479,-8285,387,-1,3,0,0
1337203,497,-8284,385,-1,3,0,0
1337208,517,-8285,381,-1,2,0,0
1337213,540,-8285,377,-1,2,0,0
1337218,562,-8286,371,-1,2,0,0
1337223,582,-8286,359,-1,1,0,0
1337228,599,-8285,354,0,1,0,0
1337233,610,-8282,351,0,1,0,0
1337238,617,-8278,353,0,0,0,0
1337243,616,-8281,355,0,0,0,0
1337248,612,-8280,360,0,-1,0,0
1337253,606,-8278,367,0,-1,0,0
1337258,594,-8279,371,0,-1,0,0
1337263,576,-8279,378,0,-1,0,0
1337268,560,-8282,389,0,-1,0,0
1337273,545,-8282,393,0,-1,0,0
1337278,532,-8280,401,0,-1,0,0
1337283,514,-8280,412,0,-1,0,0
1337287,496,-8279,421,0,-1,0,0
1337293,476,-8279,429,0,-1,0,0
1337298,462,-8280,441,0,0,0,0
1337303,460,-8280,449,-1,1,0,0
1337308,466,-8279,463,-1,1,0,0
1337313,468,-8278,464,0,0,0,0
1337318,465,-8280,470,0,-1,0,0
1337322,459,-8280,466,0,-1,0,0
1337328,452,-8282,460,0,0,0,0
1337333,452,-8283,453,-1,0,0,0
1337338,453,-8282,451,0,0,0,0
1337343,452,-8283,445,-1,0,0,0
1337348,453,-8285,439,-1,0,0,0
1337353,454,-8284,430,-1,0,0,0
1337357,453,-8282,425,-1,0,0,0
1337363,452,-8282,422,-1,0,0,0
1337368,449,-8283,422,-1,0,0,0
1337373,447,-8285,422,-1,0,0,0
1337378,441,-8285,419,-1,0,0,0
1337383,436,-8287,421,-1,0,0,0
1337387,433,-8288,422,-1,-1,0,0
1337393,435,-8284,424,-1,-1,0,0
1337397,443,-8282,433,-1,-1,0,0
1337403,449,-8280,438,-1,-2,0,0
1337407,454,-8279,441,-1,-2,0,0
1337413,459,-8284,447,-1,-2,0,0
1337418,466,-8286,457,-1,-2,0,0
1337423,471,-8287,460,-1,-2,0,0
1337427,474,-8289,464,-1,-2,0,0
1337432,474,-8289,472,-1,-2,0,0
1337437,474,-8291,475,-1,-2,0,0
1337442,469,-8293,472,-1,-3,0,0
1337448,463,-8295,468,-1,-3,0,0
1337452,453,-8292,466,-1,-3,0,0
1337458,442,-8291,470,-1,-3,0,0
1337462,435,-8293,469,-1,-3,0,0
1337467,430,-8293,462,-1,-3,0,0
1337472,428,-8292,461,-1,-2,0,0
1337477,422,-8291,459,-1,-2,0,0
1337483,419,-8289,457,-1,-2,0,0
1337487,417,-8288,457,-1,-1,0,0
1337493,411,-8287,456,-1,-1,0,0
1337497,406,-8289,455,-1,-2,0,0
1337503,400,-8289,460,-1,-1,0,0
1337508,399,-8291,461,-1,-1,0,0
1337512,402,-8289,466,-1,-1,0,0
1337518,407,-8290,478,-1,0,0,0
1337522,411,-8292,486,-1,-1,0,0
1337527,416,-8291,491,-1,-1,0,0
1337532,424,-8290,499,-1,-1,-1,0
1337538,430,-8289,505,-1,-1,-1,0
1337542,434,-8288,513,-1,-1,0,0
1337547,437,-8288,522,-1,-1,0,0
1337552,437,-8285,526,-1,-1,0,0
1337557,438,-8286,522,-1,-1,0,0
1337562,436,-8285,519,-1,-1,-1,0
1337567,431,-8282,514,-1,-1,-1,0
1337572,426,-8282,509,-1,-1,-1,0
1337577,418,-8284,503,-1,-1,-1,0
1337582,410,-8285,494,-1,-1,-1,0
1337587,402,-8285,484,-1,0,-1,0
1337592,396,-8282,474,-1,0,-1,0
1337597,390,-8280,466,-1,0,-1,0
1337602,385,-8280,461,-1,0,-1,0
1337607,382,-8283,453,-1,0,-1,0
1337612,381,-8282,448,-1,0,-1,0
1337617,383,-8282,447,-1,1,-1,0
1337622,380,-8283,452,-1,1,-1,0
1337627,381,-8285,449,-1,1,-1,0
1337632,379,-8285,447,-1,1,-1,0
1337637,378,-8289,448,-1,1,-1,0
1337642,376,-8291,447,-1,1,-1,0
1337647,377,-8291,443,-1,1,-1,0
1337652,382,-8292,438,-1,1,-1,0
1337657,388,-8292,430,-1,1,-1,0
1337662,397,-8290,423,-1,1,-1,0
1337667,401,-8289,420,-1,1,-1,0
1337672,408,-8289,412,-1,0,-1,0
1337677,411,-8289,407,-1,0,-1,0
1337682,417,-8289,403,-1,0,-1,0
1337687,418,-8289,399,-1,0,-1,0
1337692,423,-8287,394,-1,0,-1,0
1337697,426,-8287,386,-1,0,-1,0
1337702,428,-8287,385,-1,0,-1,0
1337707,431,-8287,385,-1,0,-1,0
1337712,434,-8288,385,-1,0,-1,0
1337717,437,-8289,386,-1,0,-1,0
1337722,441,-8286,388,-1,0,-1,0
1337727,447,-8283,383,-1,0,-1,0
1337732,455,-8280,383,-1,0,-1,0
1337737,462,-8281,380,-1,0,-1,0
1337742,467,-8281,375,-1,0,-1,0
1337747,473,-8281,369,-1,0,-1,0
1337752,479,-8281,363,-1,1,-1,0
1337757,486,-8284,358,-1,1,-1,0
1337762,495,-8284,357,-1,1,-1,0
1337767,500,-8284,361,-1,1,-1,0
1337772,509,-8284,361,-1,2,-1,0
1337777,517,-8284,364,-1,2,-1,0
1337782,528,-8282,364,-1,2,-1,0
1337787,543,-8284,370,-1,1,-1,0
1337792,557,-8281,380,-1,1,-1,0
1337797,568,-8283,388,-1,1,-1,0
1337802,575,-8283,391,-1,1,-1,0
1337807,581,-8281,389,-1,0,-1,0
1337812,583,-8282,387,-1,0,-1,0
1337817,584,-8282,390,-1,1,-1,0
1337822,587,-8285,392,-1,1,-1,0
1337827,588,-8281,394,-1,1,-1,0
1337832,591,-8281,396,-1,1,-1,0
1337837,592,-8282,397,-1,1,-1,0
1337842,594,-8282,401,-1,1,-1,0
1337847,597,-8283,407,-1,1,-1,0
1337852,596,-8284,407,-1,1,-1,0
1337857,594,-8285,405,-1,1,0,0
1337862,588,-8286,407,-1,0,0,0
1337867,584,-8287,409,-1,0,0,0
1337872,575,-8284,403,-1,0,0,0
1337877,569,-8284,397,-1,0,0,0
1337882,567,-8285,396,-1,0,0,0
1337887,570,-8286,397,-1,0,0,0
1337892,568,-8285,395,-1,0,0,0
1337897,565,-8285,399,-1,0,0,0
1337902,562,-8285,398,-1,0,0,0
1337907,561,-8283,403,-1,1,0,0
1337912,563,-8282,406,-1,1,0,0
1337917,565,-8283,407,-1,1,0,0
1337922,566,-8280,403,-1,0,0,0
1337927,559,-8283,399,-1,0,0,0
1337932,552,-8284,394,-1,-1,0,0
1337937,542,-8286,387,-1,-1,0,0
1337942,530,-8289,379,-1,-1,0,0
1337947,525,-8288,369,-1,0,0,0
1337952,523,-8288,356,-1,0,0,0
1337957,523,-8288,348,-1,0,0,0
1337962,524,-8285,336,-1,0,0,0
1337967,524,-8285,330,-1,0,0,0
1337972,523,-8285,328,-1,0,0,0
1337977,519,-8283,321,-1,0,0,0
1337982,516,-8283,315,-1,0,0,0
1337987,513,-8286,303,-1,1,0,0
1337992,512,-8288,298,-1,1,0,0
1337997,511,-8287,292,-1,1,0,0
1338002,517,-8287,294,-1,1,0,0
1338007,523,-8286,300,-1,0,0,0
1338012,523,-8284,299,-1,0,0,0
1338017,520,-8283,301,-1,-1,0,0
1338022,511,-8284,304,-1,-1,0,0
1338027,502,-8286,302,-1,-1,0,0
1338032,495,-8290,302,-1,-1,0,0
1338037,485,-8289,300,-1,-1,0,0
1338042,479,-8291,299,-1,-1,0,0
1338047,475,-8291,289,-1,-1,0,0
1338052,473,-8290,279,-1,-1,0,0
1338057,469,-8288,270,-1,-1,0,0
1338062,465,-8289,269,-1,-1,0,0
1338067,463,-8291,270,-1,0,0,0
1338072,456,-8290,271,-1,-1,0,0
1338077,452,-8288,269,-1,-1,0,0
1338082,451,-8286,267,-1,-1,0,0
1338087,450,-8285,268,-1,-1,0,0
1338092,449,-8285,270,-1,-1,0,0
1338097,450,-8287,272,-1,-1,0,0
1338102,446,-8284,275,-1,-1,0,0
1338107,444,-8282,275,-1,-1,0,0
1338112,439,-8282,276,-1,-1,0,0
1338117,439,-8286,275,-1,-1,0,0
1338122,436,-8286,279,-1,-2,0,0
1338127,430,-8286,280,-1,-2,0,0
1338132,419,-8287,277,-1,-1,0,0
1338137,419,-8286,281,-1,0,0,0
1338142,428,-8286,284,-1,1,0,0
1338147,438,-8284,293,-1,1,0,0
1338152,449,-8285,298,-1,0,0,0
1338157,453,-8283,300,-1,0,0,0
1338162,458,-8283,297,-1,-1,0,0
1338167,462,-8284,303,-1,-1,0,0
1338172,467,-8285,310,-1,-1,0,0
1338177,476,-8284,315,-1,0,0,0
1338182,487,-8285,323,-1,-1,0,0
1338187,498,-8285,333,-1,-1,0,0
1338192,510,-8286,351,-1,-1,0,0
1338197,519,-8285,368,-1,-2,0,0
1338202,516,-8284,384,-1,-2,0,0
1338207,513,-8285,382,-1,-2,0,0
1338212,513,-8287,378,-1,-1,0,0
1338217,514,-8288,381,-1,-1,0,0
1338222,520,-8290,372,-1,-2,0,0
1338227,523,-8290,360,-1,-2,0,0
1338232,529,-8291,349,-1,-3,0,0
1338237,535,-8288,339,-1,-5,0,0
1338242,531,-8286,337,-1,-6,0,0
1338247,534,-8286,331,-1,-8,0,0
1338252,528,-8286,329,-1,-10,0,0
1338257,519,-8285,323,-1,-10,0,0
1338262,517,-8284,308,-1,-9,0,0
1338267,518,-8285,298,-1,-8,0,0
1338272,521,-8285,288,-1,-8,0,0
1338277,522,-8287,272,-1,-8,0,0
1338282,510,-8286,263,-1,-9,0,0
1338287,496,-8285,251,-1,-9,0,0
1338292,480,-8288,245,-1,-8,0,0
1338297,472,-8290,237,-1,-7,0,0
1338302,464,-8290,231,-1,-5,0,0
1338307,470,-8291,227,-1,-3,0,0
1338312,486,-8293,241,-1,-3,0,0
1338317,496,-8293,250,-1,-3,0,0
1338322,501,-8293,257,-1,-2,0,0
1338327,505,-8290,267,-1,0,0,0
1338332,519,-8292,274,-1,1,0,0
1338337,537,-8291,281,-1,2,0,0
1338342,551,-8288,286,-1,1,0,0
1338347,566,-8287,278,-1,0,0,0
1338352,568,-8286,276,-1,-1,0,0
1338357,577,-8287,272,-1,-1,0,0
1338362,583,-8288,269,-1,-1,0,0
1338367,588,-8288,273,-1,-1,0,0
1338372,587,-8286,270,-1,-1,0,0
1338377,582,-8288,271,-1,-1,1,0
1338382,579,-8288,273,-1,0,1,0
1338387,571,-8287,279,-1,0,1,0
1338392,559,-8287,284,-1,0,1,0
1338397,547,-8285,295,-1,1,1,0
1338402,536,-8287,306,-1,1,1,0
1338407,524,-8287,314,-1,1,1,0
1338412,507,-8287,327,-1,1,1,0
1338417,484,-8289,337,-1,1,1,0
1338422,463,-8289,345,-1,1,1,0
1338427,445,-8292,351,-1,1,1,0
1338432,434,-8295,348,-1,1,1,0
1338437,435,-8293,347,-1,1,1,0
1338442,437,-8292,344,-1,1,1,0
1338447,444,-8290,346,-1,0,1,0
1338452,443,-8291,348,-1,0,1,0
1338457,444,-8291,356,-1,0,1,0
1338462,442,-8287,359,-1,0,1,0
1338467,442,-8286,367,-1,0,1,0
1338472,437,-8287,375,-1,0,1,0
1338477,435,-8287,378,-1,0,1,0
1338482,429,-8286,383,-1,0,1,0
1338487,422,-8282,390,-1,0,1,0
1338492,417,-8279,393,-1,0,1,0
1338497,406,-8280,397,-1,0,0,0
1338502,394,-8280,399,-1,0,1,0
1338507,382,-8283,402,-1,1,0,0
1338512,368,-8282,403,-1,2,1,0
1338517,356,-8282,399,-1,2,0,0
1338522,345,-8284,394,-1,3,0,0
1338527,333,-8286,388,-1,4,0,0
1338532,322,-8285,387,-1,4,0,0
1338537,312,-8287,382,-1,5,0,0
1338542,305,-8288,382,-1,6,0,0
1338547,305,-8289,383,-1,6,0,0
1338552,310,-8291,383,-1,6,0,0
1338557,313,-8290,375,-1,5,0,0
1338562,317,-8289,361,-1,4,0,0
1338567,320,-8290,354,-1,4,0,0
1338572,325,-8290,344,-1,4,0,0
1338577,321,-8288,344,-1,3,0,0
1338582,323,-8287,335,-1,2,0,0
1338587,316,-8289,324,-1,3,0,0
1338592,307,-8290,315,-1,4,0,0
1338597,306,-8290,304,-1,5,0,0
1338602,303,-8288,304,-1,6,0,0
1338607,301,-8290,303,-1,7,0,0
1338612,302,-8291,304,-1,8,0,0
1338617,302,-8292,318,-1,8,0,0
1338622,308,-8292,325,-1,8,0,0
1338627,311,-8294,327,-1,7,0,0
1338632,316,-8295,325,-1,6,0,0
1338637,324,-8295,323,-1,5,0,0
1338642,329,-8294,327,-1,4,0,0
1338647,326,-8290,322,-1,3,0,0
1338652,320,-8289,320,-1,2,0,0
1338657,315,-8291,316,-1,2,0,0
1338662,311,-8294,307,-1,2,0,0
1338667,307,-8296,298,-1,2,0,0
1338672,310,-8298,283,-1,2,0,0
1338677,313,-8299,264,-1,2,0,0
1338682,313,-8297,254,-1,2,-1,0
1338687,310,-8296,247,-1,2,-1,0
1338692,305,-8294,238,-1,2,-1,0
1338697,298,-8295,233,-1,2,-1,0
1338702,292,-8296,230,-1,2,-1,0
1338707,287,-8297,233,-1,3,-1,0
1338712,284,-8293,238,-1,4,-1,0
1338717,290,-8293,239,-1,4,-1,0
1338722,300,-8291,250,-1,4,-1,0
1338727,320,-8289,258,-1,2,-1,0
1338732,327,-8289,271,-1,0,-1,0
1338737,327,-8288,286,-1,-1,-1,0
1338742,324,-8285,294,-1,-2,-1,0
1338747,320,-8283,300,-1,-2,-1,0
1338752,315,-8283,295,-1,-2,-1,5
1338757,315,-8286,290,-1,-2,-1,5
1338762,318,-8288,281,-1,-1,-1,5
1338767,324,-8287,267,-1,-2,-1,5
1338772,334,-8289,257,-1,-2,-1,5
1338777,343,-8289,248,-1,-2,-1,5
1338782,348,-8291,240,-1,-1,-1,5
1338787,355,-8290,231,-1,0,-1,5
1338792,368,-8289,215,-1,1,-1,5
1338797,382,-8287,212,-1,1,-1,5
1338802,395,-8286,208,-1,1,-1,5
1338807,402,-8288,204,-1,1,-1,5
1338812,409,-8288,198,-1,2,-1,5
1338817,418,-8288,200,-1,2,-1,5
1338822,431,-8289,199,-1,3,-1,5
1338827,440,-8288,198,-1,3,-1,5
1338832,455,-8287,191,-1,4,-1,5
1338837,471,-8286,187,-1,4,-1,5
1338842,481,-8285,186,-1,4,-1,5
1338847,482,-8284,193,-1,5,-1,5
1338852,475,-8284,200,-1,5,-1,5
1338857,469,-8284,207,-1,5,-1,5
1338862,464,-8283,213,-1,4,-1,5
1338867,462,-8282,218,-1,3,-1,5
1338872,465,-8283,214,-1,1,-1,5
1338877,474,-8283,210,-1,1,-1,5
1338882,484,-8283,200,-1,0,-1,5
1338887,494,-8283,189,-1,0,-1,5
1338892,497,-8283,184,-1,1,-1,5
1338897,496,-8283,181,-1,1,-1,5
1338902,492,-8282,186,-1,1,-1,5
1338907,486,-8282,196,-1,0,-1,5
1338912,479,-8282,205,-1,0,-1,5
1338917,476,-8281,213,0,-1,-1,5
1338922,474,-8281,215,-1,-1,0,5
1338927,476,-8283,223,-1,-1,-1,5
1338932,479,-8282,225,-1,0,-1,5
1338937,485,-8281,226,-1,0,-1,5
1338942,491,-8283,225,0,0,-1,5
1338947,495,-8285,230,0,0,-1,5
1338952,495,-8286,228,-1,0,0,5
1338957,491,-8285,218,-1,1,0,5
1338962,484,-8286,213,0,1,0,5
1338967,474,-8285,205,0,2,0,5
1338972,466,-8287,190,0,3,0,5
1338977,460,-8288,189,0,3,0,5
1338982,452,-8290,187,0,3,0,5
1338987,448,-8290,189,0,3,0,5
1338992,448,-8291,189,0,3,0,5
1338997,447,-8290,194,0,2,0,5
1339002,446,-8289,203,0,2,0,5
1339007,441,-8288,210,0,1,0,5
1339012,439,-8286,218,0,1,0,5
1339017,437,-8287,221,0,1,0,5
1339022,436,-8288,219,0,1,0,5
1339027,435,-8287,218,0,2,0,5
1339032,430,-8288,222,0,3,0,5
1339037,428,-8291,228,0,3,0,5
1339042,426,-8296,229,0,3,0,5
1339047,423,-8297,237,0,3,0,5
1339052,419,-8295,244,0,2,0,5
1339057,412,-8296,258,0,1,0,5
1339062,405,-8294,267,0,1,0,5
1339067,397,-8290,263,0,0,0,5
1339072,393,-8289,267,0,0,0,5
1339077,394,-8287,268,0,0,0,5
1339082,398,-8287,265,0,0,-1,5
1339087,398,-8289,255,0,0,0,5
1339092,391,-8287,254,0,0,0,5
1339097,386,-8287,251,0,0,0,5
1339102,382,-8287,253,0,0,-1,5
1339107,382,-8287,258,0,0,-1,5
1339112,386,-8286,264,0,0,-1,5
1339117,390,-8282,266,0,0,-1,5
1339122,395,-8281,270,0,0,-1,5
1339127,397,-8281,273,0,0,-1,5
1339132,398,-8286,275,0,0,-1,5
1339137,396,-8289,272,0,0,-1,5
1339142,390,-8290,264,0,0,-1,5
1339147,385,-8291,265,0,1,-1,5
1339152,381,-8289,261,0,1,-1,5
1339157,377,-8289,255,0,2,-1,5
1339162,377,-8288,254,0,2,-1,5
1339167,381,-8290,258,0,3,-1,5
1339172,392,-8294,265,0,3,-1,5
1339177,403,-8293,269,0,3,-1,5
1339182,413,-8294,272,0,2,-1,5
1339187,420,-8294,279,0,1,-1,5
1339192,424,-8298,280,0,0,-1,5
1339197,429,-8297,277,0,0,-1,5
1339202,429,-8293,275,0,0,-1,5
1339207,429,-8293,270,0,0,-1,5
1339212,428,-8292,266,0,0,-1,5
1339217,434,-8291,265,0,0,-1,5
1339222,439,-8291,259,0,0,-1,5
1339227,446,-8290,260,0,-1,-1,5
1339232,445,-8291,263,0,-1,-1,5
1339237,441,-8291,263,0,-1,-1,5
1339242,435,-8290,263,0,-1,-1,5
1339247,428,-8289,266,0,0,-1,5
1339252,423,-8288,261,0,0,-1,5
1339257,415,-8289,253,0,-1,-1,5
1339262,408,-8287,245,0,-1,-1,5
1339267,405,-8286,246,0,0,-1,5
1339272,399,-8283,247,0,0,-1,5
1339277,394,-8285,251,0,1,-1,5
1339282,390,-8286,254,0,3,-1,5
1339287,385,-8284,259,0,4,-1,5
1339292,395,-8286,257,0,5,-1,5
1339297,397,-8287,262,0,5,-1,5
1339302,390,-8286,261,0,4,-1,5
1339307,388,-8287,258,0,5,-1,5
1339312,386,-8288,259,0,6,-1,5
1339317,388,-8288,258,0,7,-1,5
1339322,391,-8288,263,0,7,-1,5
1339327,398,-8290,267,0,7,-1,5
1339332,400,-8291,270,-1,6,-1,5
1339337,400,-8294,281,-1,6,-1,5
1339342,396,-8295,294,-1,5,-1,5
1339347,385,-8296,308,-1,5,-1,5
1339352,373,-8296,316,-1,4,-1,5
1339357,362,-8294,317,-1,4,-1,5
1339362,353,-8292,309,-1,5,-1,5
1339367,349,-8290,297,-1,5,-1,5
1339372,343,-8292,290,-1,6,-1,5
1339377,336,-8292,277,-1,6,-1,5
1339382,332,-8292,264,-1,6,-1,5
1339387,324,-8290,251,-1,6,-1,5
1339392,320,-8287,240,-1,7,-1,5
1339397,319,-8284,234,-1,7,-1,5
1339402,318,-8286,230,-1,8,-1,5
1339407,316,-8283,234,-1,9,-1,5
1339412,322,-8283,231,-1,11,-1,5
1339417,327,-8281,239,-1,13,-1,5
1339422,335,-8280,239,-1,14,-1,5
1339427,343,-8284,243,-1,15,-1,5
1339432,348,-8286,259,-1,15,-1,5
1339437,349,-8289,270,-1,14,-1,5
1339442,350,-8288,272,-1,13,-1,5
1339447,334,-8291,283,-1,13,-1,5
1339452,326,-8299,274,-1,13,-1,5
1339457,322,-8301,269,-1,14,-1,5
1339462,323,-8300,255,-1,15,-1,5
1339467,332,-8293,238,-1,16,-1,5
1339472,335,-8290,240,-1,17,-1,5
1339477,344,-8289,232,-1,19,-1,5
1339482,351,-8286,233,-1,20,-1,5
1339487,359,-8283,248,-1,21,-1,5
1339492,366,-8283,262,-1,21,-2,5
1339497,363,-8287,293,-1,20,-2,5
1339502,361,-8288,317,-1,18,-2,5
1339507,347,-8289,346,-1,16,-2,5
1339512,336,-8288,365,-1,14,-2,5
1339517,326,-8287,368,-1,13,-2,5
1339522,321,-8287,375,-1,13,-2,5
1339527,325,-8285,377,-1,14,-2,5
1339532,332,-8288,368,-1,14,-2,5
1339537,339,-8291,355,-1,15,-2,5
1339542,339,-8291,332,-1,16,-2,5
1339547,340,-8292,296,-1,18,-2,5
1339552,338,-8290,272,-1,20,-2,5
1339557,337,-8291,247,-1,22,-2,5
1339562,333,-8290,230,-1,25,-2,5
1339567,330,-8289,217,-1,28,-2,5
1339572,334,-8290,211,-1,32,-2,5
1339577,340,-8290,210,-1,35,-2,5
1339582,349,-8291,204,-1,38,-2,5
1339587,353,-8288,202,-1,41,-2,5
1339592,361,-8286,203,-1,44,-2,5
1339597,370,-8287,205,-1,46,-2,5
1339602,376,-8287,206,-1,49,-2,5
1339607,386,-8289,214,-1,53,-2,5
1339612,398,-8290,233,-1,55,-2,5
1339617,408,-8291,264,-1,56,-2,5
1339622,423,-8293,308,-2,54,-2,5
1339627,457,-8292,369,-2,49,-2,5
1339632,518,-8291,443,-2,39,-2,5
1339637,615,-8291,541,-1,20,-2,5
1339642,727,-8294,654,-1,-6,-2,5
1339647,882,-8296,790,-1,-40,-2,5
1339652,1096,-8295,977,-1,-84,-2,5
1339657,1342,-8292,1241,-1,-141,-2,5
1339662,1639,-8284,1466,-1,-207,-2,5
1339667,1977,-8272,1729,0,-281,-1,5
1339672,2358,-8263,1907,1,-362,-1,5
1339677,2775,-8254,2031,2,-446,0,5
1339682,3206,-8252,2173,3,-536,0,5
1339687,3634,-8247,2334,4,-632,0,5
1339692,4021,-8241,2583,4,-737,0,5
1339697,4324,-8237,2995,5,-850,1,5
1339702,4516,-8235,3584,6,-968,2,5
1339707,4557,-8228,4324,8,-1080,3,5
1339712,4415,-8220,5147,9,-1179,4,5
1339717,4136,-8208,5979,10,-1261,5,5
1339722,3737,-8207,6795,11,-1324,5,5
1339727,3203,-8206,7573,12,-1366,4,5
1339732,2526,-8211,8240,13,-1390,3,5
1339737,1738,-8227,8912,14,-1396,1,5
1339742,779,-8236,9247,15,-1376,0,5
1339747,-195,-8247,9241,14,-1298,1,5
1339752,-909,-8247,8948,13,-1164,2,5
1339757,-1867,-8256,8230,12,-1008,0,5
1339762,-2860,-8272,7438,13,-863,-7,5
1339767,-3850,-8264,6700,12,-718,-9,5
1339772,-5012,-8275,5969,9,-583,-8,5
1339777,-5764,-8281,5163,7,-473,-7,5
1339782,-6168,-8289,4296,5,-366,-5,5
1339787,-6041,-8306,3365,4,-247,-5,5
1339792,-5720,-8318,2512,2,-114,-5,5
1339797,-5340,-8323,1739,1,10,-5,5
1339802,-5004,-8325,1068,0,109,-5,5
1339807,-4490,-8330,441,-1,171,-3,5
1339812,-3898,-8331,-22,-2,206,-2,5
1339817,-3257,-8323,-270,-2,229,-1,5
1339822,-2619,-8309,-370,-3,249,-1,5
1339827,-2012,-8297,-333,-3,265,-1,5
1339832,-1399,-8293,-144,-2,275,-1,5
1339837,-745,-8304,88,-3,275,0,5
1339842,-139,-8308,325,-3,264,2,5
1339847,338,-8290,525,-4,242,3,5
1339852,669,-8266,768,-3,212,4,5
1339857,999,-8262,1039,-2,187,2,5
1339862,1340,-8260,1458,-2,181,1,5
1339867,1499,-8253,1689,-3,195,2,5
1339872,1543,-8247,1823,-3,217,1,5
1339877,1526,-8250,1910,-3,240,1,5
1339882,1380,-8255,1855,-3,265,1,5
1339887,1121,-8266,1770,-4,290,1,5
1339892,751,-8280,1650,-4,322,2,5
1339897,355,-8296,1502,-6,366,3,5
1339902,-72,-8312,1389,-7,429,3,5
1339907,-506,-8327,1280,-8,509,3,5
1339912,-914,-8335,1259,-10,601,3,5
1339917,-1351,-8338,1320,-11,706,2,5
1339922,-1778,-8342,1460,-12,819,2,5
1339927,-2205,-8340,1757,-14,938,1,5
1339932,-2605,-8347,2173,-16,1061,-1,5
1339937,-2977,-8332,2753,-17,1184,-3,5
1339942,-3372,-8334,3563,-18,1305,-5,5
1339947,-3685,-8357,4500,-19,1413,-6,5
1339952,-3841,-8374,5433,-20,1431,-5,5
1339957,-3952,-8335,6012,-22,1431,-3,5
1339962,-3917,-8333,6406,-21,1431,-6,5
1339967,-3638,-8316,6919,-20,1431,-7,5
1339972,-3316,-8292,7159,-19,1346,-7,5
1339977,-2933,-8263,7458,-17,1238,-7,5
1339982,-2320,-8235,7601,-14,1117,-7,5
1339987,-1505,-8200,7657,-11,979,-6,5
1339992,-514,-8182,7545,-7,820,-5,5
1339997,585,-8168,7116,-4,643,-3,5
1340002,1639,-8153,6636,-1,456,-1,5
1340007,2403,-8156,6219,1,273,-1,5
1340012,3394,-8164,6010,2,112,-4,5
1340017,4549,-8158,5767,2,12,-2,5
1340022,5170,-8133,5298,4,-41,-3,5
1340027,5401,-8137,4859,6,-86,-5,5
1340032,5182,-8166,4304,6,-117,-6,5
1340037,4753,-8188,3798,5,-132,-6,5
1340042,4240,-8207,3332,4,-120,-7,5
1340047,3616,-8228,2886,2,-88,-6,5
1340052,3044,-8244,2542,1,-50,-5,5
1340057,2598,-8250,2279,0,-12,-4,5
1340062,2258,-8257,2140,0,20,-2,5
1340067,2040,-8265,2069,-1,42,-1,5
1340072,1958,-8266,2023,-1,54,0,5
1340077,1971,-8266,2024,-1,58,1,5
1340082,2030,-8269,2004,-1,55,1,5
1340087,2112,-8270,1949,-1,44,1,5
1340092,2166,-8270,1863,-1,29,0,5
1340097,2150,-8270,1712,-1,11,0,5
1340102,2090,-8271,1537,-1,-7,0,5
1340107,1978,-8276,1347,-1,-19,0,5
1340112,1836,-8279,1136,-1,-29,1,5
1340117,1668,-8283,955,-1,-37,1,5
1340122,1520,-8286,802,-1,-43,0,5
1340127,1439,-8286,665,-1,-49,0,5
1340132,1352,-8288,563,-1,-54,0,5
1340137,1274,-8288,485,-1,-61,0,5
1340142,1206,-8288,424,0,-68,1,5
1340147,1186,-8278,352,0,-74,1,5
1340152,1141,-8272,282,0,-79,1,5
1340157,1067,-8270,231,0,-80,1,5
1340162,981,-8270,187,0,-78,1,5
1340167,915,-8274,140,0,-77,1,5
1340172,853,-8276,105,0,-76,1,5
1340177,793,-8280,67,0,-73,1,5
1340182,743,-8282,20,0,-70,1,5
1340187,699,-8283,-12,0,-66,1,5
1340192,651,-8284,-28,0,-60,1,5
1340197,591,-8289,-26,0,-54,2,5
1340202,530,-8293,-10,0,-47,1,5
1340207,485,-8295,9,0,-41,1,5
1340212,448,-8295,33,0,-37,1,5
1340216,409,-8296,65,1,-35,1,5
1340222,364,-8296,94,0,-35,1,5
1340227,341,-8294,120,0,-37,1,5
1340232,332,-8293,145,1,-40,1,5
1340237,312,-8293,151,1,-42,1,5
1340242,312,-8296,149,1,-45,1,5
1340246,316,-8296,146,1,-45,1,5
1340252,312,-8297,139,1,-45,1,5
1340257,325,-8298,121,1,-43,1,5
1340261,327,-8300,110,1,-40,1,5
1340267,329,-8300,106,1,-37,1,5
1340272,338,-8301,96,0,-33,1,5
1340276,333,-8302,88,0,-29,0,5
1340282,330,-8305,85,0,-25,1,5
1340286,329,-8307,84,0,-21,0,5
1340291,324,-8306,88,0,-16,0,5
1340297,329,-8306,102,0,-12,0,5
1340302,340,-8304,116,0,-9,0,5
1340307,347,-8302,130,0,-7,0,5
1340312,362,-8301,140,0,-7,0,5
1340317,375,-8301,149,0,-8,0,5
1340322,384,-8301,153,0,-10,0,5
1340327,394,-8299,150,0,-12,0,5
1340331,408,-8296,150,0,-14,0,5
1340336,418,-8295,153,0,-15,0,5
1340342,433,-8296,155,0,-16,0,5
1340347,445,-8296,158,0,-16,0,5
1340351,450,-8293,155,0,-16,0,5
1340356,466,-8289,155,0,-16,0,5
1340361,478,-8289,161,0,-14,0,5
1340367,483,-8287,170,0,-14,0,5
1340371,491,-8289,180,0,-13,0,5
1340377,488,-8287,192,0,-11,0,5
1340382,487,-8283,193,0,-10,0,5
1340386,488,-8284,192,0,-7,0,5
1340391,482,-8285,190,0,-5,0,5
1340397,483,-8286,187,0,-3,0,5
1340401,482,-8287,195,0,-1,0,5
1340407,477,-8288,199,0,0,0,5
1340411,473,-8290,203,0,1,0,5
1340416,471,-8291,209,0,1,0,5
1340422,471,-8292,212,0,0,0,5
1340426,468,-8291,215,0,-2,0,5
1340432,460,-8294,223,0,-3,0,5
1340436,459,-8296,227,0,-4,0,5
1340442,465,-8297,234,0,-5,0,5
1340446,480,-8296,241,0,-6,0,5
1340451,491,-8297,242,0,-7,0,5
1340456,501,-8295,247,0,-8,0,5
1340461,510,-8297,248,0,-9,0,5
1340466,511,-8295,256,0,-9,0,5
1340471,511,-8295,261,0,-9,0,5
1340476,510,-8294,260,0,-9,0,5
1340481,502,-8294,259,0,-9,0,5
1340486,499,-8295,254,0,-8,0,5
1340491,492,-8294,242,0,-7,0,5
1340496,487,-8294,230,0,-5,0,5
1340501,489,-8293,215,0,-3,0,5
1340506,484,-8291,207,0,0,0,5
1340512,483,-8290,205,0,1,0,5
1340516,485,-8290,202,0,2,0,5
1340521,482,-8287,196,0,1,0,5
1340526,476,-8284,189,0,0,0,5
1340531,463,-8284,183,0,-2,0,5
1340536,444,-8285,174,0,-3,0,5
1340541,429,-8284,172,0,-4,0,5
1340546,422,-8285,167,0,-5,0,5
1340551,418,-8288,163,0,-6,0,5
1340556,424,-8289,160,0,-6,0,5
1340561,434,-8287,163,0,-7,0,5
1340566,437,-8290,173,0,-7,0,5
1340571,443,-8291,186,0,-7,0,5
1340577,437,-8290,195,0,-6,0,5
1340581,424,-8289,210,0,-4,0,5
1340586,408,-8290,223,0,-2,0,5
1340591,390,-8293,228,0,0,0,5
1340596,380,-8295,232,0,2,0,5
1340602,381,-8293,231,0,3,0,5
1340606,379,-8292,226,0,5,0,5
1340611,381,-8292,227,0,6,0,5
1340616,388,-8295,221,0,9,0,5
1340621,388,-8296,218,-1,11,-1,5
1340626,391,-8295,217,-1,12,-1,5
1340631,391,-8295,214,-1,14,-1,5
1340636,388,-8298,214,-1,14,-1,5
1340641,394,-8296,216,-1,14,-1,5
1340646,400,-8293,212,-1,13,-1,5
1340651,407,-8292,213,-1,12,-1,5
1340656,418,-8291,210,-1,10,-1,5
1340661,428,-8293,202,-1,8,-1,5
1340666,438,-8294,203,-1,7,-1,5
1340671,449,-8290,208,-1,6,-1,5
1340676,453,-8290,206,-1,5,-1,5
1340681,453,-8292,206,-1,5,-1,5
1340686,456,-8295,204,-1,6,-1,5
1340691,455,-8295,199,-1,7,-1,5
1340696,454,-8295,195,-1,8,-1,5
1340701,461,-8295,189,-1,10,-1,5
1340706,467,-8295,178,-1,11,-1,5
1340711,477,-8293,169,-1,12,-1,5
1340716,488,-8290,165,-1,14,-1,5
1340721,496,-8291,166,-1,15,-1,5
1340726,505,-8291,167,-1,16,-1,5
1340731,518,-8289,164,-1,16,-1,5
1340736,525,-8287,167,-1,16,-1,5
1340741,536,-8289,175,-1,16,-1,5
1340746,542,-8287,179,-1,15,-1,5
1340751,547,-8287,183,-1,14,-1,0
1340756,555,-8287,188,-1,14,-1,0
1340761,556,-8288,192,-1,13,-1,0
1340766,557,-8289,196,-1,13,-1,0
1340771,559,-8290,193,-1,13,-1,0
1340776,557,-8289,189,-1,14,-1,0
1340781,559,-8291,186,-1,15,-1,0
1340786,558,-8292,187,-1,17,-1,0
1340791,569,-8288,188,-1,19,0,0
1340796,657,-8284,176,-1,18,0,0
1340801,724,-8282,153,0,13,0,0
1340806,760,-8282,140,0,10,0,0
1340811,799,-8283,104,-1,10,0,0
1340816,772,-8284,105,-1,14,0,0
1340821,715,-8286,113,-1,18,-1,0
1340826,632,-8288,132,-1,23,-1,0
1340831,544,-8290,180,-1,27,0,0
1340836,493,-8290,200,-1,31,0,0
1340841,471,-8289,214,-1,33,1,0
1340846,485,-8290,208,-1,35,1,0
1340851,515,-8288,183,-1,37,0,0
1340856,548,-8288,166,-1,38,0,0
1340861,564,-8289,143,-1,38,0,0
1340866,552,-8288,132,-1,36,0,0
1340871,541,-8288,121,-1,33,0,0
1340876,521,-8289,109,-1,29,0,0
1340881,497,-8290,95,-1,25,0,0
1340886,481,-8290,81,-1,21,0,0
1340891,458,-8293,77,-1,20,0,0
1340896,447,-8295,83,-1,20,0,0
1340901,441,-8295,93,-1,20,0,0
1340906,435,-8293,110,0,20,0,0
1340911,439,-8291,128,0,19,0,0
1340916,445,-8289,147,0,18,0,0
1340921,454,-8289,165,0,17,0,0
1340926,469,-8288,179,0,17,0,0
1340931,481,-8288,200,0,17,0,0
1340936,485,-8287,214,-1,17,0,0
1340941,492,-8288,228,-1,17,0,0
1340946,486,-8285,243,-1,17,0,0
1340951,512,-8285,246,-1,16,0,0
1340956,536,-8282,254,-1,13,0,0
1340961,578,-8281,246,0,10,0,0
1340966,603,-8282,234,0,8,0,0
1340971,593,-8284,223,-1,9,0,0
1340976,610,-8287,213,-1,10,-1,0
1340981,562,-8287,217,-1,10,-1,0
1340986,526,-8288,218,-1,9,0,0
1340991,498,-8290,211,-1,9,0,0
1340996,453,-8290,220,-1,10,0,0
1341001,461,-8290,215,-1,11,0,0
1341006,447,-8289,220,-1,13,0,0
1341011,460,-8289,228,-1,15,0,0
1341016,473,-8288,225,-1,15,0,0
1341021,474,-8290,229,-1,14,0,0
1341026,493,-8288,221,-1,11,0,0
1341031,499,-8291,205,-1,9,0,0
1341036,514,-8291,194,-1,5,0,0
1341041,535,-8292,170,-1,1,0,0
1341046,551,-8291,156,-1,-2,0,0
1341051,568,-8290,143,-1,-5,0,0
1341056,575,-8291,127,0,-7,0,0
1341061,574,-8291,123,0,-9,0,0
1341066,565,-8293,123,0,-10,-1,0
1341071,550,-8298,132,0,-11,0,0
1341076,534,-8299,141,-1,-10,0,0
1341081,515,-8297,152,0,-9,0,0
1341086,499,-8296,165,-1,-7,0,0
1341091,481,-8295,176,-1,-5,0,0
1341096,471,-8295,189,-1,-2,0,0
1341101,462,-8296,201,-1,0,0,0
1341106,455,-8293,210,-1,2,0,0
1341111,461,-8288,212,-1,3,0,0
1341116,465,-8289,213,-1,3,0,0
1341121,472,-8289,211,-1,1,-1,0
1341126,482,-8291,201,-1,0,0,0
1341131,478,-8290,187,-1,-2,-1,0
1341136,470,-8289,171,-1,-4,-1,0
1341141,464,-8292,153,0,-6,-1,0
1341146,455,-8293,146,-1,-7,-1,0
1341151,453,-8292,141,-1,-9,-1,0
1341156,457,-8291,140,-1,-11,-1,0
1341161,462,-8292,144,0,-14,-1,0
1341166,464,-8291,152,0,-18,-1,0
1341171,468,-8291,170,0,-21,-1,0
1341176,466,-8289,185,0,-23,-1,0
1341181,457,-8286,206,0,-25,-1,0
1341186,452,-8286,214,0,-26,-1,0
1341191,447,-8287,212,0,-26,-1,0
1341196,443,-8290,210,0,-26,-1,0
1341201,449,-8291,199,0,-24,-1,0
1341206,458,-8294,186,0,-22,-1,0
1341211,470,-8294,169,0,-21,-1,0
1341216,489,-8294,149,0,-19,-1,0
1341221,499,-8292,133,0,-19,-1,0
1341226,507,-8292,122,0,-19,-1,0
1341231,506,-8292,112,0,-19,-1,0
1341236,493,-8292,104,0,-20,-1,0
1341241,475,-8292,103,0,-21,-1,0
1341246,450,-8292,107,0,-21,-1,0
1341251,432,-8293,119,0,-21,-1,0
1341256,427,-8293,129,0,-21,-1,0
1341261,426,-8296,139,0,-20,-1,0
1341266,433,-8296,151,0,-20,-1,0
1341271,449,-8297,160,0,-19,-1,0
1341276,461,-8299,164,0,-18,-1,0
1341281,472,-8298,165,0,-18,-1,0
1341286,480,-8297,171,0,-17,-1,0
1341291,477,-8295,170,0,-16,-1,0
1341296,470,-8293,172,0,-15,-1,0
1341301,456,-8294,172,0,-14,-1,0
1341306,441,-8295,171,0,-12,-1,0
1341311,428,-8294,173,0,-11,-1,0
1341316,422,-8296,176,0,-9,-1,0
1341321,419,-8295,183,0,-8,-1,0
1341326,424,-8299,182,-1,-7,-1,0
1341331,440,-8296,177,0,-7,-1,0
1341336,454,-8296,167,0,-7,-1,0
1341341,476,-8293,157,0,-8,-1,0
1341346,494,-8293,141,0,-8,-1,0
1341351,513,-8293,124,0,-9,-1,0
1341356,525,-8293,106,0,-10,-1,0
1341361,529,-8293,88,0,-11,-1,0
1341366,530,-8294,73,0,-12,-1,0
1341371,526,-8297,67,0,-12,-1,0
1341376,517,-8298,68,0,-12,-1,0
1341381,508,-8296,78,0,-12,-1,0
1341386,504,-8295,90,0,-12,-1,0
1341391,500,-8294,101,0,-12,-1,0
1341396,502,-8295,115,0,-11,-1,0
1341401,509,-8295,138,0,-11,-1,0
1341406,516,-8294,152,0,-10,-1,0
1341411,524,-8291,168,0,-11,-1,0
1341416,531,-8292,186,0,-12,-1,0
1341421,533,-8294,200,0,-13,-1,0
1341426,540,-8295,210,0,-14,-1,0
1341431,547,-8293,219,0,-16,-1,0
1341436,549,-8292,227,0,-18,-1,0
1341441,551,-8293,236,0,-19,-1,0
1341446,559,-8292,238,0,-21,-1,0
1341451,574,-8290,240,0,-23,-1,0
1341456,584,-8288,240,0,-25,-1,0
1341461,588,-8289,234,0,-27,-1,0
1341466,586,-8288,220,0,-28,-1,0
1341471,584,-8287,214,0,-28,-1,0
1341476,575,-8287,197,0,-27,-1,0
1341481,573,-8288,182,0,-27,-1,0
1341486,575,-8289,165,0,-27,-1,0
1341491,581,-8291,143,0,-27,-1,0
1341496,590,-8289,127,0,-27,-1,0
1341501,596,-8290,122,0,-27,-1,0
1341506,595,-8290,132,0,-26,-1,0
1341511,595,-8290,154,0,-26,-1,0
1341516,596,-8290,183,0,-25,-1,0
1341521,601,-8290,215,0,-25,-1,0
1341526,608,-8292,251,0,-25,-1,0
1341531,638,-8293,275,0,-24,-1,0
1341536,672,-8291,284,0,-23,-1,0
1341541,691,-8293,300,0,-23,-1,0
1341546,708,-8294,320,-1,-22,-1,0
1341551,702,-8292,343,-1,-22,-1,0
1341556,666,-8290,375,-1,-21,-1,0
1341561,629,-8287,406,-1,-19,-1,0
1341566,576,-8284,440,-1,-16,-1,0
1341571,554,-8284,469,-1,-14,-1,0
1341576,555,-8282,472,-1,-12,-1,0
1341581,595,-8281,476,-1,-12,0,0
1341586,672,-8279,443,-1,-15,-1,0
1341591,746,-8278,399,-1,-22,-1,0
1341596,817,-8276,336,-1,-33,-1,0
1341601,854,-8272,255,-1,-43,-1,0
1341606,855,-8269,169,0,-52,-1,0
1341611,845,-8270,89,0,-57,-2,0
1341616,778,-8273,22,0,-54,-2,0
1341621,656,-8280,-38,0,-45,-2,0
1341626,525,-8281,-102,0,-28,-2,0
1341631,417,-8282,-146,0,-6,-1,0
1341636,310,-8288,-149,0,14,-1,0
1341641,232,-8292,-142,-1,26,-1,0
1341646,201,-8293,-105,-1,31,-1,0
1341651,174,-8295,-49,-1,32,-1,0
1341656,169,-8295,11,-1,28,-1,0
1341661,190,-8294,82,-1,23,0,0
1341666,233,-8290,137,-1,19,0,0
1341671,304,-8287,166,-1,15,0,0
1341676,380,-8288,174,-1,12,-1,0
1341681,452,-8286,166,-1,10,-1,0
1341686,513,-8285,139,-1,8,-1,0
1341691,548,-8282,98,-1,6,-1,0
1341696,562,-8280,53,-1,3,-1,0
1341701,555,-8282,10,-1,1,-1,0
1341706,543,-8283,-25,0,-1,-1,0
1341711,539,-8285,-60,0,-3,-1,0
1341716,548,-8286,-90,0,-5,-1,0
1341721,571,-8285,-95,0,-7,-1,0
1341726,615,-8283,-96,0,-9,-1,0
1341731,660,-8282,-78,0,-10,-1,0
1341736,702,-8283,-46,0,-13,-1,0
1341741,730,-8281,-7,0,-16,-1,0
1341746,745,-8284,36,0,-21,-1,0
1341751,737,-8287,76,0,-25,-1,0
1341756,713,-8288,102,0,-29,-1,0
1341761,683,-8290,121,0,-32,-1,0
1341766,651,-8292,132,1,-35,-1,0
1341771,626,-8292,131,1,-37,-1,0
1341776,603,-8291,126,1,-40,-1,0
1341781,594,-8289,117,1,-42,-1,0
1341786,590,-8287,115,0,-45,-1,0
1341791,589,-8287,125,0,-47,-1,0
1341796,590,-8287,137,1,-48,-1,0
1341801,588,-8287,160,1,-48,-1,0
1341806,584,-8288,184,0,-48,-1,0
1341811,575,-8288,204,0,-48,-1,0
1341816,563,-8289,228,0,-47,-1,0
1341821,539,-8289,252,0,-47,-1,0
1341826,505,-8286,279,0,-45,-1,0
1341831,478,-8286,300,0,-42,-1,0
1341836,476,-8286,318,0,-40,-1,0
1341841,485,-8285,318,0,-39,-1,0
1341846,494,-8286,303,0,-38,-1,0
1341851,514,-8285,282,0,-36,-1,0
1341856,527,-8288,258,0,-34,-1,0
1341861,526,-8289,243,0,-31,-1,0
1341866,531,-8289,228,0,-28,-2,0
1341871,537,-8288,216,0,-24,-1,0
1341876,553,-8285,205,0,-22,-1,0
1341881,591,-8283,165,0,-20,-1,0
1341886,608,-8284,131,0,-19,-1,0
1341891,616,-8284,106,0,-17,-1,0
1341896,650,-8284,71,0,-13,-1,0
1341901,671,-8282,57,0,-11,-1,0
1341906,682,-8282,51,0,-12,-1,0
1341911,694,-8281,67,0,-12,-1,0
1341916,713,-8281,82,0,-13,-1,0
1341921,759,-8281,84,0,-15,-1,0
1341926,812,-8280,94,0,-19,0,0
1341931,865,-8280,98,0,-24,0,0
1341936,902,-8281,100,0,-31,-1,0
1341941,914,-8282,111,0,-37,-1,0
1341946,905,-8283,115,0,-42,-1,0
1341951,867,-8285,126,0,-45,-1,0
1341956,812,-8285,142,0,-47,-1,0
1341961,757,-8286,150,0,-47,0,0
1341966,723,-8287,159,1,-46,0,0
1341971,715,-8288,160,1,-45,0,0
1341976,721,-8288,161,1,-45,0,0
1341981,729,-8288,169,0,-46,0,0
1341986,726,-8285,187,0,-45,0,0
1341991,715,-8284,214,0,-44,-1,0
1341996,686,-8285,251,0,-43,-1,0
1342001,654,-8282,288,0,-42,0,0
1342006,647,-8282,298,0,-41,0,0
1342011,661,-8284,301,0,-42,0,0
1342016,673,-8285,291,0,-42,0,0
1342021,682,-8287,272,0,-39,0,0
1342026,688,-8289,251,0,-34,0,0
1342031,688,-8288,241,0,-27,0,0
1342036,677,-8283,252,0,-21,0,0
1342041,642,-8289,262,0,-13,0,0
1342046,609,-8290,288,-1,-4,0,0
1342051,612,-8287,327,-1,5,0,0
1342056,628,-8286,366,-1,11,1,0
1342061,654,-8286,417,-1,13,1,0
1342066,679,-8285,450,-1,14,0,0
1342071,697,-8287,493,-1,12,0,0
1342076,719,-8286,512,-1,7,0,0
1342081,719,-8288,522,-1,0,0,0
1342086,716,-8285,513,-1,-7,0,0
1342091,704,-8285,455,-1,-12,1,0
1342096,705,-8282,391,-1,-17,0,0
1342101,768,-8281,306,-1,-23,0,0
1342106,844,-8286,239,0,-35,0,0
1342111,889,-8286,206,0,-49,0,0
1342116,913,-8289,157,0,-62,0,0
1342121,879,-8290,144,0,-72,0,0
1342126,817,-8292,148,0,-78,0,0
1342131,703,-8291,165,0,-80,0,0
1342136,561,-8294,187,0,-81,0,0
1342141,439,-8297,193,0,-78,0,0
1342146,289,-8300,214,0,-70,0,0
1342151,179,-8302,218,0,-60,0,0
1342156,99,-8300,216,-1,-47,0,0
1342161,69,-8300,226,-1,-36,0,0
1342166,86,-8299,216,-1,-28,-1,0
1342171,121,-8295,211,-1,-25,-1,0
1342176,182,-8290,196,-1,-25,-1,0
1342181,243,-8288,171,-1,-25,-1,0
1342186,305,-8286,144,-1,-26,-1,0
1342191,370,-8286,91,-1,-26,-1,0
1342196,425,-8287,29,0,-24,-1,0
1342201,479,-8290,-50,0,-23,-1,0
1342206,523,-8292,-126,0,-21,-1,0
1342211,553,-8293,-193,0,-20,-1,0
1342216,559,-8293,-242,0,-20,-1,0
1342221,536,-8293,-248,0,-21,-1,0
1342226,499,-8291,-228,0,-19,-1,0
1342231,459,-8291,-194,0,-18,-1,0
1342236,431,-8291,-146,0,-17,-1,0
1342241,415,-8292,-98,0,-17,-1,0
1342246,411,-8294,-57,0,-19,-1,0
1342251,422,-8300,-17,1,-21,-1,0
1342256,437,-8299,10,1,-24,-1,0
1342261,441,-8298,46,0,-30,-1,0
1342266,426,-8301,89,0,-34,-2,0
1342271,411,-8302,130,0,-38,-2,0
1342276,402,-8302,172,0,-41,-2,0
1342281,406,-8302,196,1,-43,-1,0
1342286,423,-8302,207,1,-44,-1,0
1342291,454,-8296,212,1,-44,-1,0
1342296,490,-8293,206,1,-43,-1,0
1342301,526,-8291,205,0,-42,-2,0
1342306,554,-8290,199,0,-41,-2,0
1342311,566,-8287,193,0,-41,-2,0
1342316,585,-8283,177,0,-40,-2,0
1342321,622,-8280,148,1,-40,-2,0
1342326,654,-8283,123,1,-42,-1,0
1342331,688,-8286,93,1,-44,-1,0
1342336,725,-8287,84,0,-45,-2,0
1342341,734,-8288,101,0,-47,-2,0
1342346,716,-8291,125,0,-47,-2,0
1342351,675,-8297,165,0,-44,-2,0
1342356,614,-8301,201,0,-42,-2,0
1342361,561,-8303,239,0,-38,-2,0
1342366,563,-8303,259,0,-34,-1,0
1342371,566,-8304,284,0,-35,-1,0
1342376,551,-8301,352,0,-40,-2,0
1342381,576,-8305,402,0,-44,-2,0
1342386,570,-8306,468,0,-51,-2,0
1342391,508,-8301,559,0,-58,-2,0
1342396,483,-8297,609,0,-59,-2,0
1342401,462,-8301,616,0,-57,-2,0
1342406,446,-8294,592,0,-56,-2,0
1342411,460,-8290,517,0,-51,-2,0
1342416,498,-8291,404,0,-45,-2,0
1342421,518,-8293,294,-1,-41,-2,0
1342426,525,-8297,208,-1,-36,-2,0
1342431,495,-8301,148,-1,-31,-2,0
1342436,445,-8301,130,-1,-24,-2,0
1342441,401,-8297,145,-1,-13,-2,0
1342446,397,-8294,157,-1,-2,-2,0
1342451,457,-8292,163,-1,1,-2,0
1342456,517,-8289,167,-1,-1,-2,0
1342461,561,-8293,152,-1,-4,-2,0
1342466,592,-8292,143,-1,-6,-2,0
1342471,619,-8295,144,-1,-7,-2,0
1342476,619,-8292,158,-1,-7,-2,0
1342481,631,-8295,171,-1,-9,-2,0
1342486,654,-8292,192,-1,-10,-2,0
1342491,696,-8290,189,-1,-13,-2,0
1342496,774,-8285,158,-1,-15,-2,0
1342501,855,-8282,134,-1,-17,-1,0
1342506,925,-8280,103,-1,-19,-2,0
1342511,961,-8280,110,-1,-20,-2,0
1342516,981,-8277,134,-1,-20,-2,0
1342521,981,-8275,148,-1,-19,-1,0
1342526,962,-8271,166,-1,-19,-1,0
1342531,977,-8282,135,-1,-18,-1,0
1342536,969,-8284,117,0,-17,-1,0
1342541,999,-8284,121,-1,-18,-1,0
1342546,1026,-8290,125,-1,-20,-1,0
1342551,1009,-8284,203,-2,-25,-1,0
1342556,999,-8285,300,-2,-30,-1,0
1342561,949,-8286,424,-2,-35,-1,0
1342566,914,-8283,519,-1,-39,-1,0
1342571,918,-8284,543,-1,-42,0,0
1342576,948,-8283,516,-1,-46,0,0
1342581,995,-8291,424,-1,-50,0,0
1342586,971,-8300,342,-1,-52,0,0
1342591,883,-8305,274,-2,-51,-1,0
1342596,694,-8306,240,-2,-44,-1,0
1342601,467,-8305,287,-2,-29,-1,0
1342606,264,-8304,312,-2,-8,0,0
1342611,180,-8299,303,-2,9,0,0
1342616,228,-8295,244,-1,19,1,0
1342621,353,-8296,111,-1,22,1,0
1342626,542,-8296,-36,-1,18,0,0
1342631,701,-8292,-162,-2,11,-1,0
1342636,790,-8289,-266,-2,2,-1,0
1342641,803,-8287,-322,-2,-4,-1,0
1342646,741,-8287,-303,-2,-6,-1,0
1342651,660,-8287,-252,-1,-7,-1,0
1342656,573,-8288,-202,-1,-9,-1,0
1342661,520,-8288,-169,0,-9,0,0
1342666,516,-8285,-180,0,-7,0,0
1342671,548,-8285,-206,0,-3,0,0
1342676,621,-8286,-220,0,1,-1,0
1342681,678,-8285,-237,-1,3,-1,0
1342686,699,-8281,-233,-1,4,-1,0
1342691,684,-8282,-221,-1,6,-1,0
1342696,644,-8280,-213,0,8,-1,0
1342701,609,-8285,-217,0,9,-1,0
1342706,582,-8286,-241,0,10,-1,0
1342711,576,-8288,-276,0,11,0,0
1342716,592,-8292,-305,0,14,0,0
1342721,625,-8290,-317,0,16,-1,0
1342726,654,-8289,-295,0,18,-1,0
1342731,684,-8283,-259,0,19,-1,0
1342736,703,-8284,-200,0,18,-1,0
1342741,715,-8284,-143,0,16,-1,0
1342746,729,-8281,-94,1,12,-1,0
1342751,738,-8280,-57,1,8,0,0
1342756,741,-8282,-36,1,4,0,0
1342761,738,-8287,-11,1,3,-1,0
1342766,725,-8290,12,0,2,-1,0
1342771,700,-8294,48,0,2,-1,0
1342776,671,-8298,105,0,2,-1,0
1342781,649,-8307,161,0,2,-1,0
1342786,640,-8306,221,0,-2,-1,0
1342791,624,-8320,267,1,-8,-1,0
1342796,591,-8319,291,1,-9,-1,0
1342801,583,-8313,283,0,-9,-1,0
1342806,600,-8315,266,0,-8,-1,0
1342811,629,-8311,244,0,-7,-1,0
1342816,667,-8307,215,0,-7,-1,0
1342821,697,-8306,191,0,-8,-1,0
1342826,720,-8301,168,0,-10,-1,0
1342831,737,-8299,158,0,-11,-1,0
1342836,741,-8300,168,0,-12,-1,0
1342841,733,-8299,216,0,-13,-1,0
1342846,723,-8300,297,0,-10,-1,0
1342851,725,-8299,383,0,-3,-1,0
1342856,750,-8292,439,-1,2,-1,0
1342861,805,-8292,433,0,1,-1,0
1342866,852,-8295,384,0,0,0,0
1342871,883,-8290,322,0,-1,0,0
1342876,925,-8293,265,0,-1,0,0
1342881,916,-8300,242,-1,0,0,0
1342886,893,-8297,238,-1,-2,-1,0
1342891,876,-8297,253,-1,-1,0,0
1342896,804,-8294,289,-1,0,0,0
1342901,790,-8290,285,-1,1,0,0
1342906,799,-8292,259,0,2,0,0
1342911,802,-8292,216,0,0,0,0
1342916,791,-8283,161,-1,0,0,0
1342921,803,-8283,118,-1,0,0,0
1342926,773,-8284,90,-1,-1,0,0
1342931,682,-8285,116,-1,1,0,0
1342936,625,-8284,166,-1,6,0,0
1342941,566,-8286,184,-1,11,0,0
1342946,552,-8287,186,-1,14,0,0
1342951,575,-8289,148,0,16,0,0
1342956,621,-8290,77,0,16,0,0
1342961,690,-8290,12,-1,12,0,0
1342966,712,-8291,-38,-1,9,0,0
1342971,717,-8289,-61,-1,5,-1,0
1342976,688,-8286,-41,-1,3,-1,0
1342981,645,-8285,-9,-1,1,0,0
1342986,612,-8283,25,0,0,0,0
1342991,583,-8284,48,0,0,0,0
1342996,588,-8283,56,0,0,0,0
1343001,590,-8287,49,0,1,0,0
1343006,603,-8288,49,0,2,-1,0
1343011,597,-8288,47,0,3,-1,0
1343016,572,-8287,68,-1,4,-1,0
1343021,548,-8289,98,0,6,-1,0
1343026,522,-8289,116,0,7,-1,0
1343031,513,-8292,135,0,7,-1,0
1343036,516,-8293,144,0,5,-1,0
1343041,530,-8294,140,0,4,-1,0
1343046,550,-8293,141,0,3,-1,0
1343050,564,-8292,146,-1,3,-1,0
1343056,568,-8291,160,-1,3,-1,0
1343060,553,-8291,180,-1,3,-1,0
1343066,543,-8290,193,0,4,-1,0
1343071,530,-8291,208,0,4,-1,0
1343076,530,-8292,214,0,4,-1,0
1343081,541,-8290,209,-1,3,-1,0
1343086,552,-8286,201,-1,3,-1,0
1343091,570,-8285,203,-1,3,-1,0
1343096,578,-8284,210,-1,3,-1,0
1343101,583,-8285,217,-1,3,-1,0
1343106,576,-8288,230,-1,4,-1,0
1343111,564,-8289,243,-1,4,-1,0
1343116,555,-8286,247,-1,4,-1,0
1343121,551,-8285,243,-1,5,-1,0
1343126,552,-8286,239,-1,6,-1,0
1343130,557,-8287,233,-1,7,-1,0
1343136,570,-8288,237,-1,7,-1,0
1343141,582,-8290,241,-1,8,-1,0
1343145,592,-8289,244,-1,8,-2,0
1343150,602,-8290,247,-1,8,-2,0
1343155,618,-8291,242,-1,8,-1,0
1343160,632,-8292,226,-1,8,-2,0
1343166,650,-8291,212,-1,8,-1,0
1343171,671,-8289,188,-1,8,-1,0
1343176,686,-8287,166,-1,8,-1,0
1343180,710,-8287,150,-1,7,-1,0
1343186,728,-8286,134,-1,7,-1,0
1343191,738,-8283,120,-1,6,-1,0
1343195,748,-8282,105,-1,6,-1,0
1343201,750,-8283,89,-1,8,-1,0
1343206,750,-8284,65,-1,9,-1,0
1343211,758,-8283,45,-1,10,-1,0
1343216,768,-8287,35,-1,10,-1,0
1343221,778,-8290,34,-1,10,-1,0
1343225,791,-8288,40,-1,9,-1,0
1343231,801,-8289,47,-1,8,-1,0
1343235,813,-8289,54,-1,8,-1,0
1343240,826,-8289,59,-1,7,-1,0
1343245,831,-8290,51,-1,6,-1,0
1343250,833,-8290,42,-1,5,-1,0
1343256,830,-8291,35,-1,3,-1,0
1343260,819,-8291,37,-1,3,-1,0
1343265,811,-8290,48,-1,3,-1,0
1343271,804,-8291,61,-1,3,-1,0
1343275,796,-8288,72,-1,3,-1,0
1343281,797,-8285,87,-1,3,-1,0
1343285,801,-8285,95,0,3,-1,0
1343290,803,-8284,98,0,2,-1,0
1343296,805,-8286,100,-1,1,-1,0
1343301,800,-8286,105,-1,1,-1,0
1343306,789,-8285,99,-1,0,-1,0
1343311,779,-8284,104,-1,0,-1,0
1343315,771,-8284,109,-1,1,-1,0
1343321,768,-8283,107,-1,1,-1,0
1343325,770,-8285,104,-1,1,-1,0
1343330,774,-8285,94,-1,2,-1,0
1343335,776,-8286,81,-1,2,-1,0
1343340,780,-8285,83,-1,2,-1,0
1343345,783,-8282,78,-1,3,-1,0
1343351,782,-8283,80,-1,3,-1,0
1343356,784,-8283,84,-1,3,-1,0
1343360,779,-8282,86,-1,3,-1,0
1343365,772,-8279,86,-1,3,-1,0
1343370,764,-8277,91,-1,4,-1,0
1343375,757,-8277,96,-1,4,-1,0
1343380,754,-8276,101,-1,4,-1,0
1343385,749,-8277,108,-1,4,-1,0
1343390,745,-8278,113,-1,3,-1,0
1343395,742,-8276,118,-1,3,-1,0
1343400,740,-8279,128,0,2,-1,0
1343406,737,-8281,130,-1,2,-1,0
1343410,737,-8280,132,-1,2,-1,0
1343416,738,-8279,130,-1,2,-1,0
1343420,736,-8278,124,-1,2,-1,0
1343426,734,-8278,116,-1,2,-1,0
1343431,731,-8280,105,-1,2,-1,0
1343436,726,-8284,94,-1,2,-1,0
1343440,726,-8287,93,-1,2,-1,0
1343446,727,-8289,93,-1,2,-1,0
1343450,729,-8292,97,-1,1,-1,0
1343455,736,-8294,95,0,1,-1,0
1343461,741,-8295,94,0,2,-1,0
1343466,741,-8295,92,0,2,0,0
1343470,749,-8293,89,0,2,-1,0
1343475,751,-8289,88,0,2,-1,0
1343480,750,-8288,87,0,1,-1,0
1343485,752,-8288,87,0,1,0,0
1343490,752,-8289,84,0,1,0,0
1343495,753,-8290,83,0,1,0,0
1343500,761,-8290,84,0,1,0,0
1343505,767,-8289,81,0,1,0,0
1343510,770,-8288,84,0,1,0,0
1343515,767,-8286,87,0,1,0,0
1343520,759,-8286,94,0,0,0,0
1343525,743,-8287,108,0,0,0,0
1343530,730,-8290,121,0,0,0,0
1343535,717,-8292,130,0,0,0,0
1343540,712,-8292,136,0,0,0,0
1343545,710,-8290,135,0,0,0,0
1343550,707,-8287,134,0,-1,0,0
1343555,706,-8287,132,0,-1,0,0
1343560,706,-8288,132,0,0,0,0
1343565,705,-8289,129,0,0,-1,0
1343570,702,-8291,128,0,0,0,0
1343575,702,-8291,120,0,0,-1,0
1343580,700,-8290,118,0,0,0,0
1343585,702,-8290,118,0,0,0,0
1343590,704,-8286,115,0,0,0,0
1343595,705,-8286,107,0,0,0,0
1343600,706,-8287,103,0,0,0,0
1343605,707,-8285,99,0,0,-1,0
1343610,705,-8283,102,0,0,0,0
1343615,703,-8281,105,0,0,0,0
1343620,699,-8280,105,0,0,0,0
1343625,697,-8279,108,0,0,0,0
1343630,695,-8281,113,0,1,0,0
1343635,693,-8279,117,0,1,0,0
1343640,693,-8280,122,0,1,-1,0
1343645,689,-8283,130,0,1,-1,0
1343650,679,-8286,144,0,0,-1,0
1343655,667,-8286,152,-1,0,-1,0
1343660,660,-8287,163,0,0,-1,0
1343665,656,-8289,168,0,0,0,0
1343670,659,-8289,171,0,0,-1,0
1343675,658,-8288,174,-1,0,-1,0
1343680,658,-8289,177,-1,0,-1,0
1343685,661,-8287,174,-1,1,-1,0
1343690,659,-8288,173,-1,1,-1,0
1343695,655,-8291,170,-1,2,-1,0
1343700,655,-8290,166,-1,2,-1,0
1343705,658,-8290,164,-1,2,-1,0
1343710,663,-8289,161,-1,3,-1,0
1343715,668,-8287,154,-1,2,-1,0
1343720,674,-8287,149,-1,2,-1,0
1343725,681,-8287,144,-1,2,-1,0
1343730,688,-8290,142,-1,2,-1,0
1343735,695,-8290,143,-1,2,-1,0
1343740,698,-8288,141,-1,2,-1,0
1343745,701,-8285,139,-1,1,-1,0
1343750,702,-8285,136,-1,1,-1,0
1343755,702,-8286,131,-1,1,-1,0
1343760,704,-8286,129,-1,1,-1,0
1343765,707,-8286,122,-1,1,-1,0
1343770,711,-8282,118,-1,1,-1,0
1343775,716,-8279,116,-1,1,-1,0
1343780,718,-8280,117,-1,1,-1,0
1343785,719,-8282,113,-1,1,-1,0
1343790,719,-8285,108,-1,1,-1,0
1343795,720,-8284,107,-1,1,-1,0
1343800,719,-8282,110,-1,0,-1,0
1343805,715,-8280,113,-1,0,-1,0
1343810,710,-8280,117,-1,0,-1,0
1343815,706,-8280,120,-1,1,-1,0
1343820,701,-8281,120,-1,1,-1,0
1343825,698,-8282,118,-1,1,-1,0
1343830,699,-8287,119,-1,1,-1,0
1343835,704,-8290,120,-1,1,-1,0
1343840,704,-8288,117,-1,0,-1,0
1343845,707,-8290,111,-1,0,-1,0
1343850,710,-8290,110,-1,0,-1,0
1343855,713,-8289,113,-1,0,-1,0
1343860,718,-8288,117,-1,0,-1,0
1343865,723,-8287,120,-1,0,-1,0
1343870,723,-8288,118,-1,0,-1,0
1343875,725,-8288,118,-1,0,-1,0
1343880,727,-8287,114,-1,0,-1,0
1343885,729,-8287,110,-1,-1,-1,0
1343890,728,-8286,110,-1,0,-1,0
1343895,725,-8286,105,-1,0,-1,0
1343900,724,-8285,107,-1,0,-1,0
1343905,727,-8284,112,-1,0,-1,0
1343910,727,-8284,113,-1,0,-1,0
1343915,724,-8284,115,-1,0,-1,0
1343920,720,-8287,117,-1,0,-1,0
1343925,721,-8285,115,-1,0,-1,0
1343930,719,-8284,109,-1,0,-1,0
1343935,722,-8284,109,-1,0,-1,0
1343940,722,-8286,106,-1,0,-1,0
1343945,723,-8287,106,-1,0,-1,0
1343950,724,-8289,111,-1,0,-1,0
1343955,722,-8291,113,-1,0,-1,0
1343960,722,-8292,114,-1,0,-1,0
1343965,719,-8291,115,-1,0,-1,0
1343970,716,-8290,115,-1,0,-1,0
1343975,717,-8291,112,-1,0,-1,0
1343980,721,-8291,108,-1,0,-1,0
1343985,725,-8292,104,-1,0,-1,0
1343990,726,-8290,96,-1,0,-1,0
1343995,728,-8289,96,-1,0,-1,0
1344000,729,-8286,98,-1,0,-1,0
1344005,729,-8286,100,-1,0,-1,0
1344010,728,-8287,104,-1,1,-1,0
1344015,730,-8287,111,-1,1,-1,0
1344020,736,-8285,110,-1,1,-1,0
1344025,740,-8285,107,-1,1,-1,0
1344030,741,-8286,103,-1,1,-1,0
1344035,744,-8284,105,-1,1,-1,0
1344040,744,-8285,108,-1,1,-1,0
1344045,741,-8283,112,-1,0,-1,0
1344050,741,-8282,119,-1,1,-1,0
1344055,738,-8284,125,-1,1,-1,0
1344060,735,-8284,125,-1,1,-1,0
1344065,734,-8284,124,-1,1,-1,0
1344070,730,-8284,123,-1,1,-1,0
1344075,729,-8283,120,-1,1,-1,0
1344080,724,-8284,117,-1,2,-1,0
1344085,723,-8283,115,-1,2,-1,0
1344090,725,-8282,116,-1,2,-1,0
1344095,726,-8281,114,-1,2,-1,0
1344100,729,-8280,109,-1,2,-1,0
1344105,735,-8280,109,-1,2,-1,0
1344110,741,-8279,104,-1,2,-1,0
1344115,743,-8281,101,-1,1,-1,0
1344120,745,-8286,101,-1,1,-1,0
1344125,749,-8289,102,-1,1,-1,0
1344130,747,-8291,105,-1,1,-1,0
1344135,748,-8292,104,-1,1,-1,0
1344140,749,-8295,97,-1,1,-1,0
1344145,751,-8295,90,-1,1,-1,0
1344150,755,-8295,86,-1,1,-1,0
1344155,758,-8290,86,-1,1,-1,0
1344160,757,-8288,83,-1,1,-1,0
1344165,758,-8287,83,-1,1,-1,0
1344170,758,-8287,85,-1,1,-1,0
1344175,761,-8288,88,-1,0,-1,0
1344180,764,-8286,88,-1,1,-1,0
1344185,765,-8285,88,-1,1,-1,0
1344190,760,-8283,84,-1,1,-1,0
1344195,756,-8283,81,-1,1,-1,0
1344200,749,-8283,85,-1,1,-1,0
1344205,748,-8282,91,-1,2,-1,0
1344210,744,-8285,101,-1,2,-1,0
1344215,742,-8281,111,-1,2,-1,0
1344220,739,-8281,119,-1,1,-1,0
1344225,737,-8280,129,-1,1,-1,0
1344230,738,-8278,131,-1,1,-1,0
1344235,738,-8279,131,-1,1,-1,0
1344240,743,-8282,135,-1,1,-1,0
1344245,744,-8282,132,-1,1,-1,0
1344250,748,-8282,126,-1,1,-1,0
1344255,753,-8281,118,-1,1,-1,0
1344260,755,-8282,113,-1,1,-1,0
1344265,757,-8283,115,-1,1,-1,0
1344270,756,-8285,123,-1,1,-1,0
1344275,758,-8284,127,-1,1,-1,0
1344280,760,-8281,129,-1,2,-1,0
1344285,760,-8282,123,-1,1,-1,0
1344290,757,-8284,122,-1,1,-1,0
1344295,753,-8283,122,-1,2,-1,0
1344300,750,-8284,124,-1,2,-1,0
1344305,747,-8282,129,-1,2,-1,0
1344310,743,-8281,133,-1,2,-1,0
1344315,746,-8279,137,-1,2,-1,0
1344320,750,-8282,131,-1,2,-1,0
1344325,755,-8284,130,-1,2,-1,0
1344330,759,-8281,128,-1,2,-1,0
1344335,764,-8281,122,-1,2,-1,0
1344340,768,-8282,116,-1,3,-1,0
1344345,772,-8281,114,-1,3,-1,0
1344350,776,-8279,115,-1,3,-1,0
1344355,779,-8280,114,-1,3,-1,0
1344360,784,-8277,113,-1,2,-1,0
1344365,791,-8276,115,-1,2,-1,0
1344370,797,-8275,114,-1,2,-1,0
1344375,803,-8274,108,-1,2,-1,0
1344380,807,-8275,103,-1,2,-1,0
1344385,809,-8279,95,-1,2,-1,0
1344390,810,-8282,90,-1,2,-1,0
1344395,814,-8285,87,-1,2,-1,0
1344400,820,-8283,87,-1,2,-1,0
1344405,827,-8283,78,-1,2,-1,0
1344410,832,-8284,70,-1,2,-1,0
1344415,837,-8283,58,-1,2,-1,0
1344420,840,-8283,47,-1,2,-1,0
1344425,842,-8284,36,-1,2,-1,0
1344430,843,-8283,29,-1,2,-1,0
1344435,840,-8281,27,-1,2,-1,0
1344440,837,-8282,28,-1,2,-1,0
1344445,836,-8283,29,-1,2,-1,0
1344450,833,-8283,33,-1,1,-1,0
1344455,833,-8282,43,-1,1,-1,0
1344460,827,-8280,53,-1,0,-1,0
1344465,819,-8282,56,-1,0,-1,0
1344470,811,-8280,52,-1,0,-1,0
1344475,801,-8279,47,-1,1,-1,0
1344480,793,-8276,43,-1,1,-1,0
1344485,787,-8274,31,-1,2,-1,0
1344490,784,-8273,22,-1,2,-1,0
1344495,783,-8272,13,-1,2,-1,0
1344500,786,-8273,8,-1,2,-1,0
1344505,789,-8276,6,-1,1,0,0
1344510,791,-8277,9,-1,1,0,0
1344515,793,-8277,19,0,1,-1,0
1344520,794,-8279,25,0,0,-1,0
1344525,792,-8284,28,0,0,-1,0
1344530,787,-8284,29,0,0,0,0
1344535,779,-8286,31,0,0,-1,0
1344540,776,-8288,34,0,0,-1,0
1344545,773,-8288,35,0,0,0,0
1344550,772,-8287,39,0,0,-1,0
1344555,772,-8288,42,0,0,-1,0
1344560,773,-8287,55,0,-1,-1,0
1344565,775,-8287,65,0,0,0,0
1344570,776,-8286,66,0,0,-1,0
1344575,776,-8286,69,0,0,-1,0
1344580,772,-8287,66,0,0,-1,0
1344585,768,-8289,63,0,0,0,0
1344590,767,-8291,53,0,0,-1,0
1344595,765,-8293,51,0,0,-1,0
1344600,764,-8292,50,0,0,-1,0
1344605,766,-8291,52,0,1,-1,0
1344610,766,-8289,50,0,1,-1,0
1344615,767,-8285,54,0,1,-1,0
1344620,766,-8283,56,0,1,-1,0
1344625,767,-8282,57,0,1,-1,0
1344630,767,-8283,56,0,0,-1,0
1344635,768,-8282,51,0,0,-1,0
1344640,770,-8279,46,0,0,-1,0
1344645,775,-8279,40,0,0,-1,0
1344650,781,-8278,36,0,0,-1,0
1344655,785,-8282,33,0,0,-1,0
1344660,788,-8284,37,0,0,0,0
1344665,788,-8284,39,0,0,-1,0
1344670,791,-8286,40,0,0,-1,0
1344675,794,-8288,40,0,0,0,0
1344680,796,-8287,34,0,0,0,0
1344685,797,-8288,26,0,0,0,0
1344690,796,-8290,29,0,0,-1,0
1344695,796,-8293,34,0,0,0,0
1344700,793,-8294,36,0,0,-1,0
1344705,792,-8291,44,0,0,0,0
1344710,794,-8291,52,0,0,0,0
1344715,793,-8290,57,0,0,0,0
1344720,792,-8293,69,0,0,0,0
1344725,789,-8294,80,0,0,0,0
1344730,781,-8294,89,0,-1,0,0
1344735,772,-8290,102,0,-1,-1,0
1344740,762,-8292,114,0,-1,0,0
1344745,754,-8293,124,0,0,0,0
1344750,752,-8291,131,0,0,-1,0
1344755,751,-8289,131,0,0,-1,0
1344760,752,-8288,124,0,0,0,0
1344765,759,-8285,121,0,0,-1,0
1344770,765,-8281,113,0,0,-1,0
1344775,768,-8282,105,0,0,-1,0
1344780,772,-8286,103,0,0,-1,0
1344785,771,-8288,99,0,0,-1,0
1344790,770,-8287,94,0,0,-1,0
1344795,771,-8288,103,0,0,-1,0
1344800,772,-8289,107,0,0,-1,0
1344805,772,-8287,112,0,-1,-1,0
1344810,773,-8288,116,0,-1,-1,0
1344815,769,-8290,117,0,-1,0,0
1344820,769,-8289,117,0,-1,0,0
1344825,767,-8290,118,0,0,-1,0
1344830,767,-8288,115,0,0,-1,0
1344835,767,-8288,118,0,0,-1,0
1344840,766,-8287,124,0,0,-1,0
1344845,769,-8287,125,0,0,-1,0
1344850,768,-8286,126,0,0,-1,0
1344855,768,-8285,129,0,0,-1,0
1344860,769,-8287,124,0,0,-1,0
1344865,769,-8286,120,0,0,-1,0
1344870,771,-8282,119,0,0,0,0
1344875,768,-8284,120,0,1,-1,0
1344880,766,-8285,121,0,1,-1,0
1344885,765,-8288,121,0,1,-1,0
1344890,761,-8288,127,-1,1,-1,0
1344895,758,-8288,131,-1,0,0,0
1344900,757,-8287,135,-1,0,-1,0
1344905,760,-8286,137,-1,0,-1,0
1344910,763,-8286,133,-1,0,-1,0
1344915,766,-8286,127,-1,0,-1,0
1344920,769,-8284,130,-1,0,-1,0
1344925,768,-8283,126,-1,0,-1,0
1344930,769,-8285,118,-1,0,-1,0
1344935,769,-8285,113,-1,0,-1,0
1344940,767,-8286,116,-1,0,-1,0
1344945,768,-8287,120,-1,0,-1,0
1344950,763,-8286,119,-1,1,-1,0
1344955,761,-8287,119,-1,1,-1,0
1344960,760,-8287,118,-1,1,-1,0
1344965,757,-8289,120,-1,2,-1,0
1344970,759,-8288,126,-1,2,-1,0
1344975,761,-8289,125,-1,3,-1,0
1344980,761,-8288,129,-1,3,-1,0
1344985,762,-8289,130,-1,3,-1,0
1344990,762,-8290,132,-1,3,-1,0
1344995,766,-8289,127,-1,3,-1,0
1345000,772,-8289,113,-1,3,-1,0
1345005,779,-8288,107,-1,3,-1,0
1345010,785,-8285,104,-1,3,-1,0
1345015,787,-8286,98,-1,3,-1,0
1345020,788,-8286,96,-1,3,-1,0
1345025,787,-8285,100,-1,3,-1,0
1345030,785,-8286,106,-1,3,-1,0
1345035,780,-8286,112,-1,3,-1,0
1345040,778,-8287,114,-1,3,-1,0
1345045,776,-8287,115,-1,3,-1,0
1345050,778,-8288,114,-1,3,-1,0
1345055,776,-8285,106,-1,3,-1,0
1345060,778,-8285,103,-1,3,-1,0
1345065,781,-8286,101,-1,3,-1,0
1345070,781,-8286,97,-1,3,-1,0
1345075,784,-8284,99,-1,3,-1,0
1345080,785,-8285,102,-1,3,-1,0
1345085,784,-8285,106,-1,3,-1,0
1345090,781,-8285,113,-1,3,-1,0
1345095,779,-8284,115,-1,3,-1,0
1345100,777,-8283,111,-1,3,-1,0
1345105,776,-8285,105,-1,3,-1,0
1345110,776,-8285,103,-1,3,-1,0
1345115,775,-8288,101,-1,3,-1,0
1345120,778,-8288,100,-1,3,-1,0
1345125,780,-8291,95,-1,3,-1,0
1345130,783,-8287,91,-1,3,-1,0
1345135,784,-8286,92,-1,3,-1,0
1345140,786,-8284,90,-1,3,-1,0
1345145,788,-8284,87,-1,3,-1,0
1345150,793,-8285,84,-1,3,-1,0
1345155,797,-8284,87,-1,3,-1,0
1345160,802,-8283,88,-1,2,-1,0
1345165,808,-8280,90,-1,2,-1,0
1345170,813,-8278,89,-1,2,-1,0
1345175,818,-8276,88,-1,2,-1,0
1345180,819,-8276,83,-1,2,-1,0
1345185,819,-8275,82,-1,2,-1,0
1345190,816,-8278,80,-1,2,-1,0
1345195,813,-8279,83,-1,1,-1,0
1345200,811,-8278,82,-1,1,-1,0
1345205,809,-8276,85,-1,1,-1,0
1345210,810,-8277,87,-1,1,-1,0
1345215,814,-8276,85,-1,1,-1,0
1345220,818,-8277,79,-1,0,-1,0
1345225,819,-8278,80,-1,0,-1,0
1345230,817,-8280,82,-1,0,-1,0
1345235,814,-8280,79,-1,0,-1,0
1345240,812,-8283,80,-1,0,-1,0
1345245,813,-8284,83,-1,0,-1,0
1345250,818,-8285,85,-1,0,-1,5
1345255,823,-8286,80,-1,0,-1,5
1345260,826,-8287,77,-1,0,-1,5
1345265,830,-8286,74,-1,0,-1,5
1345270,829,-8284,77,-1,0,-1,5
1345275,824,-8283,78,-1,1,-1,5
1345280,816,-8284,80,-1,1,-1,5
1345285,810,-8284,88,-1,1,-1,5
1345290,803,-8283,97,-1,1,0,5
1345295,803,-8285,98,-1,0,-1,5
1345300,805,-8285,100,-1,0,0,5
1345305,806,-8286,99,-1,0,-1,5
1345310,808,-8288,99,-1,0,-1,5
1345315,804,-8292,96,-1,1,-1,5
1345320,800,-8291,95,-1,1,-1,5
1345325,799,-8292,88,-1,1,-1,5
1345330,799,-8290,82,-1,1,-1,5
1345335,798,-8289,73,-1,1,-1,5
1345340,799,-8289,73,-1,1,-1,5
1345345,796,-8287,74,-1,1,-1,5
1345350,795,-8287,72,-1,1,0,5
1345355,799,-8287,75,-1,1,0,5
1345360,797,-8285,77,-1,1,-1,5
1345365,799,-8286,77,-1,1,-1,5
1345370,798,-8284,80,-1,0,0,5
1345375,795,-8283,85,-1,0,-1,5
1345380,789,-8285,86,-1,0,-1,5
1345385,786,-8286,82,-1,0,0,5
1345390,785,-8287,80,-1,1,0,5
1345395,789,-8286,76,-1,1,-1,5
1345400,790,-8287,76,-1,1,-1,5
1345405,792,-8286,77,-1,1,0,5
1345410,793,-8285,77,-1,1,-1,5
1345415,794,-8286,74,-1,1,-1,5
1345420,794,-8283,71,-1,1,-1,5
1345425,794,-8278,71,-1,0,-1,5
1345430,794,-8277,70,-1,0,-1,5
1345435,792,-8279,69,-1,1,0,5
1345440,790,-8279,73,-1,1,-1,5
1345445,791,-8277,75,-1,1,-1,5
1345450,790,-8280,79,-1,1,-1,5
1345455,789,-8280,80,-1,1,-1,5
1345460,784,-8282,79,-1,1,0,5
1345465,783,-8282,82,-1,1,-1,5
1345470,785,-8284,89,-1,1,-1,5
1345475,784,-8284,93,-1,1,0,5
1345480,783,-8281,97,-1,1,-1,5
1345485,785,-8278,96,-1,1,-1,5
1345490,790,-8277,95,-1,1,-1,5
1345495,792,-8278,88,-1,1,-1,5
1345500,790,-8278,80,-1,1,-1,5
1345505,790,-8280,76,-1,1,-1,5
1345510,792,-8282,76,-1,1,-1,5
1345515,797,-8280,72,-1,1,-1,5
1345520,801,-8282,72,-1,1,0,5
1345525,806,-8280,67,-1,1,0,5
1345530,811,-8279,63,-1,1,-1,5
1345535,815,-8279,57,-1,1,-1,5
1345540,817,-8279,51,-1,2,-1,5
1345545,821,-8278,42,-1,2,0,5
1345550,827,-8277,44,-1,1,-1,5
1345555,832,-8276,41,-1,1,0,5
1345560,833,-8277,44,-1,1,0,5
1345565,839,-8278,43,-1,1,0,5
1345570,842,-8279,41,-1,1,0,5
1345575,847,-8278,39,-1,1,0,5
1345580,850,-8278,35,-1,1,0,5
1345585,852,-8277,28,-1,1,0,5
1345590,856,-8278,21,-1,1,0,5
1345595,859,-8276,18,-1,1,0,5
1345600,857,-8276,20,-1,1,0,5
1345605,858,-8278,25,-1,0,0,5
1345610,857,-8278,34,-1,0,0,5
1345615,853,-8281,42,-1,0,0,5
1345620,850,-8283,47,-1,0,0,5
1345625,848,-8288,49,0,0,0,5
1345630,849,-8292,44,0,0,0,5
1345635,852,-8291,30,0,-1,0,5
1345640,852,-8291,14,0,-1,0,5
1345645,851,-8291,8,0,0,0,5
1345650,851,-8291,1,0,0,0,5
1345655,852,-8288,0,0,0,0,5
1345660,853,-8288,5,0,0,0,5
1345665,850,-8284,11,0,-1,0,5
1345670,848,-8286,15,0,-1,0,5
1345675,845,-8286,20,0,-1,0,5
1345680,838,-8287,25,0,-1,0,5
1345685,832,-8286,29,0,-1,0,5
1345690,827,-8286,30,0,-1,0,5
1345695,820,-8288,32,0,-1,0,5
1345700,816,-8288,33,0,-1,0,5
1345705,812,-8286,28,0,-1,0,5
1345710,812,-8285,28,0,-1,0,5
1345715,815,-8282,33,0,-1,0,5
1345720,816,-8282,30,0,-1,0,5
1345725,818,-8281,30,0,-1,0,5
1345730,819,-8282,26,0,-1,0,5
1345735,818,-8283,26,0,-1,0,5
1345740,816,-8282,19,0,0,0,5
1345745,815,-8284,21,0,0,0,5
1345750,816,-8287,24,0,0,0,5
1345755,814,-8291,31,0,-1,0,5
1345760,812,-8293,36,0,-1,0,5
1345765,811,-8294,40,0,-1,0,5
1345770,811,-8293,43,0,-1,0,5
1345775,811,-8292,43,0,-1,0,5
1345780,810,-8291,42,0,-1,0,5
1345785,812,-8290,42,0,-1,0,5
1345790,813,-8289,45,0,-1,0,5
1345795,813,-8289,39,0,0,0,5
1345800,814,-8286,40,0,0,0,5
1345805,817,-8285,51,0,0,0,5
1345810,819,-8285,49,0,-1,0,5
1345815,821,-8284,49,0,-1,0,5
1345820,821,-8282,52,0,-1,0,5
1345825,816,-8282,54,0,-1,0,5
1345830,810,-8281,57,0,-1,0,5
1345835,804,-8279,56,0,-1,0,5
1345840,797,-8277,53,0,-1,0,5
1345845,791,-8281,51,0,-1,0,5
1345850,784,-8279,53,0,-1,0,5
1345855,779,-8279,55,0,-1,0,5
1345860,773,-8281,58,0,-1,0,5
1345865,769,-8282,66,0,-1,0,5
1345870,767,-8283,71,0,-1,0,5
1345875,762,-8287,77,0,-1,0,5
1345880,760,-8291,78,0,-1,0,5
1345885,757,-8293,79,0,-1,0,5
1345890,750,-8293,75,0,-1,0,5
1345895,748,-8293,75,0,-1,0,5
1345900,745,-8292,77,0,-1,0,5
1345905,744,-8291,74,0,-1,0,5
1345910,744,-8290,74,0,-1,0,5
1345915,742,-8287,75,0,-1,0,5
1345920,744,-8287,77,0,-1,0,5
1345925,743,-8286,80,0,-1,0,5
1345930,744,-8284,82,0,-1,0,5
1345935,742,-8284,80,0,-1,0,5
1345940,739,-8282,75,0,-1,0,5
1345945,738,-8284,74,0,-1,0,5
1345950,734,-8287,77,0,-1,0,5
1345955,728,-8288,79,0,-1,0,5
1345960,723,-8289,85,0,-1,0,5
1345965,714,-8290,90,0,-1,0,5
1345970,708,-8289,93,0,0,0,5
1345975,708,-8288,96,0,0,0,5
1345980,707,-8287,102,0,0,0,5
1345985,706,-8288,102,0,0,0,5
1345990,703,-8288,101,0,0,0,5
1345995,702,-8287,102,0,0,0,5
1346000,698,-8286,108,0,0,0,5
1346005,694,-8284,112,0,0,0,5
1346010,694,-8283,110,0,0,0,5
1346015,694,-8285,111,0,0,0,5
1346020,695,-8287,111,0,0,0,5
1346025,698,-8288,107,0,0,0,5
1346030,699,-8288,103,0,0,0,5
1346035,702,-8289,100,0,0,0,5
1346040,706,-8289,95,0,0,-1,5
1346044,711,-8287,92,0,0,-1,5
1346050,717,-8290,88,0,0,-1,5
1346055,720,-8290,90,0,0,-1,5
1346060,721,-8291,92,0,1,-1,5
1346065,720,-8290,99,0,1,-1,5
1346070,723,-8290,105,0,1,-1,5
1346075,724,-8291,105,0,1,-1,5
1346080,726,-8289,105,0,0,-1,5
1346085,728,-8289,99,0,0,-1,5
1346090,729,-8289,91,0,1,-1,5
1346095,728,-8288,86,0,1,-1,5
1346100,730,-8289,82,-1,1,-1,5
1346105,733,-8289,80,-1,1,-1,5
1346110,735,-8288,84,0,0,-1,5
1346115,732,-8287,90,0,0,-1,5
1346120,727,-8291,100,-1,0,-1,5
1346125,722,-8291,112,-1,0,-1,5
1346129,718,-8292,122,-1,0,-1,5
1346134,717,-8292,131,-1,0,-1,5
1346140,715,-8290,132,-1,-1,-1,5
1346144,714,-8289,128,-1,-1,-1,5
1346150,719,-8288,129,-1,-1,-1,5
1346155,729,-8286,128,-1,-2,-1,5
1346159,746,-8286,147,-1,-4,-1,5
1346164,775,-8287,191,-1,-9,-1,5
1346169,819,-8285,266,-1,-18,-1,5
1346175,888,-8281,360,-1,-32,-1,5
1346179,983,-8280,457,-1,-51,-1,5
1346185,1108,-8279,523,0,-74,-1,5
1346190,1262,-8274,544,0,-98,-1,5
1346194,1439,-8269,510,1,-124,-1,5
1346199,1637,-8264,434,2,-151,-1,5
1346205,1847,-8261,340,2,-182,-1,5
1346209,2056,-8256,229,3,-217,-1,5
1346215,2267,-8251,105,3,-255,-1,5
1346220,2511,-8241,-33,5,-296,-1,5
1346224,2827,-8227,-205,6,-343,0,5
1346230,3230,-8205,-439,9,-398,1,5
1346234,3627,-8190,-693,11,-459,2,5
1346240,3922,-8181,-906,14,-520,2,5
1346244,4172,-8175,-1161,16,-579,3,5
1346250,4353,-8170,-1439,18,-633,3,5
1346254,4402,-8162,-1718,20,-678,3,5
1346260,4402,-8158,-1959,22,-710,4,5
1346264,4348,-8152,-2126,23,-723,4,5
1346269,4272,-8149,-2232,24,-719,4,5
1346275,4190,-8140,-2271,25,-700,4,5
1346279,4125,-8135,-2225,26,-672,5,5
1346284,4090,-8126,-2120,26,-638,5,5
1346290,4099,-8110,-1988,26,-606,6,5
1346294,4192,-8096,-1768,27,-580,5,5
1346300,4384,-8080,-1494,27,-561,4,5
1346304,4674,-8068,-1194,27,-554,3,5
1346309,4995,-8063,-820,27,-558,3,5
1346314,5228,-8063,-387,27,-566,3,5
1346319,5358,-8059,39,26,-579,2,5
1346324,5261,-8067,458,25,-594,1,5
1346329,5040,-8072,922,24,-606,0,5
1346334,4717,-8070,1289,23,-603,-1,5
1346339,4159,-8059,1896,24,-585,-3,5
1346344,3588,-8040,2331,24,-556,-4,5
1346349,2981,-8028,2848,26,-518,-5,5
1346354,2382,-8039,3291,27,-486,-5,5
1346359,1968,-8058,3383,27,-462,-5,5
1346364,1700,-8092,3453,26,-438,-4,5
1346369,1582,-8126,3411,23,-409,-4,5
1346374,1529,-8152,3381,20,-375,-5,5
1346379,1520,-8167,3502,17,-334,-5,5
1346384,1536,-8170,3650,14,-286,-6,5
1346389,1480,-8175,3880,12,-233,-7,5
1346394,1414,-8181,4238,10,-182,-7,5
1346399,1353,-8190,4595,8,-131,-7,5
1346404,1276,-8204,4931,7,-81,-6,5
1346409,1293,-8221,5169,5,-38,-5,5
1346414,1367,-8234,5301,2,1,-4,5
1346419,1488,-8250,5394,-1,34,-3,5
1346424,1599,-8257,5438,-3,68,-2,5
1346429,1689,-8257,5474,-6,102,-2,5
1346434,1765,-8255,5500,-8,136,-2,5
1346439,1827,-8250,5479,-9,164,-2,5
1346444,1872,-8250,5433,-11,186,-1,5
1346449,1904,-8251,5322,-12,203,-1,5
1346454,1965,-8249,5155,-13,220,0,5
1346459,2064,-8247,4980,-15,236,1,5
1346464,2171,-8242,4781,-16,252,1,5
1346469,2273,-8234,4626,-18,268,1,5
1346474,2340,-8220,4511,-19,286,1,5
1346479,2394,-8209,4381,-21,304,1,5
1346484,2407,-8196,4300,-21,322,1,5
1346489,2394,-8186,4167,-22,340,1,5
1346494,2376,-8179,4021,-23,361,2,5
1346499,2376,-8171,3839,-24,386,2,5
1346504,2388,-8166,3621,-25,415,1,5
1346509,2383,-8161,3433,-26,446,1,5
1346514,2387,-8157,3271,-27,478,0,5
1346519,2390,-8151,3093,-28,509,-1,5
1346524,2402,-8143,2946,-28,539,-1,5
1346529,2436,-8134,2854,-29,564,-2,5
1346534,2463,-8127,2804,-29,587,-2,5
1346539,2524,-8123,2804,-29,605,-1,5
1346544,2699,-8125,2789,-28,617,-1,5
1346549,3043,-8128,2716,-28,624,-2,5
1346554,3320,-8124,2616,-28,624,-2,5
1346559,3624,-8120,2474,-28,612,-1,5
1346564,4000,-8108,2303,-27,592,-1,5
1346569,4386,-8094,2122,-27,567,0,5
1346574,4786,-8080,1934,-26,539,0,5
1346579,5176,-8065,1704,-25,510,0,5
1346584,5537,-8049,1397,-23,477,-1,5
1346589,5756,-8042,1100,-21,441,0,5
1346594,5848,-8034,763,-19,400,0,5
1346599,5853,-8031,360,-17,361,0,5
1346604,5709,-8034,-27,-15,328,0,5
1346609,5522,-8061,-394,-13,304,-1,5
1346614,5350,-8073,-884,-13,287,-1,5
1346619,5134,-8081,-1314,-13,269,-1,5
1346624,4873,-8095,-1728,-14,247,-1,5
1346629,4584,-8109,-2151,-14,222,-1,5
1346634,4267,-8118,-2541,-12,198,-1,5
1346639,3944,-8136,-2802,-10,176,-1,5
1346644,3632,-8150,-2921,-9,156,0,5
1346649,3323,-8162,-2997,-8,137,0,5
1346654,3049,-8175,-2990,-7,121,0,5
1346659,2818,-8184,-2928,-6,108,0,5
1346664,2624,-8191,-2839,-5,97,0,5
1346669,2475,-8198,-2722,-4,87,0,5
1346674,2359,-8205,-2588,-3,77,0,5
1346679,2263,-8211,-2439,-2,66,1,5
1346684,2175,-8216,-2292,-1,56,1,5
1346689,2092,-8221,-2142,-1,46,1,5
1346694,2027,-8227,-1982,0,37,1,5
1346699,1956,-8231,-1824,0,29,1,5
1346704,1879,-8239,-1667,1,23,1,5
1346709,1780,-8245,-1493,1,15,0,5
1346714,1701,-8247,-1329,1,5,0,5
1346719,1643,-8250,-1171,1,-2,-1,5
1346724,1575,-8252,-1016,1,-8,-1,5
1346729,1523,-8258,-904,1,-14,-2,5
1346734,1447,-8267,-785,1,-22,-2,5
1346739,1307,-8272,-656,1,-32,-2,5
1346744,1132,-8276,-562,1,-41,-1,5
1346749,946,-8278,-450,1,-46,-1,5
1346754,763,-8277,-301,1,-46,0,5
1346759,623,-8276,-142,2,-44,1,5
1346764,573,-8273,-7,2,-42,1,5
1346769,602,-8272,77,3,-41,1,5
1346774,681,-8274,115,3,-41,1,5
1346779,757,-8278,134,2,-43,0,5
1346784,770,-8277,152,1,-44,0,5
1346789,709,-8278,205,1,-44,-1,5
1346794,579,-8281,304,1,-40,-1,5
1346799,434,-8285,402,1,-35,-1,5
1346804,316,-8288,487,1,-31,0,5
1346809,257,-8292,533,1,-27,0,5
1346814,262,-8296,542,1,-25,0,5
1346819,299,-8298,542,0,-23,0,5
1346824,348,-8299,543,-1,-19,-1,5
1346829,375,-8299,563,-1,-15,-1,5
1346834,360,-8298,597,-2,-12,-2,5
1346839,319,-8298,637,-2,-9,-1,5
1346844,260,-8299,660,-1,-7,-1,5
1346849,225,-8302,648,-1,-7,-1,5
1346854,224,-8305,606,-2,-6,-1,5
1346859,264,-8305,535,-2,-5,-1,5
1346864,330,-8303,458,-2,-3,-1,5
1346869,392,-8300,398,-2,-1,-2,5
1346874,449,-8298,355,-3,1,-2,5
1346879,481,-8295,325,-3,1,-2,5
1346884,494,-8295,296,-2,0,-2,5
1346889,494,-8295,261,-2,-1,-2,5
1346894,497,-8294,210,-2,-2,-2,5
1346899,519,-8292,140,-2,-2,-1,5
1346904,551,-8290,64,-2,-1,-1,5
1346909,602,-8289,-5,-2,0,-2,5
1346914,651,-8288,-55,-2,1,-2,5
1346919,685,-8289,-84,-2,1,-2,5
1346924,700,-8288,-94,-2,2,-2,5
1346929,698,-8286,-85,-2,4,-2,5
1346934,690,-8285,-79,-2,5,-2,5
1346939,684,-8287,-82,-2,7,-2,5
1346944,685,-8290,-91,-2,8,-1,5
1346949,701,-8291,-108,-2,9,-1,5
1346954,730,-8290,-125,-2,9,-1,5
1346959,763,-8288,-141,-2,10,-1,5
1346964,791,-8288,-153,-2,10,-1,5
1346969,821,-8285,-159,-2,10,-1,5
1346974,843,-8283,-170,-2,10,-1,5
1346979,865,-8282,-178,-2,8,-1,5
1346984,883,-8280,-196,-1,6,-1,5
1346989,901,-8279,-223,-1,5,-1,5
1346994,924,-8278,-248,-1,3,-1,5
1346999,950,-8277,-276,-1,2,-1,5
1347004,972,-8277,-302,-1,1,-1,5
1347009,990,-8275,-323,-1,1,-1,5
1347014,1000,-8273,-334,-1,0,-1,5
1347019,1007,-8273,-345,-1,0,-1,5
1347024,1013,-8273,-355,-1,-1,0,5
1347029,1013,-8274,-366,0,-2,0,5
1347034,1013,-8273,-381,0,-2,0,5
1347039,1014,-8273,-389,0,-2,0,5
1347044,1017,-8275,-387,0,-2,0,5
1347049,1021,-8277,-378,0,-2,0,5
1347054,1019,-8277,-361,0,-2,0,5
1347059,1013,-8280,-343,0,-2,0,5
1347064,1004,-8280,-317,0,-2,0,5
1347069,995,-8278,-291,0,-2,0,5
1347074,981,-8275,-275,0,-3,0,5
1347079,971,-8276,-263,0,-2,0,5
1347084,961,-8275,-254,0,-2,0,5
1347089,949,-8277,-245,0,-2,0,5
1347094,936,-8279,-228,0,-1,0,5
1347099,922,-8279,-206,0,-1,1,5
1347104,906,-8278,-181,0,-1,1,5
1347109,890,-8275,-157,0,-1,1,5
1347114,882,-8273,-136,0,-1,1,5
1347119,872,-8276,-120,0,-2,1,5
1347124,864,-8278,-108,0,-3,1,5
1347129,858,-8277,-91,0,-3,1,5
1347134,848,-8279,-83,0,-4,1,5
1347139,836,-8280,-73,0,-5,1,5
1347144,819,-8282,-56,0,-4,1,5
1347149,798,-8283,-48,0,-4,1,5
1347154,777,-8284,-42,0,-4,1,5
1347159,756,-8286,-35,0,-4,1,5
1347164,739,-8285,-30,0,-3,1,5
1347169,729,-8285,-25,0,-3,1,5
1347174,720,-8285,-19,0,-3,1,5
1347179,711,-8288,-15,0,-3,1,5
1347184,703,-8288,-3,0,-3,1,5
1347189,691,-8287,8,0,-3,0,5
1347194,679,-8285,15,0,-3,0,5
1347199,668,-8285,24,0,-3,1,5
1347204,659,-8288,25,0,-3,0,5
1347209,652,-8289,26,0,-3,0,5
1347214,646,-8291,20,0,-3,0,5
1347219,639,-8290,12,0,-2,0,5
1347224,633,-8288,3,0,-2,0,5
1347229,630,-8289,-2,0,-2,0,5
1347234,626,-8289,-4,0,-2,0,5
1347239,619,-8288,-10,0,-3,0,5
1347244,615,-8288,-16,0,-3,0,5
1347249,614,-8286,-22,0,-3,0,0
1347254,616,-8286,-31,0,-4,0,0
1347259,620,-8287,-48,0,-4,0,0
1347264,623,-8287,-62,0,-5,0,0
1347269,629,-8289,-70,0,-5,0,0
1347274,630,-8289,-77,0,-6,0,0
1347279,634,-8289,-73,0,-7,0,0
1347284,638,-8292,-69,0,-8,0,0
1347289,637,-8293,-70,0,-10,0,0
1347294,638,-8292,-81,0,-10,0,0
1347299,642,-8292,-93,0,-11,0,0
1347304,641,-8291,-101,1,-12,0,0
1347309,643,-8291,-107,0,-12,0,0
1347314,640,-8289,-113,0,-12,0,0
1347319,631,-8291,-111,0,-11,0,0
1347324,623,-8292,-105,0,-11,0,0
1347329,613,-8292,-93,0,-11,0,0
1347334,608,-8292,-78,0,-11,0,0
1347339,608,-8294,-60,1,-11,0,0
1347344,610,-8294,-49,1,-11,0,0
1347349,613,-8295,-41,0,-11,0,0
1347354,613,-8296,-33,1,-12,0,0
1347359,613,-8294,-24,0,-12,-1,0
1347364,613,-8294,-16,0,-12,-1,0
1347369,613,-8294,-12,0,-11,-1,0
1347374,610,-8292,-7,0,-11,-1,0
1347379,607,-8291,-14,0,-10,-1,0
1347384,605,-8293,-22,1,-10,-1,0
1347389,608,-8294,-34,0,-9,-1,0
1347394,615,-8294,-34,0,-9,-1,0
1347399,628,-8295,-30,0,-9,-1,0
1347404,636,-8292,-28,0,-9,-1,0
1347409,642,-8290,-21,0,-8,-1,0
1347414,640,-8292,-16,0,-7,-1,0
1347419,642,-8298,-17,0,-5,-1,0
1347424,646,-8300,-16,0,-3,-1,0
1347429,652,-8303,-1,0,-3,-1,0
1347434,659,-8299,14,0,-3,-1,0
1347439,666,-8297,32,0,-4,-1,0
1347444,670,-8297,49,0,-4,-1,0
1347449,670,-8299,64,0,-4,-1,0
1347454,674,-8296,72,0,-4,-1,0
1347459,678,-8293,73,0,-3,-1,0
1347464,682,-8294,77,0,-4,-1,0
1347469,687,-8296,79,0,-4,-1,0
1347474,686,-8295,81,0,-4,-1,0
1347479,686,-8295,83,0,-4,-1,0
1347484,688,-8294,84,0,-3,-1,0
1347489,691,-8294,85,0,-3,-1,0
1347494,696,-8293,82,0,-2,-1,0
1347499,704,-8294,73,0,-2,-1,0
1347504,707,-8292,70,0,-2,-1,0
1347509,715,-8293,63,0,-2,-1,0
1347514,722,-8291,53,0,-2,-1,0
1347519,729,-8291,45,0,-2,-1,0
1347524,733,-8288,45,0,-1,-1,0
1347529,736,-8287,44,0,-1,-1,0
1347534,735,-8287,41,0,-1,-1,0
1347539,737,-8289,32,0,-1,-1,0
1347544,738,-8291,31,0,0,0,0
1347549,741,-8291,30,0,1,0,0
1347554,743,-8292,36,0,1,-1,0
1347559,745,-8291,43,0,1,0,0
1347564,741,-8288,48,0,1,0,0
1347569,740,-8286,49,0,1,0,0
1347574,742,-8287,49,0,1,0,0
1347579,748,-8286,45,0,1,0,0
1347584,750,-8290,41,0,0,0,0
1347589,750,-8291,36,0,0,0,0
1347594,753,-8293,28,0,0,0,0
1347599,752,-8290,22,0,0,0,0
1347604,753,-8287,16,0,0,0,0
1347609,756,-8285,14,0,0,0,0
1347614,754,-8287,7,0,0,0,0
1347619,755,-8287,-4,0,0,0,0
1347624,760,-8288,-10,0,0,0,0
1347629,763,-8289,-20,0,0,0,0
1347634,765,-8288,-27,0,-1,0,0
1347639,766,-8288,-33,0,-1,0,0
1347644,762,-8286,-36,0,0,0,0
1347649,758,-8285,-36,0,-1,0,0
1347654,751,-8286,-37,0,0,0,0
1347659,745,-8288,-37,0,0,0,0
1347664,742,-8288,-29,0,0,0,0
1347669,741,-8290,-19,0,0,0,0
1347674,736,-8290,-4,0,0,0,0
1347679,731,-8291,9,0,0,0,0
1347684,722,-8291,17,0,0,0,0
1347689,714,-8288,25,0,1,0,0
1347694,710,-8286,30,0,1,0,0
1347699,703,-8286,33,0,1,0,0
1347704,696,-8286,29,0,1,0,0
1347709,692,-8285,31,0,1,0,0
1347714,688,-8284,29,0,1,0,0
1347719,686,-8284,29,0,2,0,0
1347724,687,-8284,29,0,1,0,0
1347729,689,-8281,33,0,1,0,0
1347734,689,-8281,34,0,1,0,0
1347739,687,-8281,34,0,0,0,0
1347744,684,-8282,31,0,0,0,0
1347749,683,-8283,27,0,0,0,0
1347754,684,-8286,21,0,0,0,0
1347759,683,-8288,17,0,-1,0,0
1347764,680,-8288,22,0,-1,0,0
1347769,678,-8286,25,0,-1,0,0
1347774,672,-8284,25,0,-1,0,0
1347779,669,-8284,32,0,-1,0,0
1347784,667,-8284,38,0,-1,0,0
1347789,657,-8284,40,0,-1,0,0
1347794,653,-8285,44,0,-1,0,0
1347799,650,-8284,46,0,-1,0,0
1347804,646,-8284,48,-1,-1,0,0
1347809,644,-8285,52,-1,0,0,0
1347814,644,-8289,53,-1,0,0,0
1347819,644,-8290,55,-1,0,0,0
1347824,645,-8292,48,0,0,0,0
1347829,646,-8293,45,0,0,0,0
1347834,648,-8293,37,0,0,0,0
1347839,651,-8294,32,-1,0,0,0
1347844,655,-8293,33,-1,0,0,0
1347849,652,-8293,31,-1,0,0,0
1347854,650,-8291,36,-1,0,0,0
1347859,650,-8291,45,-1,1,0,0
1347864,651,-8292,53,-1,0,0,0
1347869,652,-8296,58,-1,0,0,0
1347874,652,-8296,58,-1,0,0,0
1347879,657,-8296,53,-1,0,0,0
1347884,667,-8294,53,-1,0,0,0
1347889,671,-8295,49,-1,0,0,0
1347894,676,-8292,46,-1,0,-1,0
1347899,677,-8290,51,-1,0,0,0
1347904,676,-8290,52,-1,0,0,0
1347909,677,-8288,51,-1,0,0,0
1347914,678,-8289,46,-1,0,0,0
1347919,680,-8290,42,-1,0,0,0
1347924,685,-8290,37,-1,0,0,0
1347929,692,-8289,29,-1,0,0,0
1347934,699,-8286,27,-1,0,0,0
1347939,703,-8286,30,-1,0,0,0
1347944,705,-8286,26,-1,0,0,0
1347949,706,-8287,20,-1,0,0,0
1347954,708,-8288,11,-1,0,0,0
1347959,709,-8288,5,-1,0,0,0
1347964,709,-8287,0,-1,0,0,0
1347969,710,-8286,-6,-1,0,0,0
1347974,707,-8287,-7,-1,0,0,0
1347979,702,-8284,-9,-1,0,0,0
1347984,704,-8285,-8,-1,0,0,0
1347989,707,-8286,-7,-1,0,0,0
1347994,707,-8289,-7,-1,0,0,0
1347999,709,-8288,-12,-1,-1,0,0
1348004,703,-8284,-12,-1,-1,0,0
1348009,698,-8285,-12,-1,-1,0,0
1348014,694,-8283,-13,-1,0,0,0
1348019,692,-8282,-13,-1,0,0,0
1348024,693,-8283,-12,-1,0,0,0
1348029,691,-8284,-8,-1,0,0,0
1348034,692,-8286,-6,-1,0,0,0
1348039,693,-8287,-9,-1,0,0,0
1348044,696,-8286,-10,-1,0,0,0
1348049,698,-8286,-13,-1,0,0,0
1348054,701,-8285,-15,-1,0,0,0
1348059,701,-8286,-14,-1,0,0,0
1348064,700,-8288,-13,-1,0,0,0
1348069,696,-8288,-8,-1,0,0,0
1348074,696,-8290,-7,-1,0,0,0
1348079,699,-8290,-5,-1,0,0,0
1348084,702,-8288,-4,-1,0,0,0
1348089,704,-8286,-2,-1,0,0,0
1348094,705,-8287,7,-1,0,0,0
1348099,704,-8286,13,-1,0,0,0
1348104,703,-8285,14,-1,0,0,0
1348109,704,-8284,15,-1,0,0,0
1348114,701,-8282,14,-1,0,0,0
1348119,698,-8279,10,0,0,0,0
1348124,699,-8275,6,0,0,0,0
1348129,698,-8273,-5,0,0,0,0
1348134,697,-8275,-15,-1,0,0,0
1348139,692,-8277,-22,-1,0,0,0
1348144,689,-8278,-22,-1,0,0,0
1348149,687,-8278,-19,-1,0,0,0
1348154,686,-8281,-17,-1,0,0,0
1348159,683,-8284,-13,-1,0,0,0
1348164,683,-8285,-10,0,0,0,0
1348169,688,-8290,-8,0,0,0,0
1348174,689,-8291,-1,-1,0,0,0
1348179,687,-8290,-1,-1,0,0,0
1348184,682,-8285,0,-1,0,0,0
1348189,676,-8284,2,-1,0,0,0
1348194,670,-8284,8,-1,0,0,0
1348199,669,-8285,15,-1,1,0,0
1348204,665,-8285,18,-1,1,0,0
1348209,663,-8282,17,-1,1,0,0
1348214,666,-8283,14,-1,1,0,0
1348219,665,-8284,10,-1,0,0,0
1348224,664,-8285,9,-1,0,0,0
1348229,660,-8287,6,-1,0,0,0
1348234,654,-8290,3,-1,0,0,0
1348239,649,-8289,-7,-1,1,0,0
1348244,648,-8290,-17,-1,1,0,0
1348249,649,-8286,-24,-1,1,0,0
1348254,651,-8287,-32,-1,1,0,0
1348259,650,-8287,-37,-1,1,0,0
1348264,648,-8288,-37,-1,2,0,0
1348269,646,-8291,-41,-1,2,0,0
1348274,641,-8292,-46,-1,2,0,0
1348279,638,-8293,-49,0,2,0,0
1348284,637,-8296,-52,0,2,0,0
1348289,635,-8298,-48,0,3,0,0
1348294,636,-8299,-41,0,3,0,0
1348299,641,-8295,-37,0,3,0,0
1348304,645,-8291,-29,-1,2,0,0
1348309,646,-8291,-20,-1,2,0,0
1348314,646,-8295,-7,0,1,0,0
1348319,645,-8293,2,0,1,0,0
1348324,643,-8293,9,0,1,0,0
1348329,643,-8289,10,0,1,0,0
1348334,643,-8288,6,0,1,0,0
1348339,644,-8287,5,0,1,0,0
1348344,643,-8288,6,-1,1,0,0
1348349,641,-8288,5,-1,1,0,0
1348354,638,-8286,-1,0,2,0,0
1348359,640,-8285,-8,0,2,0,0
1348364,647,-8286,-12,0,2,0,0
1348369,652,-8286,-17,0,2,0,0
1348374,660,-8287,-22,0,2,0,0
1348379,669,-8288,-27,0,2,0,0
1348384,676,-8290,-31,0,2,-1,0
1348389,682,-8291,-36,0,2,-1,0
1348394,689,-8293,-33,0,2,0,0
1348399,696,-8292,-32,0,2,0,0
1348404,702,-8292,-30,0,1,0,0
1348409,708,-8289,-31,0,1,0,0
1348414,713,-8288,-35,0,0,0,0
1348419,716,-8289,-36,0,0,0,0
1348424,717,-8288,-31,0,0,0,0
1348429,715,-8287,-28,0,0,0,0
1348434,715,-8287,-27,0,0,0,0
1348439,714,-8284,-29,0,0,0,0
1348444,716,-8285,-35,0,0,0,0
1348449,720,-8285,-33,0,-1,0,0
1348454,724,-8287,-30,0,-2,0,0
1348459,720,-8289,-29,0,-2,0,0
1348464,718,-8290,-26,0,-2,0,0
1348469,718,-8289,-22,0,-2,0,0
1348474,718,-8289,-22,0,-2,0,0
1348479,715,-8289,-33,0,-2,0,0
1348484,714,-8288,-40,0,-2,0,0
1348489,714,-8286,-47,0,-2,0,0
1348494,714,-8286,-48,0,-1,0,0
1348499,714,-8286,-52,0,-1,0,0
1348504,713,-8285,-57,0,-1,0,0
1348509,710,-8283,-58,0,-1,0,0
1348514,711,-8282,-57,0,-1,0,0
1348519,711,-8283,-52,0,-1,0,0
1348524,710,-8286,-54,0,-1,0,0
1348529,708,-8285,-48,0,-1,0,0
1348534,707,-8287,-40,0,-1,0,0
1348539,705,-8289,-26,0,-1,0,0
1348544,703,-8289,-10,0,0,0,0
1348549,701,-8290,2,0,0,0,0
1348554,695,-8291,20,0,0,0,0
1348559,693,-8290,29,0,0,0,0
1348564,685,-8292,34,0,0,0,0
1348569,678,-8295,43,0,0,0,0
1348574,673,-8297,44,0,0,0,0
1348579,671,-8300,44,0,0,0,0
1348584,668,-8302,45,0,0,0,0
1348589,665,-8299,46,0,1,0,0
1348594,663,-8299,41,0,1,0,0
1348599,665,-8298,34,0,2,0,0
1348604,661,-8299,31,0,2,0,0
1348609,657,-8296,29,0,2,0,0
1348614,648,-8297,28,0,2,0,0
1348619,645,-8298,30,0,2,0,0
1348624,642,-8298,32,0,2,0,0
1348629,640,-8295,38,0,2,0,0
1348634,640,-8295,48,0,2,0,0
1348639,642,-8296,51,0,2,0,0
1348644,644,-8298,55,0,2,0,0
1348649,644,-8300,58,0,2,0,0
1348654,645,-8299,61,0,2,0,0
1348659,639,-8299,62,-1,2,0,0
1348664,635,-8300,67,-1,2,0,0
1348669,630,-8298,67,0,2,0,0
1348674,632,-8298,60,-1,2,0,0
1348679,631,-8296,56,-1,2,0,0
1348684,634,-8293,48,-1,2,0,0
1348689,640,-8295,39,-1,3,0,0
1348694,644,-8297,30,-1,3,0,0
1348699,642,-8296,19,-1,3,0,0
1348704,642,-8294,8,-1,3,0,0
1348709,640,-8297,3,-1,2,0,0
1348714,638,-8295,-4,-1,2,0,0
1348719,639,-8292,-6,-1,2,0,0
1348724,637,-8287,-10,0,1,0,0
1348729,639,-8286,-13,0,1,0,0
1348734,642,-8285,-17,-1,1,0,0
1348739,644,-8285,-19,0,1,0,0
1348744,641,-8285,-24,0,1,0,0
1348749,641,-8285,-29,0,1,0,0
1348754,642,-8283,-24,0,1,0,0
1348759,640,-8283,-16,0,0,0,0
1348764,639,-8283,-8,0,0,0,0
1348769,639,-8284,-3,0,0,0,0
1348774,638,-8283,0,0,0,0,0
1348779,635,-8284,7,0,0,0,0
1348784,634,-8283,12,0,0,0,0
1348789,632,-8283,7,0,0,0,0
1348794,626,-8281,1,0,0,0,0
1348799,622,-8276,0,0,0,0,0
1348804,622,-8273,2,0,0,0,0
1348809,622,-8276,10,0,0,0,0
1348814,626,-8277,17,-1,0,0,0
1348819,625,-8275,28,-1,0,0,0
1348824,625,-8278,36,0,0,0,0
1348829,627,-8281,40,0,0,0,0
1348834,627,-8281,45,-1,0,0,0
1348839,626,-8284,45,-1,0,0,0
1348844,624,-8284,46,-1,0,0,0
1348849,624,-8286,44,-1,0,0,0
1348854,622,-8288,47,-1,0,0,0
1348859,622,-8289,48,-1,0,0,0
1348864,624,-8290,44,-1,0,0,0
1348869,628,-8289,47,-1,0,0,0
1348874,629,-8286,45,-1,0,0,0
1348879,631,-8283,44,-1,0,0,0
1348884,633,-8284,43,-1,0,-1,0
1348889,631,-8286,41,-1,0,-1,0
1348894,632,-8285,37,-1,0,0,0
1348899,632,-8285,37,-1,0,0,0
1348904,635,-8288,39,-1,0,0,0
1348909,637,-8285,37,-1,1,0,0
1348914,643,-8284,33,-1,1,0,0
1348919,646,-8284,25,-1,1,-1,0
1348924,652,-8287,21,-1,2,0,0
1348929,657,-8287,18,-1,2,0,0
1348934,658,-8289,17,-1,2,0,0
1348939,656,-8287,20,-1,2,0,0
1348944,652,-8289,22,-1,2,0,0
1348949,647,-8288,24,-1,2,0,0
1348954,642,-8288,26,-1,1,0,0
1348959,638,-8288,30,-1,1,-1,0
1348964,632,-8284,31,-1,1,0,0
1348969,629,-8286,34,-1,1,0,0
1348974,626,-8284,29,-1,2,0,0
1348979,622,-8285,26,-1,2,-1,0
1348984,625,-8290,19,-1,2,0,0
1348989,621,-8287,13,-1,2,0,0
1348994,616,-8287,6,-1,3,0,0
1348999,614,-8286,5,-1,4,-1,0
1349004,609,-8289,5,-1,4,-1,0
1349009,608,-8292,1,-1,3,-1,0
1349014,603,-8298,3,-1,2,-1,0
1349019,603,-8300,4,-1,2,-1,0
1349024,603,-8298,4,-1,3,-1,0
1349029,605,-8298,5,-1,2,-1,0
1349034,605,-8296,3,-1,2,-1,0
1349039,606,-8293,2,-1,2,-1,0
1349044,604,-8294,1,-1,2,-1,0
1349049,602,-8293,1,-1,3,-1,0
1349054,598,-8292,5,-1,3,-1,0
1349059,598,-8295,15,-1,3,-1,0
1349063,599,-8298,19,-1,3,-1,0
1349069,603,-8297,27,-1,3,-1,0
1349073,607,-8299,33,-1,2,-1,0
1349079,608,-8299,34,-1,2,-1,0
1349084,609,-8300,36,-1,2,-1,0
1349089,615,-8300,40,-1,1,-1,0
1349094,614,-8295,43,-1,1,-1,0
1349099,615,-8292,40,-1,1,-1,0
1349104,616,-8292,38,-1,1,-1,0
1349109,621,-8292,35,-1,1,-1,0
1349114,628,-8295,33,-1,1,-1,0
1349119,629,-8293,26,-1,2,-1,0
1349124,633,-8293,21,-1,2,-1,0
1349129,638,-8292,12,-1,2,-1,0
1349134,642,-8291,3,-1,3,-1,0
1349139,646,-8287,0,-1,3,-1,0
1349144,652,-8287,-7,-1,3,-1,0
1349149,659,-8287,-7,-1,3,-1,0
1349153,662,-8286,-8,-1,2,-1,0
1349158,666,-8285,-9,-1,2,-1,0
1349164,673,-8282,-2,-1,2,-1,0
1349169,678,-8282,-4,-1,1,-1,0
1349174,679,-8283,-7,-1,1,-1,0
1349179,681,-8285,-9,-1,1,-1,0
1349183,683,-8286,-11,-1,1,-1,0
1349189,682,-8287,-15,-1,1,-1,0
1349194,681,-8286,-19,-1,1,-1,0
1349198,683,-8286,-24,-1,1,-1,0
1349203,685,-8285,-30,-1,1,-1,0
1349209,688,-8286,-41,-1,1,-1,0
1349214,694,-8288,-50,-1,2,-1,0
1349219,699,-8287,-54,-1,2,-1,0
1349224,701,-8285,-53,-1,1,-1,0
1349228,704,-8284,-51,-1,1,-1,0
1349233,704,-8284,-56,-1,1,-1,0
1349239,702,-8284,-52,-1,1,-1,0
1349244,701,-8287,-47,-1,1,-1,0
1349249,698,-8288,-42,-1,2,-1,0
1349254,697,-8288,-37,-1,2,-1,0
1349258,698,-8287,-37,-1,2,-1,0
1349263,698,-8287,-34,-1,2,-1,0
1349268,699,-8285,-38,-1,2,-1,0
1349274,698,-8287,-34,-1,2,-1,0
1349278,695,-8291,-34,-1,2,-1,0
1349284,691,-8291,-28,-1,2,-1,0
1349289,687,-8293,-23,-1,3,-1,0
1349293,682,-8294,-25,-1,4,-1,0
1349298,678,-8296,-28,-1,6,0,0
1349303,674,-8297,-28,-1,7,-1,0
1349308,669,-8299,-25,-1,8,-1,0
1349313,654,-8300,-25,-1,9,-1,0
1349318,639,-8297,-24,-1,10,-1,0
1349323,629,-8296,-29,-1,13,0,0
1349328,622,-8296,-44,-1,16,0,0
1349333,628,-8299,-68,-1,18,0,0
1349338,629,-8301,-83,-1,20,0,0
1349343,640,-8302,-90,-1,21,0,0
1349348,638,-8299,-86,-1,22,0,0
1349353,639,-8296,-72,-1,23,0,0
1349358,652,-8295,-65,-1,24,0,0
1349363,661,-8295,-50,-1,25,0,0
1349369,675,-8295,-40,-1,26,0,0
1349374,686,-8294,-26,-1,26,0,0
1349378,699,-8292,-10,-1,27,0,0
1349383,703,-8291,5,-1,28,0,0
1349388,700,-8288,28,-1,29,0,0
1349393,724,-8293,40,-1,31,0,0
1349398,781,-8284,69,-1,29,0,0
1349403,884,-8280,124,-1,22,0,0
1349408,983,-8279,171,-1,13,0,0
1349413,1050,-8278,237,-1,7,1,0
1349418,1097,-8271,309,-1,5,0,0
1349423,1108,-8269,359,-1,8,0,0
1349428,1112,-8268,366,-1,10,0,0
1349433,1128,-8267,316,-1,9,0,0
1349438,1140,-8270,247,-1,5,1,0
1349443,1160,-8268,145,-1,-1,1,0
1349448,1168,-8275,54,-1,-4,2,0
1349453,1151,-8276,2,-1,-4,1,0
1349458,1111,-8279,-30,-2,0,1,0
1349463,1037,-8280,-8,-2,5,1,0
1349468,953,-8278,42,-2,9,1,0
1349473,840,-8272,86,-1,12,1,0
1349478,751,-8270,118,-1,17,2,0
1349483,683,-8274,129,-1,22,2,0
1349488,686,-8282,117,-2,26,2,0
1349493,718,-8288,130,-2,28,2,0
1349498,780,-8283,152,-2,25,2,0
1349503,825,-8285,197,-3,19,1,0
1349508,777,-8277,272,-2,14,1,0
1349513,710,-8277,277,-2,13,1,0
1349518,541,-8278,270,-2,15,1,0
1349523,415,-8281,172,-2,17,0,0
1349528,292,-8293,71,-2,19,0,0
1349533,222,-8297,10,-2,15,1,0
1349538,199,-8301,-42,-2,11,1,0
1349543,169,-8301,14,-3,12,1,0
1349548,218,-8299,70,-3,16,1,0
1349553,253,-8294,146,-3,23,0,0
1349558,328,-8292,226,-3,27,0,0
1349563,400,-8291,226,-2,26,0,0
1349568,456,-8289,193,-2,21,0,0
1349573,522,-8288,115,-2,12,0,0
1349578,536,-8291,3,-2,3,0,0
1349583,541,-8292,-104,-2,-4,0,0
1349588,510,-8290,-202,-2,-6,-1,0
1349593,482,-8288,-256,-2,-6,-1,0
1349598,458,-8286,-285,-2,-4,-1,0
1349603,423,-8283,-297,-2,-2,-1,0
1349608,422,-8283,-304,-1,0,-1,0
1349613,413,-8284,-321,-1,1,-1,0
1349618,428,-8287,-330,-1,0,-1,0
1349623,438,-8286,-334,-1,0,-1,0
1349628,436,-8284,-322,-1,-1,-1,0
1349633,439,-8285,-300,-1,0,-1,0
1349638,431,-8285,-265,-1,1,-1,0
1349643,448,-8286,-228,-1,1,-1,0
1349648,466,-8286,-203,-1,0,-1,0
1349653,496,-8288,-183,-1,-2,-1,0
1349658,522,-8285,-177,-1,-4,-1,0
1349663,538,-8286,-168,-1,-6,-1,0
1349668,551,-8288,-152,-1,-9,-1,0
1349673,530,-8290,-136,-1,-10,-2,0
1349678,509,-8286,-105,-1,-12,-1,0
1349683,497,-8288,-82,-1,-12,-1,0
1349688,510,-8288,-75,-1,-12,-1,0
1349693,559,-8292,-72,-1,-14,-1,0
1349698,584,-8294,-61,-1,-15,-1,0
1349703,603,-8295,-47,-1,-14,-1,0
1349708,592,-8290,-33,-1,-12,-2,0
1349713,586,-8284,-10,-1,-8,-2,0
1349718,615,-8283,-3,-1,-5,-1,0
1349723,638,-8283,2,-1,-4,-1,0
1349728,689,-8286,3,-1,-5,-1,0
1349733,738,-8288,-16,-1,-6,-1,0
1349738,784,-8294,-19,-1,-7,-1,0
1349743,836,-8292,-25,-1,-6,-1,0
1349748,825,-8296,-15,-1,-3,-1,0
1349753,828,-8289,3,-1,-2,-1,0
1349758,794,-8291,-14,-1,-1,-1,0
1349763,765,-8287,-9,-1,-1,-1,0
1349768,769,-8292,-30,-1,-1,-1,0
1349773,733,-8293,-22,-1,0,-1,0
1349778,767,-8297,-15,-2,0,-1,0
1349783,749,-8295,-14,-2,2,-1,0
1349788,776,-8295,14,-2,1,-1,0
1349793,763,-8290,12,-2,0,-1,0
1349798,752,-8285,17,-1,-1,-1,0
1349803,751,-8283,-18,-1,-2,-1,0
1349808,703,-8287,-71,-1,-2,-1,0
1349813,670,-8286,-119,-1,-1,-1,0
1349818,584,-8288,-198,-1,2,-1,0
1349823,499,-8291,-246,-1,3,-1,0
1349828,413,-8293,-272,-1,3,-1,0
1349833,319,-8297,-262,-1,3,-1,0
1349838,277,-8299,-212,-1,6,-1,0
1349843,270,-8297,-178,-1,11,-1,0
1349848,329,-8295,-161,-1,15,-1,0
1349853,421,-8293,-170,-1,17,-1,0
1349858,519,-8289,-197,-1,16,-2,0
1349863,595,-8290,-226,-1,13,-2,0
1349868,623,-8291,-263,-1,9,-2,0
1349873,626,-8292,-290,-1,4,-2,0
1349878,598,-8289,-313,-1,3,-2,0
1349883,579,-8289,-330,-1,2,-2,0
1349888,584,-8282,-340,0,4,-1,0
1349893,606,-8282,-360,0,6,-1,0
1349898,654,-8281,-374,0,7,-1,0
1349903,697,-8282,-376,0,8,-1,0
1349908,730,-8282,-370,0,7,-2,0
1349913,747,-8279,-354,0,6,-2,0
1349918,753,-8278,-335,0,4,-2,0
1349923,747,-8275,-322,0,4,-1,0
1349928,743,-8274,-323,0,3,-1,0
1349933,753,-8276,-333,0,3,-1,0
1349938,763,-8276,-348,0,3,-1,0
1349943,775,-8279,-353,0,3,-1,0
1349948,778,-8283,-342,0,3,-1,0
1349953,768,-8285,-316,0,3,-1,0
1349958,756,-8285,-273,0,3,-1,0
1349963,741,-8284,-224,0,4,-1,0
1349968,728,-8284,-189,1,4,-1,0
1349973,727,-8286,-166,1,3,-1,0
1349978,729,-8288,-156,1,2,-1,0
1349983,720,-8289,-150,0,0,-1,0
1349988,706,-8288,-126,0,-1,-1,0
1349993,684,-8289,-94,0,0,-2,0
1349998,669,-8288,-51,0,1,-1,0
1350003,657,-8288,-4,0,2,-1,0
1350008,649,-8287,23,0,1,-1,0
1350013,651,-8288,37,0,1,-1,0
1350018,662,-8286,43,0,1,-1,0
1350023,667,-8287,38,0,1,-1,0
1350028,666,-8290,43,0,1,-2,0
1350033,656,-8287,52,0,2,-1,0
1350038,649,-8287,62,0,3,-1,0
1350043,656,-8287,65,0,4,-1,0
1350048,676,-8284,78,0,4,-1,0
1350053,702,-8283,71,0,3,-1,0
1350058,729,-8291,65,0,1,-1,0
1350063,750,-8291,63,0,0,-1,0
1350068,759,-8293,52,0,0,-2,0
1350073,759,-8293,45,-1,1,-2,0
1350078,761,-8293,35,-1,1,-1,0
1350083,747,-8288,26,-1,2,-1,0
1350088,747,-8285,12,-1,3,-1,0
1350093,741,-8285,-4,-1,5,-1,0
1350098,736,-8282,-14,-1,6,-1,0
1350103,746,-8282,-34,-1,8,-1,0
1350108,758,-8283,-40,-1,8,-1,0
1350113,776,-8281,-38,-1,7,-1,0
1350118,779,-8281,-25,-1,6,-1,0
1350123,784,-8281,-5,-1,5,-1,0
1350128,788,-8280,0,-1,5,-1,0
1350133,790,-8282,3,-1,3,-1,0
1350138,791,-8283,-14,-1,1,-1,0
1350143,779,-8285,-39,-1,-1,-1,0
1350148,766,-8285,-56,-1,-1,-1,0
1350153,748,-8286,-79,-1,0,-1,0
1350158,738,-8288,-82,-1,1,-1,0
1350163,733,-8287,-81,-1,2,-1,0
1350168,730,-8287,-83,-1,3,-1,0
1350173,738,-8286,-89,-1,3,-1,0
1350178,749,-8286,-102,0,3,-1,0
1350183,762,-8288,-122,0,2,-1,0
1350188,771,-8291,-144,0,2,-1,0
1350193,779,-8290,-160,0,1,-1,0
1350198,785,-8287,-169,-1,1,-1,0
1350203,790,-8283,-173,0,0,-1,0
1350208,800,-8278,-165,0,0,-1,0
1350213,813,-8275,-165,0,0,-1,0
1350218,830,-8273,-160,0,-1,-1,0
1350223,844,-8272,-166,0,-1,-1,0
1350228,850,-8274,-174,0,-2,-1,0
1350233,849,-8277,-170,0,-2,-1,0
1350238,842,-8277,-166,0,-2,-1,0
1350243,836,-8276,-162,0,-2,-1,0
1350248,832,-8276,-154,0,-2,-1,0
1350253,831,-8278,-151,0,-1,-1,0
1350258,832,-8281,-150,0,-1,-1,0
1350263,836,-8282,-150,0,-1,-1,0
1350268,834,-8282,-145,0,-2,-1,0
1350273,825,-8286,-142,0,-2,-1,0
1350278,816,-8288,-135,0,-2,-1,0
1350283,807,-8284,-126,0,-1,-1,0
1350288,798,-8285,-123,0,0,-1,0
1350293,794,-8290,-116,0,0,-1,0
1350298,793,-8290,-116,0,0,-1,0
1350303,796,-8290,-115,0,0,-1,0
1350308,800,-8292,-111,0,-1,-1,0
1350313,798,-8289,-105,0,-1,-1,0
1350318,792,-8285,-97,0,-1,-1,0
1350323,786,-8285,-90,0,-1,-1,0
1350328,779,-8284,-89,0,-1,-1,0
1350333,773,-8282,-88,0,-1,-1,0
1350338,768,-8278,-94,0,-1,-1,0
1350343,764,-8278,-97,0,-1,-1,0
1350348,764,-8280,-107,0,-1,-1,0
1350353,766,-8283,-112,0,0,-1,0
1350358,766,-8283,-113,0,0,-1,0
1350363,767,-8285,-118,0,0,-1,0
1350368,774,-8285,-118,0,0,0,0
1350373,781,-8288,-115,0,0,-1,0
1350378,785,-8285,-114,0,0,0,0
1350383,789,-8282,-119,0,0,-1,0
1350388,788,-8281,-125,0,-1,-1,0
1350393,786,-8279,-132,0,-1,0,0
1350398,785,-8281,-135,0,0,-1,0
1350403,781,-8281,-135,0,0,-1,0
1350408,777,-8284,-137,0,0,0,0
1350413,776,-8285,-135,0,-1,0,0
1350418,779,-8286,-134,0,-1,0,0
1350423,781,-8286,-130,0,-1,0,0
1350428,782,-8285,-124,0,-1,-1,0
1350433,778,-8283,-123,0,-2,0,0
1350438,775,-8283,-121,0,-2,-1,0
1350443,771,-8286,-114,0,-2,-1,0
1350448,760,-8286,-110,0,-2,-1,0
1350453,752,-8289,-104,0,-2,0,0
1350458,746,-8286,-95,0,-2,-1,0
1350463,739,-8287,-86,0,-2,0,0
1350468,737,-8286,-73,0,-1,0,0
1350473,738,-8285,-63,0,-1,0,0
1350478,734,-8285,-60,0,-1,-1,0
1350483,728,-8284,-50,0,-1,-1,0
1350488,723,-8284,-36,0,0,-1,0
1350493,718,-8284,-23,0,0,-1,0
1350498,718,-8286,-17,0,0,-1,0
1350503,719,-8288,-13,0,0,-1,0
1350508,716,-8288,-15,0,0,-1,0
1350513,714,-8289,-10,0,0,-1,0
1350518,712,-8291,-11,0,0,-1,0
1350523,710,-8290,-14,0,0,-1,0
1350528,712,-8289,-11,0,0,-1,0
1350533,713,-8287,-6,0,0,-1,0
1350538,711,-8284,-1,0,0,-1,0
1350543,709,-8284,7,0,1,-1,0
1350548,707,-8285,16,0,1,-1,0
1350553,705,-8285,20,0,1,-1,0
1350558,702,-8286,27,0,1,-1,0
1350563,700,-8286,31,0,1,-1,0
1350568,698,-8287,30,0,2,-1,0
1350573,695,-8286,30,0,3,-1,0
1350578,696,-8285,30,0,3,-1,0
1350583,698,-8283,32,0,4,-1,0
1350588,704,-8283,38,0,4,-1,0
1350593,703,-8285,42,0,5,-1,0
1350598,701,-8285,46,0,5,-1,0
1350603,701,-8284,45,0,6,-1,0
1350608,698,-8284,46,0,7,-1,0
1350613,702,-8285,41,0,8,-1,0
1350618,710,-8286,33,0,8,-1,0
1350623,717,-8287,24,0,9,-1,0
1350628,726,-8287,16,0,9,-1,0
1350633,734,-8290,11,0,9,-1,0
1350638,742,-8290,16,0,9,-1,0
1350643,750,-8289,14,0,9,-1,0
1350648,757,-8287,11,0,9,-1,0
1350653,767,-8286,2,0,9,-1,0
1350658,774,-8285,-8,0,9,-1,0
1350663,774,-8286,-25,0,9,-1,0
1350668,776,-8287,-29,0,9,-1,0
1350673,781,-8286,-30,0,9,-1,0
1350678,785,-8285,-30,0,9,-1,0
1350683,784,-8284,-26,0,9,-1,0
1350688,786,-8281,-18,0,9,-1,0
1350693,789,-8279,-15,0,8,-1,0
1350698,792,-8277,-15,0,8,-1,0
1350703,796,-8276,-19,0,7,-1,0
1350708,799,-8277,-21,0,7,-1,0
1350713,799,-8278,-22,0,6,-1,0
1350718,797,-8277,-22,0,6,-1,0
1350723,796,-8276,-26,0,5,-1,0
1350728,791,-8277,-26,0,5,-1,0
1350733,786,-8278,-32,0,4,-1,0
1350738,779,-8279,-40,0,4,-1,0
1350743,770,-8283,-47,0,3,-1,0
1350748,756,-8282,-50,0,3,-1,0
1350753,741,-8285,-59,0,3,-1,0
1350758,731,-8285,-65,0,2,-1,0
1350763,722,-8286,-70,0,2,-1,0
1350768,718,-8286,-72,0,2,-1,0
1350773,723,-8287,-68,0,2,-1,0
1350778,727,-8286,-62,0,2,-1,0
1350783,732,-8287,-63,0,2,-1,0
1350788,736,-8286,-58,0,2,-1,0
1350793,736,-8285,-51,0,2,-1,0
1350798,735,-8285,-45,0,3,-1,0
1350803,729,-8286,-32,0,3,-1,0
1350808,727,-8287,-28,0,3,-1,0
1350813,728,-8286,-20,0,3,-1,0
1350818,730,-8285,-4,0,4,-1,0
1350823,737,-8287,15,0,3,-1,0
1350828,742,-8287,34,0,3,-1,0
1350833,744,-8286,57,0,3,-1,0
1350838,744,-8287,76,0,2,-1,0
1350843,746,-8287,90,0,2,-1,0
1350848,750,-8288,104,0,2,-1,0
1350853,751,-8287,112,0,2,-1,0
1350858,754,-8285,116,-1,2,-1,0
1350863,758,-8286,122,-1,2,-1,0
1350868,759,-8286,125,-1,2,-1,0
1350873,761,-8285,127,-1,3,-1,0
1350878,760,-8284,132,-1,3,-1,0
1350883,758,-8283,133,-1,4,-1,0
1350888,763,-8280,129,-1,4,-1,0
1350893,767,-8279,118,-1,4,-1,0
1350898,775,-8282,107,-1,3,-1,0
1350903,785,-8278,92,-1,3,-1,0
1350908,799,-8275,78,-1,3,-1,0
1350913,807,-8275,66,-1,3,-1,0
1350918,809,-8276,63,-1,4,-1,0
1350923,815,-8277,50,-1,3,-1,0
1350928,817,-8279,39,-1,3,-1,0
1350933,830,-8280,25,-1,3,-1,0
1350938,834,-8283,11,-1,3,-1,0
1350943,846,-8283,-3,-1,4,-1,0
1350948,856,-8285,-15,-1,4,-1,0
1350953,859,-8282,-26,-1,4,-1,0
1350958,862,-8283,-34,-1,4,-1,0
1350963,860,-8285,-34,-1,4,-1,0
1350968,858,-8283,-33,-1,3,-1,0
1350973,858,-8283,-29,-1,3,-1,0
1350978,859,-8286,-25,-1,3,-1,0
1350983,861,-8287,-31,-1,2,-1,0
1350988,861,-8288,-33,-1,2,-1,0
1350993,859,-8288,-32,-1,2,-1,0
1350998,850,-8287,-30,-1,1,-1,0
1351003,842,-8287,-31,-1,1,-1,0
1351008,837,-8290,-29,-1,1,-1,0
1351013,833,-8286,-31,-1,1,-1,0
1351018,830,-8288,-31,-1,1,-1,0
1351023,826,-8289,-30,-1,2,-1,0
1351028,829,-8291,-31,-1,2,-1,0
1351033,828,-8289,-33,-1,2,-1,0
1351038,831,-8290,-34,-1,1,-1,0
1351043,829,-8287,-36,-1,1,-1,0
1351048,827,-8284,-32,-1,1,-1,0
1351053,827,-8283,-28,-1,1,-1,0
1351058,826,-8285,-25,-1,1,-1,0
1351063,828,-8284,-25,-1,1,-1,0
1351068,829,-8282,-26,-1,1,-1,0
1351073,824,-8280,-26,-1,1,-1,0
1351078,826,-8280,-21,-1,1,-1,0
1351083,821,-8279,-20,-1,1,-1,0
1351088,819,-8281,-19,-1,1,-1,0
1351093,817,-8283,-19,-1,2,-1,0
1351098,818,-8286,-17,-1,2,-1,0
1351103,822,-8288,-22,-1,2,-1,0
1351108,822,-8284,-16,-1,2,-1,0
1351113,824,-8283,-13,-1,2,-1,0
1351118,819,-8281,-13,-1,1,0,0
1351123,818,-8282,-6,-1,1,0,0
1351128,818,-8280,-10,-1,1,0,0
1351133,819,-8280,-14,-1,1,0,0
1351138,822,-8281,-25,-1,1,0,0
1351143,823,-8279,-34,-1,1,0,0
1351148,823,-8278,-42,-1,1,0,0
1351153,823,-8275,-50,-1,1,0,0
1351158,823,-8275,-56,-1,1,0,0
1351163,820,-8277,-59,-1,1,0,0
1351168,817,-8282,-65,-1,1,0,0
1351173,811,-8284,-69,-1,1,0,0
1351178,805,-8285,-65,-1,1,0,0
1351183,801,-8286,-60,-1,2,0,0
1351188,801,-8288,-58,-1,2,0,0
1351193,800,-8291,-57,-1,2,-1,0
1351198,803,-8290,-49,-1,1,0,0
1351203,801,-8290,-45,-1,1,0,0
1351208,805,-8290,-41,-1,1,-1,0
1351213,804,-8288,-41,-1,0,0,0
1351218,804,-8290,-43,-1,0,0,0
1351223,804,-8291,-46,-1,0,-1,0
1351228,802,-8291,-43,-1,0,-1,0
1351233,800,-8288,-43,-1,0,0,0
1351238,799,-8284,-35,-1,0,-1,0
1351243,799,-8284,-32,-1,0,0,0
1351248,798,-8285,-38,-1,0,0,0
1351253,798,-8283,-41,-1,0,0,0
1351258,804,-8282,-47,-1,0,0,0
1351263,803,-8281,-46,-1,0,0,0
1351268,799,-8280,-44,-1,0,0,0
1351273,791,-8277,-36,-1,0,-1,0
1351278,783,-8275,-32,-1,0,-1,0
1351283,780,-8278,-26,-1,0,-1,0
1351288,777,-8280,-25,-1,0,0,0
1351293,775,-8282,-25,-1,0,-1,0
1351298,774,-8284,-22,-1,0,-1,0
1351303,771,-8288,-22,-1,0,-1,0
1351308,767,-8290,-20,-1,0,-1,0
1351313,764,-8291,-18,-1,0,-1,0
1351318,762,-8289,-16,-1,1,-1,0
1351323,760,-8285,-18,-1,1,-1,0
1351328,763,-8286,-30,-1,1,-1,0
1351333,768,-8285,-33,-1,1,-1,0
1351338,773,-8285,-38,-1,1,-1,0
1351343,777,-8285,-40,-1,1,-1,0
1351348,776,-8284,-46,-1,1,-1,0
1351353,773,-8282,-51,-1,1,-1,0
1351358,769,-8281,-52,-1,1,-1,0
1351363,769,-8280,-54,-1,1,-1,0
1351368,773,-8281,-56,-1,0,-1,0
1351373,775,-8282,-60,-1,0,-1,0
1351378,775,-8282,-68,-1,0,-1,0
1351383,771,-8281,-73,-1,0,-1,0
1351388,764,-8283,-79,-1,0,-1,0
1351393,759,-8281,-88,-1,1,-1,0
1351398,756,-8278,-89,-1,1,-1,0
1351403,759,-8279,-90,-1,1,-1,0
1351408,763,-8277,-96,-1,1,-1,0
1351413,767,-8277,-94,-1,2,-1,0
1351418,775,-8278,-91,-1,2,-1,0
1351423,780,-8282,-85,-1,1,-1,0
1351428,783,-8284,-77,-1,1,-1,0
1351433,784,-8281,-69,-1,0,-1,0
1351438,784,-8281,-66,-1,0,-1,0
1351443,784,-8279,-73,-1,0,-1,0
1351448,785,-8281,-79,-1,0,-1,0
1351453,787,-8284,-88,-1,0,-1,0
1351458,793,-8286,-93,-1,0,-1,0
1351463,797,-8286,-100,-1,0,-1,0
1351468,796,-8286,-104,-1,1,-1,0
1351473,794,-8284,-102,-1,1,-1,0
1351478,795,-8281,-101,-1,1,-1,0
1351483,800,-8281,-104,-1,2,-1,0
1351488,808,-8281,-113,-1,2,-1,0
1351493,812,-8280,-119,-1,2,-1,0
1351498,820,-8279,-117,-1,2,-1,0
1351503,827,-8280,-114,-1,1,-1,0
1351508,830,-8280,-108,-1,1,-1,0
1351513,832,-8283,-104,-1,1,-1,0
1351518,837,-8281,-97,-1,1,-1,0
1351523,839,-8281,-95,-1,1,-1,0
1351528,843,-8279,-98,-1,1,-1,0
1351533,849,-8278,-104,-1,1,-1,0
1351538,852,-8280,-111,-1,1,-1,0
1351543,854,-8280,-113,-1,1,-1,0
1351548,856,-8281,-115,-1,1,-1,0
1351553,856,-8285,-112,-1,1,-1,0
1351558,857,-8289,-111,-1,1,-1,0
1351563,859,-8288,-110,-1,0,-1,0
1351568,863,-8283,-117,-1,0,0,0
1351573,868,-8282,-123,-1,1,0,0
1351578,871,-8282,-127,-1,1,0,0
1351583,871,-8284,-130,-1,1,-1,0
1351588,868,-8285,-127,-1,1,-1,0
1351593,863,-8286,-126,-1,1,0,0
1351598,856,-8287,-123,-1,1,0,0
1351603,851,-8289,-122,-1,1,0,0
1351608,848,-8291,-119,-1,1,0,0
1351613,851,-8290,-116,-1,1,0,0
1351618,852,-8290,-109,-1,1,0,0
1351623,850,-8288,-104,-1,1,0,0
1351628,846,-8285,-96,-1,1,0,0
1351633,841,-8282,-96,-1,1,0,0
1351638,837,-8279,-100,-1,0,0,0
1351643,834,-8277,-108,-1,0,0,0
1351648,832,-8278,-115,-1,1,0,0
1351653,832,-8277,-123,-1,1,0,0
1351658,834,-8280,-132,-1,1,0,0
1351663,835,-8280,-132,-1,1,0,0
1351668,835,-8279,-131,-1,1,0,0
1351673,837,-8279,-135,-1,1,0,0
1351678,838,-8279,-137,-1,1,0,0
1351683,841,-8284,-132,-1,0,0,0
1351688,844,-8288,-130,-1,0,0,0
1351693,843,-8289,-129,-1,0,0,0
1351698,842,-8284,-136,-1,0,0,0
1351703,841,-8280,-136,-1,0,0,0
1351708,837,-8276,-133,0,0,0,0
1351713,834,-8278,-131,0,0,0,0
1351718,834,-8279,-132,0,0,0,0
1351723,837,-8278,-132,0,0,0,0
1351728,843,-8277,-140,0,0,0,0
1351733,846,-8276,-152,0,0,0,0
1351738,850,-8279,-164,0,0,0,0
1351743,850,-8282,-166,0,0,0,0
1351748,848,-8282,-169,0,0,0,5
1351753,848,-8282,-174,0,0,0,5
1351758,847,-8279,-180,0,0,0,5
1351763,847,-8278,-182,0,0,0,5
1351768,848,-8279,-189,0,-1,0,5
1351773,849,-8281,-197,0,-1,0,5
1351778,851,-8282,-208,0,-1,0,5
1351782,851,-8284,-226,0,-1,0,5
1351788,851,-8282,-234,0,-1,0,5
1351793,852,-8283,-240,0,-1,0,5
1351798,850,-8284,-243,0,-2,0,5
1351803,849,-8282,-241,0,-2,0,5
1351808,852,-8283,-245,0,-2,0,5
1351813,857,-8282,-252,0,-2,0,5
1351818,863,-8282,-260,0,-2,0,5
1351823,864,-8284,-265,0,-2,0,5
1351828,866,-8282,-267,0,-2,0,5
1351833,863,-8281,-268,0,-2,0,5
1351838,859,-8281,-260,1,-2,0,5
1351843,855,-8281,-258,1,-2,0,5
1351848,854,-8282,-251,1,-2,0,5
1351853,854,-8282,-242,1,-3,0,5
1351858,855,-8281,-235,1,-3,0,5
1351863,853,-8282,-231,1,-3,0,5
1351868,846,-8282,-225,1,-3,0,5
1351873,836,-8282,-215,1,-3,0,5
1351878,827,-8283,-209,1,-3,0,5
1351883,821,-8286,-206,1,-3,0,5
1351888,815,-8285,-200,1,-3,0,5
1351893,814,-8286,-189,1,-4,0,5
1351898,811,-8285,-177,1,-4,0,5
1351902,807,-8283,-166,1,-4,0,5
1351908,799,-8285,-151,1,-4,0,5
1351913,792,-8284,-135,1,-4,0,5
1351917,784,-8285,-120,1,-4,0,5
1351923,772,-8288,-109,1,-4,0,5
1351928,760,-8289,-96,1,-4,0,5
1351932,755,-8291,-82,1,-3,0,5
1351938,749,-8292,-67,1,-3,0,5
1351943,744,-8292,-48,1,-3,0,5
1351947,739,-8295,-33,1,-2,0,5
1351953,734,-8296,-18,1,-2,0,5
1351958,727,-8294,-3,1,-2,0,5
1351962,727,-8290,10,1,-2,0,5
1351968,726,-8288,22,1,-1,0,5
1351973,728,-8289,25,1,-1,0,5
1351977,728,-8286,24,1,-2,0,5
1351983,731,-8285,26,1,-2,0,5
1351988,732,-8286,33,1,-1,0,5
1351993,734,-8286,31,1,-1,0,5
1351997,739,-8286,33,0,-1,0,5
1352003,743,-8284,39,0,0,0,5
1352008,747,-8284,41,0,0,0,5
1352012,750,-8283,44,0,0,0,5
1352018,760,-8282,37,0,0,0,5
1352022,764,-8282,37,0,0,0,5
1352027,771,-8285,40,0,0,0,5
1352032,776,-8286,43,0,0,0,5
1352038,780,-8287,44,0,0,0,5
1352042,784,-8288,44,0,0,0,5
1352047,784,-8288,41,0,0,0,5
1352053,789,-8285,45,0,0,0,5
1352058,793,-8285,47,0,0,0,5
1352062,800,-8284,48,0,0,0,5
1352068,805,-8283,51,0,0,0,5
1352072,808,-8283,51,0,0,0,5
1352077,808,-8286,47,0,0,0,5
1352083,811,-8284,43,0,0,0,5
1352088,814,-8283,42,0,0,0,5
1352093,815,-8283,46,0,0,0,5
1352097,818,-8281,47,0,0,0,5
1352103,820,-8281,51,0,0,0,5
1352107,823,-8281,57,0,0,0,5
1352112,827,-8281,59,0,0,0,5
1352117,825,-8283,63,0,0,0,5
1352122,824,-8283,70,0,0,0,5
1352127,817,-8283,72,0,0,0,5
1352132,809,-8284,73,0,0,0,5
1352137,802,-8285,81,0,0,0,5
1352143,797,-8286,85,0,0,0,5
1352148,793,-8286,89,0,0,0,5
1352152,791,-8287,96,0,0,0,5
1352157,785,-8288,96,0,0,0,5
1352162,776,-8288,99,0,0,0,5
1352167,765,-8287,97,0,0,0,5
1352172,758,-8287,94,0,1,0,5
1352177,754,-8289,90,0,1,0,5
1352183,754,-8289,86,0,1,0,5
1352187,758,-8288,80,-1,1,0,5
1352192,763,-8288,77,-1,1,0,5
1352197,765,-8287,72,-1,1,0,5
1352202,763,-8288,68,-1,1,0,5
1352207,757,-8289,67,-1,1,0,5
1352212,752,-8289,67,-1,1,0,5
1352217,744,-8288,68,-1,1,0,5
1352222,738,-8286,66,-1,2,0,5
1352227,734,-8286,66,-1,2,0,5
1352232,732,-8287,65,-1,2,0,5
1352237,729,-8286,63,-1,2,0,5
1352242,725,-8286,63,-1,2,0,5
1352247,720,-8285,64,-1,2,0,5
1352252,714,-8287,62,-1,2,0,5
1352257,713,-8288,60,-1,2,0,5
1352262,710,-8290,55,-1,2,0,5
1352267,705,-8290,44,-1,2,0,5
1352272,704,-8290,34,-1,2,0,5
1352277,702,-8291,31,-1,2,0,5
1352282,702,-8291,26,-1,3,0,5
1352287,702,-8290,19,-1,3,0,5
1352292,703,-8285,8,-1,3,-1,5
1352297,703,-8286,5,-1,3,0,5
1352302,705,-8285,5,-1,3,0,5
1352307,706,-8284,0,-1,3,-1,5
1352312,710,-8283,-3,-1,3,-1,5
1352317,715,-8285,-6,-1,3,-1,5
1352322,715,-8285,-6,-1,3,-1,5
1352327,716,-8285,-9,-1,3,-1,5
1352332,715,-8284,-13,-1,3,-1,5
1352337,714,-8283,-16,-1,3,-1,5
1352342,716,-8284,-17,-1,3,-1,5
1352347,719,-8283,-8,-1,3,-1,5
1352352,721,-8282,-5,-1,2,-1,5
1352357,723,-8282,1,-1,2,-1,5
1352362,721,-8282,-1,-1,1,-1,5
1352367,721,-8283,-2,-1,1,-1,5
1352372,721,-8281,-5,-1,2,-1,5
1352377,720,-8281,-10,-1,2,-1,5
1352382,722,-8281,-18,-1,2,-1,5
1352387,724,-8282,-20,-1,2,-1,5
1352392,728,-8283,-15,-1,2,-1,5
1352397,733,-8285,-15,-1,2,-1,5
1352402,738,-8287,-14,-1,2,-1,5
1352407,745,-8286,-12,-1,2,-1,5
1352412,754,-8288,-7,-1,1,-1,5
1352417,761,-8289,-2,-1,0,-1,5
1352422,770,-8289,-1,-1,0,-1,5
1352427,776,-8290,11,-1,-1,-1,5
1352432,787,-8289,15,-1,-1,-1,5
1352437,799,-8288,19,-1,-2,-1,5
1352442,818,-8289,36,-1,-4,-1,5
1352447,864,-8289,55,-1,-8,-1,5
1352452,928,-8286,76,-1,-17,-1,5
1352457,1033,-8283,86,-1,-30,-1,5
1352462,1174,-8277,69,-1,-47,-1,5
1352467,1355,-8271,14,0,-68,-1,5
1352472,1555,-8265,-93,1,-93,-1,5
1352477,1775,-8258,-244,1,-120,-1,5
1352482,2032,-8252,-456,2,-148,0,5
1352487,2301,-8240,-740,3,-178,0,5
1352492,2576,-8230,-1084,5,-210,0,5
1352497,2833,-8217,-1463,7,-245,1,5
1352502,3061,-8208,-1856,8,-285,1,5
1352507,3248,-8206,-2208,10,-328,1,5
1352512,3393,-8200,-2493,12,-368,1,5
1352517,3509,-8193,-2697,14,-401,2,5
1352522,3620,-8183,-2785,16,-423,2,5
1352527,3738,-8171,-2757,17,-437,3,5
1352532,3835,-8158,-2604,18,-439,3,5
1352537,3923,-8152,-2351,19,-435,4,5
1352542,4044,-8144,-2018,19,-427,4,5
1352547,4157,-8132,-1638,20,-419,4,5
1352552,4251,-8123,-1243,20,-416,5,5
1352557,4296,-8119,-828,20,-416,5,5
1352562,4265,-8116,-433,20,-418,6,5
1352567,4171,-8115,-74,20,-420,6,5
1352572,4026,-8114,271,20,-419,6,5
1352577,3807,-8115,659,20,-416,6,5
1352582,3660,-8115,831,21,-414,6,5
1352587,3494,-8119,1021,21,-410,6,5
1352592,3359,-8123,1142,21,-408,6,5
1352597,3208,-8130,1192,21,-406,6,5
1352602,3015,-8137,1301,20,-402,6,5
1352607,2831,-8138,1386,20,-392,5,5
1352612,2604,-8144,1535,20,-381,5,5
1352617,2376,-8148,1704,20,-374,5,5
1352622,2160,-8147,1845,20,-366,5,5
1352627,1971,-8150,1973,20,-356,5,5
1352632,1807,-8156,2040,20,-343,4,5
1352637,1662,-8167,2107,19,-326,4,5
1352642,1529,-8178,2186,18,-307,3,5
1352647,1412,-8187,2279,17,-290,3,5
1352652,1304,-8193,2423,16,-275,2,5
1352657,1082,-8194,2653,15,-259,2,5
1352662,847,-8196,2881,14,-240,2,5
1352667,617,-8200,3085,13,-216,2,5
1352672,413,-8211,3246,12,-191,2,5
1352677,254,-8226,3344,11,-164,2,5
1352682,107,-8241,3436,9,-136,1,5
1352687,-44,-8255,3521,7,-108,1,5
1352692,-218,-8267,3654,6,-80,0,5
1352697,-391,-8277,3836,4,-51,0,5
1352702,-546,-8280,4025,2,-25,0,5
1352707,-639,-8286,4228,1,-2,0,5
1352712,-671,-8293,4415,0,18,0,5
1352717,-657,-8301,4568,-2,34,0,5
1352722,-626,-8308,4709,-4,51,-1,5
1352727,-615,-8311,4844,-6,68,-1,5
1352732,-635,-8311,4985,-8,89,-2,5
1352737,-700,-8311,5136,-10,114,-2,5
1352742,-790,-8307,5285,-12,143,-3,5
1352747,-866,-8305,5421,-13,174,-3,5
1352752,-907,-8299,5533,-15,209,-3,5
1352757,-895,-8294,5620,-17,244,-3,5
1352762,-829,-8288,5687,-20,281,-4,5
1352767,-754,-8277,5779,-22,319,-5,5
1352772,-676,-8264,5879,-24,356,-5,5
1352777,-577,-8243,5970,-26,395,-6,5
1352782,-432,-8219,6038,-27,432,-6,5
1352787,-191,-8196,6040,-28,469,-6,5
1352792,148,-8171,5969,-29,504,-7,5
1352797,582,-8151,5824,-30,535,-7,5
1352802,977,-8132,5655,-31,564,-8,5
1352807,1534,-8110,5486,-32,583,-8,5
1352812,2120,-8086,5318,-33,590,-8,5
1352817,2745,-8070,5126,-33,591,-7,5
1352822,3439,-8049,4875,-33,589,-7,5
1352827,4169,-8030,4588,-33,579,-5,5
1352832,4944,-8006,4242,-33,558,-3,5
1352837,5688,-7978,3864,-32,524,-1,5
1352842,6426,-7949,3408,-30,489,-1,5
1352847,7053,-7916,2870,-27,461,-1,5
1352852,7533,-7908,2350,-23,433,-1,5
1352857,7866,-7882,1667,-20,403,-2,5
1352862,8065,-7905,1087,-17,370,-2,5
1352867,8043,-7905,321,-17,334,-2,5
1352872,7861,-7923,-507,-17,290,-2,5
1352877,7522,-7956,-1399,-17,246,-2,5
1352882,6974,-7983,-2302,-16,208,-1,5
1352887,6281,-8018,-3031,-15,178,-1,5
1352892,5553,-8049,-3484,-14,158,-2,5
1352897,4855,-8076,-3833,-13,146,-1,5
1352902,4258,-8095,-4020,-11,138,-1,5
1352907,3771,-8115,-4064,-9,131,-1,5
1352912,3411,-8132,-4044,-7,119,0,5
1352917,3192,-8145,-3976,-4,101,0,5
1352922,3042,-8156,-3872,-3,80,1,5
1352927,2959,-8167,-3741,-1,56,1,5
1352932,2883,-8175,-3593,0,35,1,5
1352937,2767,-8185,-3422,1,20,0,5
1352942,2634,-8194,-3196,1,8,0,5
1352947,2453,-8205,-2967,2,0,0,5
1352952,2266,-8216,-2724,2,-5,0,5
1352957,2086,-8221,-2458,2,-8,0,5
1352962,1952,-8225,-2212,3,-11,0,5
1352967,1855,-8228,-1961,3,-17,0,5
1352972,1783,-8230,-1723,3,-24,-1,5
1352977,1721,-8233,-1525,4,-30,-1,5
1352982,1659,-8235,-1345,4,-36,-1,5
1352987,1593,-8239,-1188,4,-40,-1,5
1352992,1532,-8242,-1060,4,-43,-1,5
1352997,1405,-8251,-926,4,-46,0,5
1353002,1188,-8252,-789,4,-50,-1,5
1353007,1075,-8262,-691,3,-53,-1,5
1353012,874,-8268,-576,3,-51,-1,5
1353017,743,-8274,-464,3,-49,0,5
1353022,650,-8276,-352,3,-45,0,5
1353027,577,-8275,-194,4,-40,0,5
1353032,602,-8277,-90,4,-38,0,5
1353037,599,-8276,14,4,-37,0,5
1353042,644,-8278,97,4,-39,0,5
1353047,644,-8282,140,3,-40,0,5
1353052,599,-8286,220,3,-41,0,5
1353057,541,-8291,290,2,-40,-1,5
1353062,438,-8295,365,2,-37,-1,5
1353067,375,-8298,444,2,-34,-1,5
1353072,323,-8298,497,2,-30,-1,5
1353077,311,-8299,540,2,-28,0,5
1353082,322,-8300,557,1,-25,-1,5
1353087,332,-8302,581,1,-22,-1,5
1353092,337,-8301,603,0,-20,-1,5
1353097,320,-8302,622,0,-17,-2,5
1353102,302,-8303,651,0,-15,-2,5
1353107,270,-8305,648,0,-13,-2,5
1353112,260,-8306,639,0,-10,-1,5
1353117,261,-8305,592,0,-7,-1,5
1353122,279,-8306,527,-1,-3,-2,5
1353127,319,-8305,470,-1,1,-2,5
1353132,356,-8302,410,-1,4,-2,5
1353137,387,-8299,367,-2,6,-2,5
1353142,412,-8299,339,-2,7,-2,5
1353147,429,-8300,304,-2,7,-2,5
1353152,446,-8299,260,-1,8,-2,5
1353157,481,-8297,200,-1,9,-2,5
1353162,519,-8296,130,-1,9,-2,5
1353167,560,-8294,66,-2,10,-2,5
1353172,601,-8293,6,-2,11,-2,5
1353177,634,-8290,-40,-2,12,-2,5
1353182,658,-8288,-72,-2,13,-2,5
1353187,682,-8288,-90,-2,14,-2,5
1353192,705,-8287,-120,-1,14,-2,5
1353197,738,-8287,-157,-1,14,-2,5
1353202,779,-8286,-188,-1,14,-2,5
1353207,819,-8286,-220,-1,13,-2,5
1353212,857,-8286,-237,-1,12,-2,5
1353217,889,-8282,-240,-1,12,-2,5
1353222,911,-8281,-234,-1,11,-2,5
1353227,929,-8281,-225,-1,11,-1,5
1353232,951,-8280,-217,-1,10,-1,5
1353237,971,-8279,-222,-1,8,-1,5
1353242,995,-8280,-236,-1,7,-1,5
1353247,1018,-8281,-257,-1,5,-1,5
1353252,1030,-8281,-279,-1,5,-1,5
1353257,1040,-8278,-294,-1,5,-1,5
1353262,1044,-8277,-305,-1,5,-1,5
1353267,1039,-8277,-323,0,4,-1,5
1353272,1041,-8277,-335,0,4,-1,5
1353277,1044,-8278,-354,0,3,-1,5
1353282,1049,-8277,-375,0,2,0,5
1353287,1064,-8275,-396,0,2,0,5
1353292,1077,-8270,-413,0,1,0,5
1353297,1081,-8270,-427,0,1,0,5
1353302,1084,-8270,-432,0,0,0,5
1353307,1076,-8271,-437,0,-1,0,5
1353312,1065,-8273,-438,1,-2,0,5
1353317,1051,-8275,-434,1,-2,0,5
1353322,1037,-8278,-425,1,-3,0,5
1353327,1026,-8275,-410,1,-4,0,5
1353332,1022,-8275,-393,1,-5,0,5
1353337,1011,-8273,-371,1,-6,0,5
1353342,997,-8273,-344,1,-8,0,5
1353347,982,-8271,-314,1,-9,0,5
1353352,961,-8273,-291,1,-10,0,5
1353357,938,-8278,-273,1,-11,0,5
1353362,914,-8282,-250,1,-11,0,5
1353367,881,-8283,-227,1,-11,0,5
1353372,850,-8283,-203,1,-10,0,5
1353377,822,-8283,-171,1,-9,0,5
1353382,791,-8282,-133,1,-7,0,5
1353387,767,-8284,-98,1,-6,0,5
1353392,748,-8285,-64,1,-6,0,5
1353397,731,-8286,-39,1,-5,0,5
1353402,717,-8289,-15,1,-5,0,5
1353407,703,-8292,5,1,-5,0,5
1353412,684,-8292,23,1,-4,0,5
1353417,669,-8295,47,0,-4,0,5
1353422,652,-8298,65,0,-4,0,5
1353427,634,-8301,74,0,-3,0,5
1353432,623,-8302,80,0,-3,0,5
1353437,613,-8301,81,0,-2,0,5
1353442,604,-8301,83,0,-1,0,5
1353447,602,-8302,88,0,-1,0,5
1353452,598,-8303,84,0,0,0,5
1353457,594,-8303,87,0,0,0,5
1353462,592,-8299,96,0,0,0,5
1353467,585,-8295,92,0,0,0,5
1353472,580,-8296,89,0,0,0,5
1353477,579,-8294,80,0,1,0,5
1353482,576,-8295,65,0,1,0,5
1353487,577,-8294,54,0,1,0,5
1353492,578,-8293,36,0,2,-1,5
1353497,581,-8290,25,0,2,-1,5
1353502,588,-8291,14,0,2,-1,5
1353507,593,-8292,2,0,2,-1,5
1353512,594,-8291,-10,0,2,-1,5
1353517,600,-8289,-22,0,2,-1,5
1353522,612,-8284,-37,0,2,-1,5
1353527,617,-8285,-58,0,2,-1,5
1353532,626,-8287,-75,0,2,-1,5
1353537,635,-8286,-84,0,2,-1,5
1353542,640,-8286,-93,0,1,-1,5
1353547,651,-8282,-94,0,1,-1,5
1353552,667,-8280,-94,0,1,-1,5
1353557,677,-8279,-98,0,0,-1,5
1353562,684,-8276,-101,0,0,-1,5
1353567,689,-8278,-104,0,0,-1,5
1353572,695,-8277,-108,0,0,-1,5
1353577,706,-8278,-111,0,0,-1,5
1353582,713,-8280,-112,0,-1,-1,5
1353587,719,-8279,-109,0,-1,-1,5
1353592,724,-8279,-105,0,-1,-1,5
1353597,731,-8276,-106,0,-1,-1,5
1353602,741,-8277,-107,0,-1,-1,5
1353607,753,-8280,-99,0,-1,-1,5
1353612,759,-8281,-98,0,-1,-1,5
1353617,761,-8283,-100,0,-1,-1,5
1353622,769,-8282,-98,0,-1,-1,5
1353627,769,-8282,-99,0,-1,-1,5
1353632,769,-8282,-101,0,-1,-1,5
1353637,775,-8280,-99,0,-1,-1,5
1353642,775,-8281,-94,0,-1,-1,5
1353647,776,-8281,-91,0,-1,-1,5
1353652,780,-8282,-88,0,-1,-1,5
1353657,784,-8282,-95,0,-1,-1,5
1353662,787,-8286,-102,0,0,-1,5
1353667,789,-8285,-102,0,0,-1,5
1353672,788,-8282,-105,0,0,-1,5
1353677,792,-8281,-104,0,1,-1,5
1353682,797,-8284,-98,0,1,-1,5
1353687,797,-8283,-88,0,2,-1,5
1353692,802,-8285,-73,0,3,-1,5
1353697,805,-8285,-58,0,3,-1,5
1353702,800,-8285,-49,0,4,-1,5
1353707,795,-8284,-41,0,6,-1,5
1353712,791,-8282,-30,0,7,-1,5
1353717,789,-8283,-29,0,8,-1,5
1353722,795,-8282,-24,0,8,-1,5
1353727,802,-8282,-16,-1,8,-1,5
1353732,810,-8282,-8,-1,8,-1,5
1353737,819,-8281,-6,-1,7,-1,5
1353742,829,-8278,0,0,6,-1,5
1353747,837,-8276,1,0,5,0,0
1353752,843,-8274,2,0,4,-1,0
1353757,841,-8273,-4,0,4,0,0
1353762,836,-8275,-16,-1,3,0,0
1353767,833,-8277,-26,-1,3,0,0
1353772,829,-8278,-36,-1,4,0,0
1353777,820,-8279,-44,-1,4,0,0
1353782,815,-8283,-39,-1,4,0,0
1353787,811,-8284,-40,-1,5,0,0
1353792,808,-8284,-37,-1,5,0,0
1353797,814,-8285,-35,-1,6,0,0
1353802,817,-8288,-30,-1,5,0,0
1353807,821,-8289,-24,-1,5,0,0
1353812,821,-8289,-15,-1,5,0,0
1353817,822,-8292,-10,-1,5,0,0
1353822,817,-8293,-12,-1,5,0,0
1353827,817,-8294,-18,-1,5,0,0
1353832,813,-8292,-28,-1,5,0,0
1353837,813,-8289,-32,-1,4,0,0
1353842,818,-8286,-31,-1,4,0,0
1353847,817,-8284,-30,-1,3,0,0
1353852,819,-8282,-27,-1,2,0,0
1353857,819,-8282,-31,-1,1,0,0
1353862,815,-8282,-39,-1,1,0,0
1353867,811,-8281,-43,-1,1,0,0
1353872,802,-8282,-57,-1,1,0,0
1353877,791,-8283,-61,-1,1,0,0
1353882,783,-8282,-68,-1,1,0,0
1353887,775,-8283,-67,-1,2,0,0
1353892,770,-8283,-67,-1,3,0,0
1353897,771,-8283,-62,-1,3,0,0
1353902,770,-8286,-61,-1,3,0,0
1353907,772,-8288,-61,-1,3,0,0
