millis,ax,ay,az,gx,gy,gz,label
1770915,431,-8298,-128,2,-6,-2,0
1770920,423,-8300,-126,2,-6,-2,0
1770925,420,-8304,-118,2,-5,-2,0
1770930,419,-8306,-105,2,-4,-2,0
1770935,421,-8307,-91,2,-3,-2,0
1770940,426,-8308,-83,2,-2,-2,0
1770945,439,-8307,-69,2,-2,-2,0
1770949,456,-8307,-52,2,-2,-2,0
1770955,473,-8306,-36,2,-1,-2,0
1770960,498,-8304,-18,2,-2,-2,0
1770965,525,-8302,-5,2,-2,-2,0
1770970,553,-8296,12,2,-2,-2,0
1770975,580,-8294,29,2,-2,-2,0
1770980,606,-8296,45,2,-3,-2,0
1770985,635,-8296,58,2,-4,-2,0
1770990,661,-8293,67,2,-5,-3,0
1770995,683,-8293,71,2,-6,-2,0
1771000,707,-8296,69,2,-8,-2,0
1771005,728,-8295,63,2,-8,-2,0
1771010,747,-8295,57,2,-8,-2,0
1771014,761,-8297,56,2,-8,-2,0
1771020,765,-8299,58,2,-7,-2,0
1771025,761,-8302,62,2,-6,-2,0
1771030,748,-8301,72,2,-5,-2,0
1771035,733,-8303,80,2,-4,-2,0
1771040,711,-8303,91,2,-3,-2,0
1771045,693,-8305,101,2,-3,-2,0
1771050,680,-8309,111,2,-2,-2,0
1771055,674,-8311,123,2,-1,-2,0
1771060,676,-8308,139,2,-1,-2,0
1771065,683,-8307,149,2,-1,-2,0
1771070,695,-8307,159,2,0,-2,0
1771075,712,-8307,164,2,0,-2,0
1771080,730,-8307,176,2,0,-2,0
1771085,750,-8306,187,2,0,-2,0
1771090,769,-8304,199,2,0,-2,0
1771095,789,-8304,215,2,0,-2,0
1771100,814,-8302,243,1,0,-2,0
1771105,839,-8300,275,1,0,-2,0
1771110,864,-8298,308,1,0,-2,0
1771115,887,-8298,342,1,0,-2,0
1771120,906,-8295,368,1,0,-2,0
1771125,929,-8295,388,1,-1,-2,0
1771130,949,-8295,399,1,-1,-1,0
1771135,963,-8298,400,1,-2,-1,0
1771140,970,-8297,393,1,-2,-1,0
1771145,976,-8297,377,1,-3,-1,0
1771150,974,-8295,355,1,-3,-1,0
1771155,968,-8295,329,1,-4,-1,0
1771160,961,-8297,304,1,-4,-1,0
1771165,958,-8299,286,1,-4,-1,0
1771170,951,-8299,267,1,-4,-1,0
1771175,945,-8296,247,1,-3,-1,0
1771180,941,-8295,233,1,-2,-1,0
1771185,935,-8295,215,1,-2,-1,0
1771190,933,-8295,199,1,-1,-1,0
1771195,932,-8295,189,1,-1,-1,0
1771200,931,-8293,180,1,-1,-1,0
1771205,924,-8295,176,1,-1,-1,0
1771210,916,-8296,179,1,-1,-1,0
1771215,906,-8298,187,1,-1,-1,0
1771220,891,-8297,204,1,-1,-1,0
1771225,874,-8295,219,1,-1,-1,0
1771230,858,-8292,237,1,-1,-1,0
1771235,842,-8291,251,1,-1,-1,0
1771240,828,-8292,255,1,-2,-1,0
1771245,810,-8293,257,1,-2,-1,0
1771250,796,-8293,258,1,-2,-1,0
1771255,780,-8294,249,1,-2,-1,0
1771260,768,-8294,244,1,-2,-1,0
1771265,759,-8295,235,1,-2,-1,0
1771270,753,-8292,229,1,-3,-1,0
1771275,744,-8293,217,1,-3,-1,0
1771280,733,-8294,198,1,-4,-1,0
1771285,723,-8295,185,1,-3,-1,0
1771290,714,-8297,170,1,-3,-1,0
1771295,706,-8297,163,1,-3,-1,0
1771300,696,-8299,148,1,-2,-1,0
1771305,690,-8299,136,1,-1,-1,0
1771310,695,-8298,135,1,-1,-1,0
1771315,701,-8301,133,1,-1,-1,0
1771320,709,-8304,133,1,-1,-1,0
1771325,722,-8302,131,1,0,-1,0
1771330,737,-8299,133,1,0,-1,0
1771335,754,-8300,140,1,1,-1,0
1771340,771,-8297,142,1,1,-1,0
1771345,783,-8295,149,1,1,0,0
1771350,799,-8294,159,1,1,0,0
1771355,813,-8294,164,1,1,0,0
1771360,823,-8294,167,1,1,0,0
1771365,832,-8292,168,1,1,0,0
1771370,836,-8289,168,1,1,0,0
1771375,836,-8291,170,1,1,0,0
1771380,836,-8292,174,1,1,0,0
1771385,833,-8291,179,1,1,0,0
1771390,828,-8291,188,1,1,0,0
1771395,822,-8292,195,1,1,0,0
1771400,819,-8295,202,1,0,0,0
1771405,815,-8296,206,1,0,0,0
1771410,807,-8298,209,1,0,0,0
1771415,802,-8296,211,1,0,0,0
1771420,796,-8298,211,1,0,0,0
1771425,790,-8297,217,1,0,0,0
1771430,784,-8297,225,1,0,0,0
1771435,777,-8298,234,1,0,0,0
1771440,771,-8297,249,1,1,0,0
1771445,767,-8296,268,1,1,0,0
1771450,765,-8296,291,0,1,0,0
1771455,765,-8296,307,0,1,0,0
1771460,763,-8295,327,0,1,0,0
1771465,763,-8297,342,0,1,0,0
1771470,761,-8296,358,0,1,0,0
1771475,760,-8297,365,0,1,0,0
1771480,757,-8299,363,0,0,0,0
1771485,751,-8298,355,0,0,0,0
1771490,743,-8296,340,0,-1,0,0
1771495,735,-8299,319,0,-1,0,0
1771500,725,-8301,294,0,-1,0,0
1771505,711,-8304,273,0,-1,0,0
1771510,698,-8303,257,0,-1,0,0
1771515,684,-8305,243,0,-1,0,0
1771520,672,-8302,236,0,0,0,0
1771525,667,-8301,230,0,0,0,0
1771530,667,-8299,232,0,0,0,0
1771535,674,-8299,241,0,0,0,0
1771540,684,-8297,249,0,0,0,0
1771545,694,-8298,258,0,0,0,0
1771550,704,-8299,267,0,-1,0,0
1771555,711,-8297,268,0,-1,0,0
1771560,714,-8298,260,0,0,0,0
1771565,712,-8297,254,0,-1,0,0
1771570,712,-8297,251,0,-1,0,0
1771575,714,-8294,240,0,0,0,0
1771580,719,-8295,236,0,0,0,0
1771585,724,-8295,231,0,0,0,0
1771590,733,-8294,221,0,0,0,0
1771595,740,-8295,217,0,0,0,0
1771600,745,-8292,215,0,0,0,0
1771605,750,-8293,214,0,0,0,0
1771610,750,-8296,222,0,-1,0,0
1771615,742,-8299,225,0,-1,0,0
1771620,730,-8300,232,0,-1,0,0
1771625,718,-8299,231,0,-1,0,0
1771630,710,-8297,226,0,-1,0,0
1771635,700,-8296,213,0,-1,0,0
1771640,690,-8296,196,0,-1,0,0
1771645,683,-8299,175,0,-1,0,0
1771650,673,-8302,159,0,-1,0,0
1771655,660,-8303,147,0,-1,0,0
1771660,650,-8302,137,0,0,0,0
1771665,643,-8302,144,0,0,0,0
1771670,643,-8299,160,0,0,0,0
1771675,649,-8304,185,0,1,0,0
1771680,661,-8303,207,0,1,0,0
1771685,675,-8302,233,0,1,0,0
1771690,693,-8301,255,0,1,0,0
1771695,709,-8300,274,0,1,0,0
1771700,722,-8298,298,0,2,0,0
1771705,731,-8296,326,0,2,0,0
1771710,739,-8294,356,0,2,0,0
1771715,745,-8292,383,0,2,0,0
1771720,747,-8293,407,0,1,0,0
1771725,750,-8295,426,0,1,0,0
1771730,754,-8296,436,0,1,0,0
1771735,761,-8299,436,0,1,0,0
1771740,770,-8302,431,0,1,0,0
1771745,778,-8302,418,0,0,0,0
1771750,788,-8305,409,0,0,0,0
1771755,796,-8305,403,0,0,0,0
1771760,804,-8304,393,0,0,0,0
1771765,810,-8302,378,0,0,0,0
1771770,813,-8301,366,0,0,0,0
1771775,816,-8302,349,0,-1,0,0
1771780,820,-8304,333,0,-1,0,0
1771785,824,-8303,319,0,-2,0,0
1771790,827,-8303,313,0,-2,0,0
1771795,828,-8303,313,-1,-2,0,0
1771800,827,-8300,322,-1,-1,0,0
1771805,823,-8300,333,-1,-1,0,0
1771810,820,-8299,353,-1,-1,0,0
1771815,817,-8295,373,-1,-2,0,0
1771820,813,-8293,393,-1,-2,0,0
1771825,814,-8294,417,-1,-3,0,0
1771830,815,-8293,432,-1,-4,0,0
1771835,817,-8292,435,-1,-4,0,0
1771840,820,-8291,434,-1,-4,0,0
1771845,825,-8291,425,-1,-5,0,0
1771850,824,-8290,415,-1,-6,0,0
1771855,825,-8289,403,-1,-7,1,0
1771860,824,-8288,400,-1,-8,1,0
1771865,823,-8286,397,-1,-9,1,0
1771870,820,-8283,385,-1,-10,1,0
1771875,812,-8285,361,-1,-11,1,0
1771880,803,-8286,336,-1,-11,1,0
1771885,787,-8287,303,-1,-12,1,0
1771890,766,-8291,273,-1,-12,1,0
1771895,739,-8293,248,-1,-11,1,0
1771900,703,-8294,238,-1,-10,1,0
1771905,665,-8295,242,-1,-8,0,0
1771910,628,-8296,254,-1,-5,1,0
1771915,594,-8296,264,-1,-2,0,0
1771920,577,-8294,274,-1,0,0,0
1771925,572,-8297,284,-1,1,0,0
1771930,578,-8297,289,-1,2,0,0
1771935,600,-8296,296,-1,2,1,0
1771940,636,-8296,305,-1,2,1,0
1771945,674,-8294,315,-1,1,1,0
1771950,710,-8290,332,-1,1,0,0
1771955,735,-8288,348,-1,0,0,0
1771960,741,-8288,359,-1,-1,0,0
1771965,732,-8290,354,-1,-1,0,0
1771970,714,-8292,336,-1,-1,0,0
1771975,685,-8293,315,-1,-2,0,0
1771980,655,-8295,291,-1,-2,0,0
1771985,635,-8296,267,-1,-1,0,0
1771990,632,-8301,242,-1,-1,1,0
1771995,646,-8305,213,-1,-1,1,0
1772000,666,-8305,182,-1,0,1,0
1772005,686,-8305,150,-1,0,0,0
1772010,701,-8305,125,-1,0,0,0
1772015,708,-8304,111,-1,0,0,0
1772020,705,-8303,109,-1,0,0,0
1772025,690,-8303,122,-1,0,0,0
1772030,670,-8303,144,-1,0,0,0
1772035,646,-8302,171,-1,0,0,0
1772040,621,-8303,195,-1,0,0,0
1772045,593,-8304,213,-1,1,0,0
1772050,576,-8305,225,-1,2,0,0
1772055,574,-8307,236,-1,2,0,0
1772060,595,-8306,239,-1,2,0,0
1772065,624,-8305,240,-1,0,1,0
1772070,664,-8303,244,-1,-1,1,0
1772075,705,-8300,252,-1,-1,1,0
1772080,731,-8298,252,-1,-1,0,0
1772085,748,-8297,247,-1,-1,0,0
1772090,752,-8301,232,-1,-1,0,0
1772095,748,-8304,210,-1,-1,0,0
1772100,732,-8306,182,-1,-3,1,0
1772105,709,-8304,153,-1,-3,1,0
1772110,702,-8304,132,-1,-3,1,0
1772115,718,-8304,117,-1,-3,1,0
1772120,731,-8304,107,-1,-4,1,0
1772125,738,-8303,97,-1,-4,1,0
1772130,745,-8302,92,-1,-4,1,0
1772135,743,-8301,85,0,-4,1,0
1772140,730,-8299,86,0,-4,1,0
1772145,704,-8302,84,0,-4,1,0
1772150,666,-8303,90,0,-4,1,0
1772155,626,-8303,102,0,-4,1,0
1772160,591,-8306,123,0,-4,1,0
1772165,564,-8307,149,0,-3,1,0
1772170,550,-8305,179,0,-2,1,0
1772175,545,-8304,201,0,-1,1,0
1772180,550,-8304,218,0,-1,1,0
1772185,560,-8304,228,0,-1,0,0
1772190,570,-8303,237,0,-1,0,0
1772195,576,-8304,245,-1,-1,0,0
1772200,576,-8305,255,-1,-1,0,0
1772205,571,-8306,263,-1,-1,0,0
1772210,562,-8304,283,-1,-1,0,0
1772215,551,-8304,304,-1,-1,0,0
1772220,538,-8303,318,-1,-1,0,0
1772225,524,-8301,330,-1,-1,0,0
1772230,519,-8302,344,-1,-1,0,0
1772235,524,-8303,363,-1,-1,0,0
1772240,535,-8303,385,-1,-1,0,0
1772245,545,-8303,407,-1,-1,0,0
1772250,562,-8300,424,-1,-1,0,0
1772255,576,-8300,422,-1,-1,0,0
1772260,591,-8301,416,-1,-2,0,0
1772265,603,-8301,408,-1,-2,0,0
1772270,619,-8300,405,-1,-2,0,0
1772275,639,-8300,404,-1,-3,0,0
1772280,658,-8298,402,-1,-3,0,0
1772285,675,-8297,399,-1,-4,0,0
1772290,690,-8294,391,-1,-4,0,0
1772295,702,-8295,375,-1,-5,0,0
1772300,706,-8297,354,-1,-5,0,0
1772305,705,-8299,319,-1,-5,0,0
1772310,697,-8299,283,-1,-6,0,0
1772315,686,-8299,247,-1,-6,0,0
1772320,671,-8297,221,-1,-6,0,0
1772325,653,-8297,203,-1,-6,0,0
1772330,638,-8300,192,-1,-5,0,0
1772335,633,-8301,185,-1,-4,0,0
1772340,625,-8301,177,-1,-4,0,0
1772345,625,-8300,181,-1,-3,0,0
1772350,622,-8298,188,-1,-2,0,0
1772355,621,-8297,198,-1,-2,0,0
1772360,620,-8298,202,-1,-2,0,0
1772365,617,-8298,200,-1,-2,0,0
1772370,611,-8299,193,-1,-3,0,0
1772375,606,-8299,181,-1,-3,0,0
1772380,599,-8299,166,-1,-3,0,0
1772385,579,-8300,149,-1,-3,0,0
1772390,564,-8301,133,-1,-2,0,0
1772395,550,-8297,121,-1,-1,0,0
1772400,534,-8297,107,-1,-1,0,0
1772405,508,-8297,89,-1,-1,0,0
1772410,488,-8300,73,-1,-1,0,0
1772415,474,-8302,52,-1,-1,0,0
1772420,459,-8302,35,-1,-1,0,0
1772425,450,-8304,21,-1,-1,0,0
1772430,451,-8305,15,-1,-1,0,0
1772435,454,-8304,16,-1,-1,0,0
1772440,460,-8305,30,-1,-1,0,0
1772445,467,-8305,48,-1,-1,0,0
1772450,470,-8304,70,-1,-1,0,0
1772455,466,-8302,91,-1,-1,0,0
1772460,461,-8304,112,-1,-1,0,0
1772465,459,-8303,127,-1,-2,0,0
1772470,463,-8302,134,-1,-3,0,0
1772475,473,-8302,133,-1,-3,0,0
1772480,487,-8303,127,-1,-5,0,0
1772485,505,-8304,128,0,-6,0,0
1772490,523,-8305,127,0,-6,0,0
1772495,536,-8303,124,0,-7,-1,0
1772500,544,-8302,125,0,-7,-1,0
1772505,542,-8304,127,0,-7,-1,0
1772510,537,-8304,135,0,-8,-1,0
1772515,526,-8304,142,0,-8,-1,0
1772520,514,-8303,152,0,-9,-1,0
1772525,501,-8303,166,0,-10,-1,0
1772530,497,-8305,174,0,-11,-1,0
1772535,493,-8306,181,0,-11,-1,0
1772540,497,-8306,178,0,-10,-1,0
1772545,507,-8304,166,0,-10,-1,0
1772550,517,-8304,146,0,-10,-1,0
1772556,526,-8303,133,0,-10,-1,0
1772560,534,-8302,121,0,-10,-1,0
1772565,540,-8303,116,0,-10,-1,0
1772570,540,-8301,120,0,-11,-1,0
1772575,540,-8296,134,0,-11,-1,0
1772580,539,-8297,155,0,-12,-1,0
1772585,531,-8298,171,0,-12,-1,0
1772591,519,-8298,182,0,-13,-1,0
1772595,502,-8297,187,0,-13,-1,0
1772600,482,-8298,184,0,-12,-1,0
1772605,462,-8301,170,0,-12,-1,0
1772610,439,-8303,146,0,-11,-1,0
1772616,418,-8303,127,0,-10,-1,0
1772620,404,-8304,112,0,-8,-1,0
1772626,393,-8304,99,0,-7,-1,0
1772631,391,-8303,93,0,-5,-1,0
1772635,392,-8303,84,0,-3,-1,0
1772640,399,-8304,83,0,-2,-1,0
1772645,411,-8302,96,0,0,-1,0
1772650,426,-8300,115,0,0,-2,0
1772656,445,-8300,143,0,0,-2,0
1772661,469,-8299,175,0,0,-2,0
1772666,493,-8298,211,0,0,-2,0
1772671,519,-8298,237,0,0,-2,0
1772676,545,-8297,258,0,0,-2,0
1772680,570,-8297,271,0,0,-2,0
1772685,596,-8297,270,0,0,-2,0
1772690,628,-8297,262,0,0,-1,0
1772695,662,-8298,254,0,0,-1,0
1772701,695,-8298,244,0,-1,-1,0
1772706,728,-8299,236,0,-1,-1,0
1772711,754,-8298,230,0,-1,-1,0
1772716,771,-8294,229,0,-1,-1,0
1772721,781,-8295,228,0,0,-1,0
1772726,782,-8295,234,0,0,-1,0
1772731,776,-8294,239,0,0,-1,0
1772736,761,-8296,245,0,0,-1,0
1772741,742,-8297,251,0,0,-1,0
1772746,727,-8298,256,0,0,-1,0
1772751,719,-8299,259,0,1,-1,0
1772756,719,-8299,262,0,1,-1,0
1772761,726,-8299,264,0,1,-1,0
1772766,732,-8299,266,0,1,-1,0
1772771,747,-8300,267,0,1,-1,0
1772776,757,-8302,267,0,1,-1,0
1772781,761,-8304,265,0,1,-1,0
1772786,757,-8304,260,0,1,-1,0
1772791,752,-8305,257,-1,2,-1,0
1772796,740,-8305,262,-1,2,-1,0
1772801,730,-8305,272,-1,2,-1,0
1772806,729,-8306,287,-1,2,0,0
1772811,731,-8307,310,-1,3,0,0
1772816,744,-8304,333,-1,3,0,0
1772821,762,-8301,353,-1,3,0,0
1772826,782,-8296,368,-1,3,0,0
1772831,799,-8295,364,-1,2,0,0
1772836,810,-8297,346,-1,1,0,0
1772841,818,-8298,316,-1,1,0,0
1772846,822,-8300,281,-1,0,0,0
1772851,822,-8300,252,-1,0,0,0
1772856,811,-8301,231,-1,0,0,0
1772861,796,-8301,223,-1,-1,0,0
1772866,781,-8300,225,-1,-1,0,0
1772871,762,-8299,228,-1,-1,0,0
1772876,742,-8302,240,-1,-1,0,0
1772881,726,-8303,254,-1,-1,0,0
1772886,708,-8306,266,-1,-1,0,0
1772891,690,-8310,273,-1,-1,0,0
1772896,672,-8311,273,-1,-1,0,0
1772901,650,-8311,255,-1,-1,0,0
1772906,633,-8313,239,-1,-1,0,0
1772911,621,-8314,218,-1,-1,0,0
1772916,613,-8312,198,-1,-1,0,0
1772921,609,-8310,177,-1,-1,0,0
1772926,604,-8311,169,-1,-1,0,0
1772931,604,-8309,164,-1,-1,0,0
1772936,601,-8310,169,-1,-1,0,0
1772941,599,-8310,172,-1,0,0,0
1772946,589,-8308,171,-1,0,0,0
1772951,577,-8309,175,-1,0,0,0
1772956,564,-8309,170,-1,-1,0,0
1772961,552,-8309,166,-1,-1,0,0
1772966,543,-8311,157,-1,-1,0,0
1772971,533,-8312,143,-1,-1,0,0
1772976,524,-8313,132,-1,-1,0,0
1772981,522,-8310,122,-1,0,0,0
1772986,520,-8309,111,-1,-1,0,0
1772991,520,-8308,103,-1,-1,0,0
1772996,519,-8308,93,-1,0,0,0
1773001,518,-8307,85,-1,0,0,0
1773006,516,-8305,75,-1,0,0,0
1773011,521,-8303,60,-1,0,0,0
1773016,534,-8302,54,-1,-1,0,0
1773021,549,-8302,53,-1,-1,0,0
1773026,565,-8302,56,-1,0,0,0
1773031,578,-8303,63,0,0,0,0
1773036,593,-8302,73,0,0,0,0
1773041,598,-8301,88,0,-1,0,0
1773046,597,-8300,94,0,-1,-1,0
1773051,595,-8302,96,0,-1,-1,0
1773056,584,-8303,96,0,-1,-1,0
1773061,571,-8308,89,0,-1,0,0
1773066,560,-8311,86,0,-1,0,0
1773071,550,-8315,86,0,-1,-1,0
1773076,546,-8313,92,0,-1,-1,0
1773081,546,-8312,99,0,-1,-1,0
1773086,546,-8313,110,0,-1,-1,0
1773091,546,-8311,124,0,-1,-1,0
1773096,549,-8310,141,0,-1,-1,0
1773101,550,-8307,157,0,-1,-1,0
1773106,550,-8306,168,0,-2,-1,0
1773111,547,-8306,180,0,-2,-1,0
1773116,540,-8302,187,0,-2,-1,0
1773121,536,-8302,186,0,-2,-1,0
1773126,534,-8299,186,0,-2,-1,0
1773131,536,-8298,184,0,-3,-1,0
1773136,536,-8297,179,0,-3,-1,0
1773141,538,-8300,179,0,-3,-1,0
1773146,541,-8303,187,0,-2,-1,0
1773151,553,-8304,201,0,-2,-1,0
1773156,563,-8303,215,0,-2,-1,0
1773161,569,-8303,230,0,-2,-1,0
1773166,568,-8303,245,0,-3,-1,0
1773171,562,-8304,254,0,-3,-1,0
1773176,557,-8301,262,0,-3,-1,0
1773181,553,-8302,268,0,-4,-1,0
1773186,548,-8300,266,0,-4,-1,0
1773191,543,-8301,252,0,-4,-1,0
1773196,538,-8301,235,0,-3,-1,0
1773201,541,-8301,209,0,-2,-1,0
1773206,547,-8302,177,0,-1,-1,0
1773211,548,-8305,144,0,-1,-1,0
1773216,542,-8309,120,0,-1,-1,0
1773221,527,-8312,113,0,0,-1,0
1773226,509,-8314,121,0,0,-1,0
1773231,495,-8314,141,0,0,-1,0
1773236,492,-8315,170,0,0,-1,0
1773241,497,-8314,194,0,0,-1,0
1773246,507,-8313,212,0,0,-1,0
1773251,528,-8309,215,0,0,-1,0
1773256,557,-8310,215,0,0,-1,0
1773261,584,-8308,198,0,0,-1,0
1773266,606,-8307,184,0,0,-1,0
1773271,626,-8304,169,0,0,-1,0
1773276,636,-8304,157,0,0,-1,0
1773281,640,-8304,148,0,0,-1,0
1773286,638,-8302,146,0,0,-1,0
1773291,642,-8301,142,0,0,-1,0
1773296,652,-8299,151,0,0,-1,0
1773301,666,-8296,159,0,0,-1,0
1773306,683,-8298,169,0,0,-1,0
1773311,705,-8297,178,0,0,-1,0
1773316,726,-8294,183,0,0,-1,0
1773321,747,-8295,183,0,0,-1,0
1773326,766,-8296,187,0,0,-1,0
1773331,777,-8298,188,0,-1,-1,0
1773336,788,-8300,192,0,-1,-1,0
1773341,790,-8301,195,0,0,-1,0
1773346,785,-8303,197,0,-1,-1,0
1773351,777,-8304,199,0,-1,-1,0
1773356,762,-8303,198,0,0,-1,0
1773361,746,-8302,200,0,0,0,0
1773366,734,-8301,207,0,0,-1,0
1773371,721,-8302,212,0,-1,-1,0
1773376,712,-8302,219,0,0,0,0
1773381,706,-8301,226,0,0,0,0
1773386,700,-8300,237,0,0,0,0
1773391,694,-8300,249,0,0,0,0
1773396,689,-8298,267,0,0,0,0
1773401,683,-8298,278,0,0,0,0
1773406,677,-8299,290,0,0,0,0
1773411,671,-8297,298,0,0,0,0
1773416,665,-8299,304,0,0,0,0
1773421,662,-8299,303,0,0,0,0
1773426,666,-8297,298,0,0,0,0
1773431,670,-8293,297,0,0,0,0
1773436,679,-8291,297,-1,0,0,0
1773441,688,-8290,298,-1,0,0,0
1773446,694,-8292,297,-1,0,0,0
1773451,693,-8295,297,-1,0,0,0
1773456,687,-8296,297,-1,0,0,0
1773461,677,-8296,305,-1,0,0,0
1773466,663,-8293,310,-1,0,0,0
1773471,648,-8293,318,-1,0,0,0
1773476,634,-8296,319,-1,0,0,0
1773481,625,-8300,317,-1,0,0,0
1773486,620,-8301,309,-1,0,0,0
1773491,619,-8303,296,-1,-1,0,0
1773496,619,-8306,281,-1,-1,0,0
1773501,619,-8306,262,-1,-1,0,0
1773506,617,-8305,247,-1,-1,0,0
1773511,616,-8305,241,-1,-1,-1,0
1773516,609,-8307,238,-1,-1,0,0
1773521,602,-8307,237,-1,-1,-1,0
1773526,590,-8307,235,-1,-1,-1,0
1773531,578,-8305,236,-1,-1,-1,0
1773536,565,-8304,238,-1,-1,-1,0
1773541,552,-8302,241,-1,-1,-1,0
1773546,544,-8298,241,-1,-1,-1,0
1773551,542,-8297,238,-1,-1,-1,0
1773556,547,-8299,233,-1,-1,-1,0
1773561,552,-8300,223,-1,-1,-1,0
1773566,562,-8298,215,-1,-1,-1,0
1773571,572,-8299,202,-1,-1,-1,0
1773576,580,-8299,188,-1,-1,-1,0
1773581,588,-8304,178,-1,-1,-1,0
1773586,591,-8305,167,-1,-1,-1,0
1773591,592,-8301,158,-1,-1,-1,0
1773596,591,-8299,154,-1,-1,-1,0
1773601,592,-8298,154,-1,-1,-1,0
1773606,592,-8300,160,-1,-1,-1,0
1773611,595,-8300,162,-1,-1,-1,0
1773616,603,-8298,161,-1,-1,-1,0
1773621,616,-8298,149,-1,-1,-1,0
1773626,630,-8298,145,-1,-1,-1,0
1773631,642,-8302,142,-1,-1,-1,0
1773636,652,-8300,145,-1,-1,-1,0
1773641,662,-8301,150,-1,-1,-1,0
1773646,668,-8299,156,-1,-1,-1,0
1773651,673,-8301,159,-1,-1,-1,0
1773656,677,-8298,162,-1,-1,-1,0
1773661,679,-8298,166,-1,0,-1,0
1773666,678,-8296,169,-1,0,-1,0
1773671,676,-8298,159,-1,0,-1,0
1773676,675,-8296,149,-1,0,-1,0
1773681,671,-8294,139,-1,-1,-1,0
1773686,667,-8293,133,-1,0,0,0
1773691,662,-8291,124,-1,0,0,0
1773696,658,-8294,118,0,0,-1,0
1773701,654,-8297,110,0,0,0,0
1773706,649,-8301,109,0,0,0,0
1773711,645,-8303,109,0,0,-1,0
1773716,639,-8304,111,0,0,0,0
1773721,636,-8306,116,0,0,-1,0
1773726,632,-8303,125,0,0,-1,0
1773731,629,-8297,134,0,0,-1,0
1773736,624,-8297,142,0,0,-1,0
1773741,619,-8298,145,0,0,-1,0
1773746,614,-8297,146,0,-1,-1,0
1773751,610,-8301,145,0,-1,-1,0
1773756,604,-8304,144,0,0,-1,0
1773761,597,-8306,141,0,-1,-1,0
1773766,591,-8306,140,0,0,-1,0
1773771,588,-8304,140,0,0,-1,0
1773776,589,-8303,144,0,0,-1,0
1773781,595,-8303,139,0,0,-1,0
1773786,607,-8303,140,0,0,-1,0
1773791,623,-8306,140,0,0,-1,0
1773796,637,-8306,139,0,0,-1,0
1773801,656,-8303,137,0,0,-1,0
1773806,667,-8299,132,0,0,-1,0
1773811,674,-8298,132,0,0,-1,0
1773816,671,-8296,143,0,0,-1,0
1773821,659,-8298,155,0,0,-1,0
1773826,644,-8299,174,0,0,-1,0
1773831,628,-8300,192,0,0,-1,0
1773836,615,-8302,204,0,0,-1,0
1773841,612,-8302,212,0,0,-1,0
1773846,618,-8304,213,0,0,0,0
1773851,633,-8302,211,0,0,-1,0
1773856,655,-8300,207,0,0,-1,0
1773861,676,-8300,206,0,0,-1,0
1773866,687,-8301,211,0,0,-1,0
1773871,687,-8300,217,0,0,-1,0
1773876,677,-8300,225,0,0,-1,0
1773881,660,-8300,241,0,-1,-1,0
1773886,644,-8300,250,0,-1,-1,0
1773891,632,-8301,256,0,-1,-1,0
1773896,622,-8304,263,0,-1,-1,0
1773901,618,-8301,265,0,-1,-1,0
1773906,625,-8300,262,0,-1,-1,0
1773911,632,-8298,253,0,-1,-1,0
1773916,640,-8296,246,0,-1,0,0
1773921,651,-8296,239,0,-1,-1,0
1773926,655,-8295,230,0,-1,-1,0
1773931,652,-8295,229,0,-1,-1,0
1773936,646,-8297,222,0,-1,-1,0
1773941,638,-8297,216,0,-1,-1,0
1773946,627,-8295,212,0,-1,-1,0
1773951,615,-8295,213,0,-1,-1,0
1773956,612,-8296,210,0,-1,-1,0
1773961,607,-8300,209,0,-1,-1,0
1773966,608,-8298,210,0,-1,-1,0
1773971,613,-8296,210,0,-1,-1,0
1773976,619,-8297,207,0,-1,-1,0
1773981,626,-8297,204,0,-1,-1,0
1773986,631,-8296,204,0,-1,-1,0
1773991,629,-8296,209,0,-1,-1,0
1773996,629,-8295,211,0,-1,-1,0
1774001,628,-8295,214,0,-1,-1,0
1774006,625,-8297,216,0,-1,-1,0
1774011,627,-8300,222,0,-1,-1,0
1774016,629,-8302,223,0,-1,-1,0
1774021,632,-8302,219,0,-2,-1,0
1774026,640,-8302,216,0,-2,-1,0
1774031,647,-8301,218,0,-2,-1,0
1774036,649,-8301,221,0,-2,-1,0
1774041,650,-8301,223,0,-2,-1,0
1774046,648,-8299,222,0,-2,-1,0
1774051,647,-8298,228,0,-2,-1,0
1774056,644,-8298,232,0,-2,-1,0
1774061,643,-8299,233,0,-2,-1,0
1774066,639,-8298,238,0,-1,-1,0
1774071,639,-8300,236,0,-1,-1,0
1774076,640,-8299,235,0,-1,-1,0
1774081,644,-8300,235,0,-1,-1,0
1774086,647,-8299,234,0,-1,-1,0
1774091,648,-8298,233,0,-1,-1,0
1774096,652,-8298,234,0,0,-1,0
1774101,653,-8299,240,0,0,-1,0
1774106,653,-8300,246,0,0,-1,0
1774111,655,-8297,246,0,0,-1,0
1774116,654,-8294,245,0,0,-1,0
1774121,657,-8293,242,0,0,0,0
1774126,662,-8291,239,0,0,-1,0
1774131,669,-8288,236,0,0,0,0
1774136,678,-8290,233,0,0,-1,0
1774141,684,-8291,228,0,0,-1,0
1774146,685,-8294,221,0,0,-1,0
1774151,681,-8295,222,0,0,-1,0
1774156,673,-8293,224,0,-1,-1,0
1774161,662,-8296,219,0,-1,-1,0
1774166,649,-8298,215,0,-1,-1,0
1774171,640,-8300,206,0,-1,-1,0
1774176,631,-8302,196,0,-1,-1,0
1774181,625,-8303,191,0,-1,-1,0
1774186,622,-8304,194,0,-1,-1,0
1774191,622,-8303,196,0,0,-1,0
1774196,625,-8301,202,0,0,-1,0
1774201,627,-8300,213,0,0,-1,0
1774206,628,-8299,222,0,-1,-1,0
1774211,628,-8301,222,0,-1,-1,0
1774217,627,-8303,221,0,-1,-1,0
1774221,631,-8302,219,0,-1,-1,0
1774226,632,-8303,216,0,-1,-1,0
1774231,632,-8303,213,0,0,-1,0
1774236,629,-8303,209,0,0,-1,0
1774242,627,-8302,199,0,-1,-1,0
1774247,627,-8303,194,0,-1,-1,0
1774251,620,-8304,188,0,-1,-1,0
1774256,613,-8304,180,0,-1,-1,0
1774262,605,-8302,171,0,-1,-1,0
1774267,597,-8306,166,0,-1,-1,0
1774271,592,-8308,159,0,-1,-1,0
1774277,590,-8309,155,0,-1,-1,0
1774281,587,-8307,146,0,-1,-1,0
1774287,585,-8306,147,0,-1,-1,0
1774291,585,-8305,147,0,-1,-1,0
1774296,590,-8304,149,0,-1,-1,0
1774302,595,-8302,155,0,-1,-1,0
1774306,598,-8302,157,0,-1,-1,0
1774312,600,-8299,167,0,0,-1,0
1774317,608,-8299,180,0,0,-1,0
1774322,614,-8301,189,0,0,-1,0
1774326,625,-8302,201,0,0,-1,0
1774331,634,-8299,208,0,0,-1,0
1774336,647,-8297,215,0,0,-1,0
1774342,659,-8298,222,0,0,-1,0
1774347,672,-8295,220,0,0,-1,0
1774352,680,-8294,217,0,0,-1,0
1774356,684,-8292,209,0,0,-1,0
1774362,687,-8295,197,0,0,-1,0
1774367,690,-8294,186,0,0,-1,0
1774371,692,-8296,174,0,0,-1,0
1774377,692,-8297,166,0,0,-1,0
1774382,687,-8295,159,0,0,-1,0
1774387,677,-8294,152,0,0,-1,0
1774392,670,-8294,153,0,0,-1,0
1774397,663,-8294,154,0,-1,-1,0
1774402,658,-8293,150,0,0,-1,0
1774407,651,-8297,150,0,0,-1,0
1774412,643,-8298,152,0,0,-1,0
1774417,639,-8298,161,0,0,-1,0
1774422,635,-8300,171,0,0,-1,0
1774427,631,-8301,184,0,0,-1,0
1774432,628,-8300,199,0,0,-1,0
1774437,627,-8299,215,0,0,-1,0
1774442,629,-8300,225,0,0,-1,0
1774447,634,-8301,238,0,0,-1,0
1774452,635,-8301,245,0,0,-1,0
1774457,636,-8302,248,0,0,-1,0
1774462,637,-8302,251,0,0,-1,0
1774467,637,-8302,253,0,0,-1,0
1774472,633,-8300,253,0,0,-1,0
1774477,629,-8301,255,0,0,-1,0
1774482,626,-8302,258,0,0,-1,0
1774487,624,-8304,257,0,0,-1,0
1774492,625,-8305,253,0,0,-1,0
1774497,627,-8306,249,0,0,-1,0
1774502,633,-8304,244,0,0,-1,0
1774507,640,-8304,241,0,0,-1,0
1774512,647,-8304,240,0,0,-1,0
1774517,650,-8304,241,0,0,-1,0
1774522,652,-8304,247,0,0,-1,0
1774527,652,-8305,256,0,0,-1,0
1774532,651,-8305,263,0,-1,-1,0
1774537,649,-8304,267,0,-1,-1,0
1774542,648,-8304,272,0,0,-1,0
1774547,648,-8302,277,0,0,-1,0
1774552,649,-8301,281,0,0,-1,0
1774557,655,-8299,280,0,0,-1,0
1774562,659,-8296,282,0,0,-1,0
1774567,667,-8296,281,0,0,-1,0
1774572,674,-8294,283,0,0,-1,0
1774577,678,-8292,280,0,0,-1,0
1774582,681,-8295,273,0,-1,-1,0
1774587,683,-8298,267,0,-1,-1,0
1774592,685,-8299,263,0,-1,-1,0
1774597,681,-8299,259,0,-1,-1,0
1774602,675,-8297,257,0,0,-1,0
1774607,668,-8297,253,0,0,-1,0
1774612,663,-8296,246,0,0,-1,0
1774617,657,-8296,239,0,0,-1,0
1774622,655,-8297,233,0,0,-1,0
1774627,655,-8300,231,0,0,-1,0
1774632,651,-8303,227,0,0,-1,0
1774637,652,-8303,224,0,0,-1,0
1774642,649,-8303,224,0,0,-1,0
1774647,648,-8303,228,0,-1,-1,0
1774652,645,-8301,231,0,-1,-1,0
1774657,642,-8300,236,0,0,-1,0
1774662,645,-8301,243,0,0,-1,0
1774667,651,-8301,253,0,0,-1,0
1774672,655,-8301,267,0,-1,-1,0
1774677,659,-8301,275,0,-1,-1,0
1774682,665,-8302,278,0,-1,-1,0
1774687,667,-8304,279,0,-1,-1,0
1774692,671,-8303,275,0,-1,-1,0
1774697,671,-8304,274,0,-1,-1,0
1774702,667,-8304,270,0,-1,-1,0
1774707,663,-8304,261,0,-1,-1,0
1774712,657,-8304,254,0,-1,-1,0
1774717,650,-8305,251,0,-1,-1,0
1774722,644,-8307,253,0,-1,-1,0
1774727,639,-8307,245,0,0,-1,0
1774732,640,-8307,243,0,0,-1,0
1774737,646,-8306,241,0,0,-1,0
1774742,655,-8303,248,0,0,-1,0
1774747,665,-8304,257,0,0,-1,0
1774752,675,-8302,269,0,0,-1,0
1774757,683,-8302,278,0,0,-1,0
1774762,689,-8301,284,0,0,-1,0
1774767,693,-8298,290,0,0,-1,0
1774772,696,-8298,294,0,0,-1,0
1774777,701,-8297,295,0,0,-1,0
1774782,705,-8297,299,0,-1,-1,0
1774787,707,-8299,301,0,-1,-1,0
1774792,704,-8299,304,0,-1,-1,0
1774797,699,-8299,313,0,-1,-1,0
1774802,696,-8298,322,-1,-1,-1,0
1774807,694,-8299,326,-1,-1,-1,0
1774812,690,-8302,336,-1,-1,-1,0
1774817,681,-8301,345,-1,-1,-1,0
1774822,673,-8302,352,-1,-1,-1,0
1774827,669,-8305,364,-1,-1,-1,0
1774832,661,-8305,372,-1,-1,-1,0
1774837,652,-8304,382,-1,-1,-1,0
1774842,640,-8306,402,-1,-1,-1,0
1774847,629,-8306,423,-1,-1,-1,0
1774852,614,-8306,441,-1,-1,-1,0
1774857,601,-8305,455,-1,-1,-1,0
1774862,588,-8307,467,-1,-1,-1,0
1774867,575,-8309,479,-1,-1,-1,0
1774872,568,-8305,489,-1,-1,-1,0
1774877,563,-8304,503,-1,-1,-1,0
1774882,557,-8304,517,-2,-1,-1,0
1774887,553,-8304,537,-2,-1,-1,0
1774892,549,-8304,558,-2,0,-1,0
1774897,545,-8304,577,-2,0,-1,0
1774902,540,-8305,593,-2,0,-1,0
1774907,538,-8304,610,-2,-1,-1,0
1774912,535,-8302,621,-2,-1,-1,0
1774917,533,-8299,635,-2,-1,-1,0
1774922,530,-8302,648,-2,-1,-2,0
1774927,528,-8299,658,-3,-1,-2,0
1774932,527,-8300,660,-3,-1,-2,0
1774937,528,-8300,659,-3,-1,-2,0
1774942,525,-8299,660,-3,-1,-2,0
1774947,523,-8299,661,-3,-1,-2,0
1774952,527,-8298,660,-3,-1,-2,0
1774957,538,-8299,663,-3,-1,-2,0
1774962,551,-8301,665,-4,-1,-2,0
1774967,568,-8302,660,-4,-1,-2,0
1774972,589,-8301,645,-4,-2,-2,0
1774977,615,-8299,637,-4,-2,-2,0
1774982,641,-8298,621,-4,-2,-2,0
1774987,666,-8299,605,-4,-2,-2,0
1774992,685,-8300,581,-4,-3,-2,0
1774997,704,-8300,554,-4,-3,-2,0
1775002,718,-8301,529,-4,-4,-2,0
1775007,737,-8297,506,-4,-4,-2,0
1775012,761,-8295,477,-4,-5,-2,0
1775017,785,-8293,441,-4,-5,-2,0
1775022,808,-8293,399,-4,-6,-2,0
1775027,834,-8295,353,-4,-6,-1,0
1775032,856,-8298,302,-4,-6,-1,0
1775037,874,-8300,248,-4,-6,-1,0
1775042,891,-8300,192,-4,-6,-1,0
1775047,904,-8300,135,-4,-5,-1,0
1775052,911,-8299,78,-4,-5,-1,0
1775057,919,-8297,18,-4,-5,-1,0
1775062,927,-8297,-45,-4,-5,-1,0
1775067,933,-8295,-115,-3,-4,-1,0
1775072,937,-8297,-186,-3,-4,-1,0
1775077,944,-8298,-250,-3,-4,-1,0
1775082,954,-8297,-312,-3,-3,-1,0
1775087,966,-8297,-365,-3,-3,0,0
1775092,988,-8297,-413,-3,-2,0,0
1775097,1012,-8296,-454,-2,-2,0,0
1775102,1038,-8297,-485,-2,-2,0,0
1775107,1066,-8294,-518,-2,-2,0,0
1775112,1095,-8291,-544,-2,-2,0,0
1775117,1120,-8290,-559,-1,-1,0,0
1775122,1141,-8290,-565,-1,-1,0,0
1775127,1155,-8290,-567,-1,-1,1,0
1775132,1169,-8286,-559,-1,-1,1,0
1775137,1177,-8285,-552,-1,-1,1,0
1775142,1180,-8288,-539,-1,-1,1,0
1775147,1178,-8289,-526,0,-1,1,0
1775152,1173,-8291,-516,0,-2,1,0
1775157,1165,-8288,-508,0,-1,1,0
1775162,1153,-8287,-497,0,-1,2,0
1775167,1140,-8288,-488,0,-1,2,0
1775172,1123,-8290,-476,1,-1,2,0
1775177,1106,-8293,-469,1,-1,2,0
1775182,1094,-8294,-464,1,-1,2,0
1775187,1080,-8292,-455,1,0,2,0
1775192,1067,-8290,-444,1,0,2,0
1775197,1059,-8287,-429,1,0,2,0
1775202,1060,-8291,-409,1,0,3,0
1775207,1067,-8294,-380,2,0,3,0
1775212,1089,-8297,-354,2,0,3,0
1775217,1126,-8297,-339,2,0,4,0
1775222,1173,-8297,-327,2,0,4,0
1775227,1227,-8296,-316,2,1,4,0
1775232,1288,-8294,-301,2,1,4,0
1775237,1349,-8291,-284,2,2,4,0
1775242,1405,-8288,-259,2,2,4,0
1775247,1452,-8286,-237,2,3,5,0
1775252,1486,-8282,-211,2,3,5,0
1775257,1505,-8278,-187,2,4,5,0
1775262,1519,-8275,-174,3,4,6,0
1775267,1534,-8271,-164,3,4,6,0
1775272,1553,-8267,-169,3,4,6,0
1775277,1584,-8263,-179,3,4,7,0
1775282,1620,-8261,-205,3,4,7,0
1775287,1663,-8259,-234,3,4,8,0
1775292,1714,-8258,-266,3,4,8,0
1775297,1766,-8259,-302,3,4,8,0
1775302,1812,-8257,-335,4,4,9,0
1775307,1842,-8258,-355,4,4,9,0
1775312,1857,-8256,-368,4,4,9,0
1775317,1855,-8254,-357,4,3,10,0
1775322,1831,-8248,-346,4,3,10,0
1775327,1798,-8243,-336,4,3,10,0
1775332,1760,-8241,-330,5,3,11,0
1775337,1722,-8237,-333,5,4,11,0
1775342,1697,-8231,-350,5,5,12,0
1775347,1685,-8228,-371,5,6,12,0
1775352,1679,-8225,-391,5,6,12,0
1775357,1672,-8221,-409,5,7,13,0
1775362,1655,-8216,-417,5,7,13,0
1775367,1626,-8210,-411,6,7,13,0
1775372,1581,-8208,-390,6,7,13,0
1775377,1519,-8207,-361,6,7,13,0
1775382,1444,-8205,-321,6,7,14,0
1775387,1362,-8204,-283,6,7,14,0
1775392,1277,-8202,-247,6,6,14,0
1775397,1200,-8198,-208,6,5,15,0
1775402,1136,-8195,-170,7,5,15,0
1775407,1082,-8191,-135,7,5,15,0
1775412,1038,-8188,-102,7,5,15,0
1775417,995,-8187,-77,7,5,15,0
1775422,950,-8186,-54,7,6,15,0
1775427,904,-8185,-39,7,6,15,0
1775432,851,-8179,-34,7,6,15,0
1775437,795,-8175,-36,7,6,15,0
1775442,740,-8170,-49,7,5,16,0
1775447,696,-8167,-75,8,5,16,0
1775452,656,-8163,-107,8,3,16,0
1775457,620,-8160,-149,8,1,16,0
1775462,582,-8157,-194,8,0,16,0
1775467,539,-8155,-234,8,-1,16,0
1775472,483,-8150,-268,8,-2,16,0
1775477,416,-8147,-298,9,-1,16,0
1775482,341,-8143,-335,9,-1,16,0
1775487,260,-8142,-381,9,0,16,0
1775492,168,-8140,-442,10,0,16,0
1775497,71,-8138,-506,10,0,16,0
1775502,-23,-8136,-572,10,0,16,0
1775507,-116,-8135,-635,11,-1,15,0
1775512,-203,-8135,-694,11,-2,15,0
1775517,-289,-8134,-752,12,-2,15,0
1775522,-371,-8132,-813,12,-2,15,0
1775527,-450,-8131,-873,13,-2,15,0
1775532,-537,-8128,-939,13,-2,14,0
1775537,-641,-8123,-1002,14,-3,14,0
1775542,-766,-8121,-1066,14,-3,13,0
1775547,-918,-8120,-1118,15,-2,13,0
1775552,-1093,-8120,-1156,15,-1,12,0
1775557,-1296,-8120,-1184,16,0,12,0
1775562,-1516,-8116,-1208,16,3,11,0
1775567,-1745,-8112,-1216,16,6,11,0
1775572,-1968,-8112,-1199,17,9,10,0
1775577,-2176,-8112,-1200,18,12,9,0
1775582,-2368,-8114,-1211,18,15,8,0
1775587,-2543,-8117,-1187,18,17,7,0
1775592,-2705,-8118,-1131,19,19,7,0
1775597,-2855,-8119,-1044,19,19,6,0
1775602,-2994,-8118,-929,19,19,5,0
1775607,-3125,-8116,-794,19,19,4,0
1775612,-3252,-8114,-629,19,18,2,0
1775617,-3378,-8109,-463,20,17,1,0
1775622,-3503,-8108,-294,20,17,0,0
1775627,-3626,-8106,-124,20,19,-1,0
1775632,-3741,-8107,39,20,21,-2,0
1775637,-3846,-8104,196,20,23,-3,0
1775642,-3937,-8101,340,20,26,-4,0
1775647,-3996,-8096,465,20,29,-5,0
1775652,-4013,-8090,552,20,31,-6,0
1775657,-3987,-8081,596,20,33,-7,0
1775662,-3915,-8072,574,21,33,-8,0
1775667,-3805,-8063,463,21,33,-8,0
1775672,-3725,-8066,397,22,31,-9,0
1775677,-3721,-8091,565,21,28,-11,0
1775682,-3786,-8097,952,18,26,-13,0
1775687,-3900,-8083,1256,15,27,-14,0
1775692,-4037,-8055,1610,15,31,-15,0
1775697,-4237,-8040,2159,16,33,-16,0
1775702,-4390,-8024,2626,17,31,-17,0
1775707,-4457,-8013,2965,17,31,-17,0
1775712,-4402,-8013,3195,17,32,-17,0
1775717,-4211,-8012,3250,17,31,-19,0
1775722,-3965,-8010,3246,15,30,-20,0
1775727,-3713,-8010,3242,14,29,-21,0
1775732,-3526,-8006,3244,13,27,-23,0
1775737,-3443,-8001,3325,11,25,-24,0
1775742,-3461,-7994,3483,10,24,-25,0
1775747,-3560,-7985,3689,10,23,-26,0
1775752,-3655,-7977,3899,9,23,-27,0
1775757,-3690,-7969,4081,9,25,-27,0
1775762,-3629,-7961,4214,8,27,-27,0
1775767,-3439,-7951,4269,7,29,-27,0
1775772,-3162,-7944,4289,5,29,-27,0
1775777,-2846,-7937,4290,4,26,-28,0
1775782,-2550,-7923,4326,2,22,-29,0
1775787,-2333,-7909,4434,1,17,-30,0
1775792,-2216,-7892,4583,0,13,-31,0
1775797,-2179,-7873,4770,0,12,-32,0
1775802,-2188,-7858,4952,0,14,-33,0
1775807,-2221,-7845,5068,0,15,-34,0
1775812,-2245,-7836,5094,-1,16,-34,0
1775817,-2249,-7836,5021,-2,15,-35,0
1775822,-2209,-7830,4903,-3,13,-35,0
1775827,-2098,-7822,4782,-5,13,-36,0
1775832,-1929,-7804,4700,-6,13,-36,0
1775837,-1730,-7784,4662,-7,12,-36,0
1775843,-1546,-7764,4635,-8,10,-36,0
1775847,-1357,-7740,4647,-9,9,-37,0
1775852,-1137,-7719,4645,-10,9,-37,0
1775858,-885,-7699,4620,-10,10,-37,0
1775862,-606,-7681,4556,-10,11,-37,0
1775867,-321,-7670,4447,-11,11,-37,0
1775872,-56,-7666,4336,-12,13,-37,0
1775877,191,-7660,4258,-13,15,-37,0
1775883,420,-7656,4209,-14,18,-37,0
1775888,655,-7650,4243,-16,18,-37,0
1775892,872,-7644,4351,-17,17,-36,0
1775897,1057,-7633,4497,-18,15,-36,0
1775902,1227,-7620,4663,-19,14,-36,0
1775908,1380,-7612,4860,-20,14,-35,0
1775913,1511,-7602,5014,-20,12,-34,0
1775918,1637,-7583,5080,-21,11,-34,0
1775923,1777,-7569,5043,-21,10,-33,0
1775927,1938,-7566,4936,-22,11,-33,0
1775932,2107,-7569,4797,-23,10,-33,0
1775938,2416,-7583,4758,-25,9,-32,0
1775942,2655,-7576,4655,-27,13,-31,0
1775947,2845,-7560,4577,-28,13,-30,0
1775952,3243,-7557,4527,-28,13,-29,0
1775958,3676,-7546,4413,-29,24,-27,0
1775962,4048,-7533,4340,-29,31,-25,0
1775968,4419,-7529,4275,-30,31,-25,0
1775973,4796,-7529,4163,-31,29,-24,0
1775978,5121,-7531,4075,-32,29,-23,0
1775982,5327,-7533,4036,-33,27,-22,0
1775988,5462,-7534,4001,-34,22,-21,0
1775993,5526,-7539,3986,-35,22,-20,0
1775998,5497,-7540,3979,-35,25,-19,0
1776003,5465,-7546,3948,-36,26,-18,0
1776008,5440,-7550,3879,-36,28,-16,0
1776013,5419,-7553,3804,-37,30,-15,0
1776018,5460,-7554,3728,-38,29,-13,0
1776023,5562,-7550,3645,-39,27,-12,0
1776028,5722,-7540,3563,-40,23,-10,0
1776033,5955,-7526,3495,-40,15,-9,0
1776038,6205,-7513,3416,-41,4,-7,0
1776043,6430,-7495,3329,-41,-9,-6,0
1776048,6644,-7483,3211,-41,-22,-5,0
1776053,6819,-7465,3043,-41,-35,-3,0
1776058,6911,-7450,2861,-41,-46,-1,0
1776063,6910,-7435,2680,-41,-56,0,0
1776068,6829,-7423,2500,-41,-64,2,0
1776073,6671,-7413,2331,-42,-70,3,0
1776078,6497,-7386,2083,-42,-76,5,0
1776083,6380,-7352,1645,-41,-79,7,0
1776088,6253,-7337,1355,-37,-77,10,0
1776093,6108,-7308,1073,-37,-80,12,0
1776098,6066,-7335,485,-37,-83,13,0
1776103,6033,-7344,-322,-36,-78,15,0
1776108,5948,-7357,-950,-35,-79,16,0
1776113,5924,-7386,-1931,-36,-92,17,0
1776118,5798,-7405,-2665,-37,-90,18,0
1776123,5593,-7415,-3098,-37,-90,20,0
1776128,5300,-7427,-3453,-36,-91,21,0
1776133,4969,-7431,-3460,-34,-82,22,0
1776138,4670,-7442,-3548,-31,-73,23,0
1776143,4407,-7452,-3639,-28,-62,25,0
1776148,4219,-7466,-3840,-26,-58,26,0
1776153,4111,-7489,-4227,-24,-59,27,0
1776158,4014,-7512,-4562,-23,-60,28,0
1776163,3947,-7529,-4946,-22,-65,29,0
1776168,3851,-7542,-5228,-21,-65,29,0
1776173,3682,-7551,-5409,-20,-63,30,0
1776178,3502,-7560,-5575,-18,-58,30,0
1776183,3306,-7574,-5644,-15,-48,31,0
1776188,3079,-7587,-5751,-13,-38,32,0
1776193,2810,-7603,-5937,-12,-31,32,0
1776198,2553,-7625,-6060,-10,-26,32,0
1776203,2332,-7642,-6189,-8,-26,32,0
1776208,2111,-7661,-6272,-7,-26,33,0
1776213,1893,-7674,-6275,-6,-24,33,0
1776218,1681,-7679,-6274,-4,-22,33,0
1776223,1507,-7685,-6232,-2,-17,33,0
1776228,1356,-7693,-6212,0,-13,33,0
1776233,1185,-7696,-6258,2,-10,33,0
1776238,1022,-7705,-6334,4,-8,32,0
1776243,859,-7714,-6437,5,-7,32,0
1776248,678,-7723,-6525,7,-5,31,0
1776253,476,-7731,-6566,8,-4,31,0
1776258,248,-7737,-6569,9,-1,30,0
1776263,15,-7741,-6515,10,3,29,0
1776268,-184,-7745,-6432,12,8,28,0
1776273,-244,-7746,-6314,13,14,28,0
1776278,-281,-7742,-6171,14,23,31,0
1776283,-853,-7754,-5987,16,26,29,0
1776288,-1159,-7757,-5797,17,17,25,0
1776293,-1399,-7766,-5684,18,20,25,0
1776298,-1850,-7777,-5558,19,21,25,0
1776303,-2266,-7785,-5362,20,14,25,0
1776308,-2566,-7791,-5197,21,16,25,0
1776313,-2727,-7793,-4977,22,24,25,0
1776318,-2862,-7797,-4770,23,34,25,0
1776323,-2858,-7801,-4599,24,39,23,0
1776328,-2762,-7799,-4426,25,44,22,0
1776333,-2799,-7801,-4308,26,45,21,0
1776338,-2787,-7803,-4188,27,41,20,0
1776343,-2810,-7806,-4090,27,41,19,0
1776348,-2946,-7805,-3986,27,42,18,0
1776353,-3057,-7804,-3840,28,42,18,0
1776358,-3153,-7802,-3731,29,45,17,0
1776363,-3270,-7803,-3612,29,50,16,0
1776368,-3363,-7804,-3464,30,53,15,0
1776373,-3419,-7806,-3334,30,55,15,0
1776378,-3457,-7806,-3189,31,57,14,0
1776383,-3463,-7801,-3016,31,57,13,0
1776388,-3425,-7796,-2829,31,56,12,0
1776393,-3399,-7797,-2601,32,55,12,0
1776398,-3392,-7799,-2324,32,53,11,0
1776403,-3395,-7799,-2042,32,50,10,0
1776408,-3384,-7803,-1765,32,48,9,0
1776413,-3388,-7806,-1481,32,43,8,0
1776418,-3422,-7811,-1216,32,40,7,0
1776423,-3442,-7814,-965,32,38,6,0
1776428,-3442,-7820,-732,32,36,6,0
1776433,-3436,-7825,-520,32,33,5,0
1776438,-3414,-7833,-313,32,30,4,0
1776443,-3395,-7842,-117,31,28,4,0
1776448,-3375,-7848,50,31,28,3,0
1776453,-3363,-7858,203,31,30,2,0
1776458,-3381,-7867,340,31,33,1,0
1776463,-3405,-7877,465,30,36,0,0
1776468,-3434,-7889,598,30,40,-1,0
1776473,-3460,-7897,729,29,42,-2,0
1776478,-3444,-7900,850,29,43,-3,0
1776483,-3399,-7900,922,29,43,-3,0
1776488,-3312,-7900,951,29,42,-3,0
1776493,-3248,-7918,1108,29,39,-4,0
1776498,-3271,-7949,1542,27,35,-5,0
1776503,-3334,-7963,2071,23,31,-7,0
1776508,-3412,-7963,2477,21,33,-9,0
1776513,-3601,-7965,2949,20,35,-9,0
1776518,-3821,-7974,3502,21,32,-9,0
1776523,-3948,-7983,3886,21,30,-10,0
1776528,-3966,-7996,4145,21,34,-10,0
1776533,-3820,-8017,4258,20,33,-11,0
1776538,-3548,-8038,4249,19,30,-12,0
1776543,-3254,-8059,4253,17,25,-13,0
1776548,-3011,-8074,4269,15,17,-14,0
1776553,-2863,-8085,4341,13,11,-16,0
1776558,-2858,-8094,4480,11,8,-17,0
1776563,-2968,-8104,4652,10,5,-18,0
1776568,-3123,-8109,4838,9,3,-19,0
1776573,-3276,-8115,4994,9,2,-19,0
1776578,-3363,-8120,5095,8,2,-19,0
1776583,-3323,-8125,5136,6,2,-20,0
1776588,-3183,-8128,5129,5,3,-21,0
1776593,-2967,-8130,5095,3,3,-21,0
1776598,-2710,-8130,5069,1,3,-22,0
1776603,-2487,-8124,5072,0,2,-24,0
1776608,-2325,-8116,5095,-2,-1,-25,0
1776613,-2227,-8106,5139,-3,-4,-25,0
1776618,-2182,-8095,5185,-4,-5,-26,0
1776623,-2152,-8085,5218,-5,-6,-26,0
1776628,-2096,-8079,5210,-6,-7,-26,0
1776633,-1996,-8068,5157,-7,-8,-26,0
1776638,-1850,-8056,5061,-8,-10,-27,0
1776643,-1668,-8041,4937,-10,-12,-27,0
1776648,-1479,-8025,4778,-11,-13,-28,0
1776653,-1303,-8008,4584,-12,-15,-28,0
1776658,-1160,-7993,4358,-12,-18,-29,0
1776663,-1066,-7978,4086,-13,-20,-29,0
1776668,-984,-7965,3783,-13,-21,-29,0
1776673,-903,-7956,3456,-13,-21,-29,0
1776678,-802,-7950,3128,-14,-19,-29,0
1776683,-643,-7944,2819,-14,-16,-28,0
1776688,-436,-7939,2561,-15,-11,-28,0
1776693,-174,-7932,2326,-16,-6,-28,0
1776698,165,-7920,2098,-16,-3,-27,0
1776703,550,-7913,1899,-16,-1,-27,0
1776708,949,-7908,1727,-16,-2,-26,0
1776713,1327,-7906,1577,-16,-5,-26,0
1776718,1649,-7908,1416,-16,-8,-25,0
1776723,1945,-7909,1230,-16,-12,-24,0
1776728,2214,-7912,1029,-16,-17,-23,0
1776733,2455,-7913,823,-15,-21,-21,0
1776738,2669,-7917,617,-15,-26,-20,0
1776743,2850,-7927,418,-13,-30,-18,0
1776748,3026,-7964,276,-12,-34,-16,0
1776753,3263,-7979,81,-13,-34,-16,0
1776758,3517,-7982,-166,-13,-31,-17,0
1776763,3775,-7985,-408,-12,-30,-17,0
1776768,4049,-7991,-691,-12,-32,-17,0
1776773,4348,-7981,-1194,-11,-33,-15,0
1776778,4645,-8007,-1812,-8,-35,-12,0
1776783,4830,-8031,-2102,-7,-41,-11,0
1776788,4884,-8068,-2426,-7,-52,-9,0
1776793,4899,-8092,-2861,-8,-49,-9,0
1776798,4881,-8116,-2919,-8,-40,-9,0
1776803,4714,-8121,-3026,-8,-39,-8,0
1776808,4474,-8128,-2915,-7,-32,-7,0
1776813,4209,-8137,-2733,-5,-23,-6,0
1776818,3916,-8149,-2667,-4,-17,-5,0
1776823,3673,-8170,-2546,-3,-12,-4,0
1776828,3470,-8188,-2492,-2,-10,-3,0
1776833,3296,-8201,-2435,-2,-8,-2,0
1776838,3192,-8211,-2311,-2,-6,-2,0
1776843,3133,-8217,-2200,-2,-3,-1,0
1776848,3081,-8218,-2018,-1,1,-1,0
1776853,3019,-8218,-1815,-1,2,-1,0
1776858,2942,-8220,-1643,-1,4,-1,0
1776863,2833,-8225,-1460,0,4,-1,0
1776868,2697,-8233,-1297,0,2,0,0
1776873,2562,-8241,-1156,0,0,0,0
1776878,2426,-8246,-1008,0,0,1,0
1776883,2303,-8248,-871,0,-1,1,0
1776888,2227,-8252,-755,0,0,2,0
1776893,2172,-8251,-636,1,1,2,0
1776898,2135,-8253,-531,1,0,2,0
1776903,2117,-8254,-451,1,0,2,0
1776908,2082,-8253,-375,1,-1,2,0
1776913,2030,-8255,-302,1,-3,2,0
1776918,1960,-8260,-243,1,-4,2,0
1776923,1862,-8262,-181,1,-4,2,0
1776928,1752,-8262,-128,1,-5,2,0
1776933,1645,-8264,-83,1,-4,3,0
1776938,1540,-8267,-41,1,-4,3,0
1776943,1436,-8270,-11,1,-3,3,0
1776948,1356,-8275,2,1,-1,3,0
1776953,1288,-8281,21,1,0,3,0
1776958,1226,-8283,37,1,0,3,0
1776963,1175,-8283,50,1,0,3,0
1776968,1127,-8284,77,1,0,3,0
1776973,1075,-8286,106,0,0,3,0
1776978,1032,-8289,143,0,0,2,0
1776983,989,-8292,177,0,0,2,0
1776988,945,-8294,203,0,0,2,0
1776993,916,-8295,233,0,-1,2,0
1776998,890,-8292,262,0,-1,2,0
1777003,870,-8291,283,0,-2,2,0
1777008,859,-8292,298,0,-2,2,0
1777013,840,-8291,307,0,-4,1,0
1777018,821,-8288,317,0,-5,1,0
1777023,803,-8289,319,0,-6,1,0
1777028,783,-8289,321,0,-7,1,0
1777033,762,-8290,321,0,-7,1,0
1777038,743,-8291,313,0,-7,1,0
1777043,724,-8294,316,0,-6,1,0
1777048,706,-8293,318,0,-6,0,0
1777053,698,-8293,313,0,-5,0,0
1777058,684,-8293,314,-1,-5,0,0
1777063,676,-8295,314,-1,-5,0,0
1777068,677,-8297,315,-1,-5,0,0
1777073,671,-8298,315,-1,-5,0,0
1777078,653,-8297,327,-1,-5,0,0
1777083,623,-8297,355,-1,-5,0,0
1777088,573,-8296,394,-1,-5,0,0
1777093,531,-8295,438,-1,-6,0,0
1777098,505,-8299,471,-1,-6,0,0
1777103,500,-8300,500,-1,-6,0,0
1777108,512,-8297,518,-1,-6,1,0
1777113,537,-8295,519,-1,-6,0,0
1777118,577,-8292,513,-1,-6,0,0
1777123,625,-8292,493,-1,-6,0,0
1777128,668,-8292,457,-1,-6,0,0
1777133,703,-8292,422,-1,-7,0,0
1777138,721,-8291,385,-1,-8,0,0
1777143,720,-8291,341,-1,-8,0,0
1777148,716,-8294,306,-1,-8,0,0
1777153,708,-8296,270,-2,-8,0,0
1777158,700,-8296,243,-2,-8,0,0
1777163,701,-8297,221,-2,-7,0,0
1777168,713,-8294,206,-2,-7,0,0
1777173,732,-8293,198,-2,-6,0,0
1777178,757,-8294,190,-2,-6,0,0
1777183,788,-8295,184,-2,-5,0,0
1777188,815,-8293,179,-2,-5,0,0
1777193,837,-8292,176,-2,-5,0,0
1777198,851,-8291,169,-2,-5,0,0
1777203,856,-8293,162,-2,-5,0,0
1777208,863,-8293,151,-2,-5,0,0
1777213,872,-8296,137,-2,-6,0,0
1777218,876,-8298,121,-2,-6,0,0
1777223,888,-8299,112,-1,-7,0,0
1777228,899,-8299,95,-1,-7,0,0
1777233,911,-8297,81,-1,-7,0,0
1777238,924,-8298,66,-1,-7,0,0
1777243,934,-8297,47,-1,-7,0,0
1777248,939,-8296,25,-1,-7,0,0
1777253,938,-8295,8,-1,-8,0,0
1777258,932,-8297,-5,-1,-8,0,0
1777263,917,-8299,-21,-1,-8,0,0
1777268,901,-8297,-39,-1,-8,0,0
1777273,881,-8298,-58,-1,-8,0,0
1777278,861,-8301,-81,-1,-7,0,0
1777283,836,-8300,-105,-1,-6,0,0
1777288,815,-8304,-122,-1,-5,0,0
1777293,793,-8304,-133,-1,-4,0,0
1777298,780,-8301,-139,-1,-2,0,0
1777303,773,-8302,-136,-1,-1,0,0
1777308,774,-8300,-123,-1,-1,0,0
1777313,778,-8297,-105,-1,-1,0,0
1777318,788,-8294,-89,-1,0,0,0
1777323,804,-8291,-72,-1,0,0,0
1777328,823,-8292,-56,-1,-1,0,0
1777333,839,-8292,-45,-1,-1,0,0
1777338,858,-8292,-36,0,-1,0,0
1777343,872,-8292,-24,0,-2,0,0
1777348,887,-8288,-19,0,-2,0,0
1777353,899,-8288,-7,-1,-2,0,0
1777358,906,-8287,8,-1,-3,0,0
1777363,908,-8288,23,-1,-3,0,0
1777368,906,-8289,45,-1,-4,0,0
1777373,904,-8291,64,0,-4,0,0
1777378,899,-8294,82,0,-5,0,0
1777383,892,-8294,90,0,-6,0,0
1777388,884,-8294,83,0,-6,0,0
1777393,875,-8294,71,0,-6,0,0
1777398,866,-8294,50,0,-6,0,0
1777403,856,-8296,24,0,-6,0,0
1777408,844,-8297,-3,0,-6,0,0
1777413,836,-8299,-33,0,-5,0,0
1777418,829,-8301,-63,0,-5,0,0
1777423,815,-8302,-86,0,-5,0,0
1777428,803,-8300,-103,0,-4,0,0
1777433,791,-8301,-113,0,-3,-1,0
1777438,779,-8304,-117,0,-3,-1,0
1777443,773,-8306,-112,0,-2,0,0
1777448,771,-8306,-111,0,-2,-1,0
1777453,773,-8307,-109,0,-1,-1,0
1777458,782,-8307,-101,0,-1,-1,0
1777463,800,-8306,-90,0,0,-1,0
1777468,824,-8307,-73,0,0,-1,0
1777473,853,-8307,-56,0,-1,-1,0
1777478,878,-8306,-37,0,-1,-1,0
1777483,894,-8304,-20,0,-1,-1,0
1777488,908,-8303,-1,0,-1,-1,0
1777493,915,-8306,13,0,-1,-1,0
1777498,919,-8305,19,0,-2,-1,0
1777503,924,-8306,25,0,-2,-1,0
1777508,924,-8303,26,1,-3,-1,0
1777513,920,-8302,25,1,-4,-1,0
1777518,920,-8300,28,1,-4,0,0
1777523,921,-8301,23,1,-4,0,0
1777528,924,-8298,20,1,-4,-1,0
1777533,919,-8294,30,1,-4,-1,0
1777538,911,-8294,36,0,-3,-1,0
1777543,904,-8296,44,0,-3,-1,0
1777548,898,-8296,52,1,-3,0,0
1777553,892,-8296,58,1,-4,-1,0
1777558,885,-8296,54,1,-5,0,0
1777563,873,-8297,48,1,-4,-1,0
1777568,861,-8298,44,1,-3,-1,0
1777573,849,-8298,38,1,-2,0,0
1777578,841,-8299,40,1,-1,-1,0
1777583,836,-8298,52,0,0,-1,0
1777588,838,-8296,83,0,1,-1,0
1777593,847,-8294,116,0,1,-1,0
1777599,858,-8293,151,0,1,0,0
1777603,876,-8294,185,0,1,0,0
1777608,897,-8292,214,0,1,0,0
1777613,922,-8291,230,0,1,0,0
1777618,940,-8293,242,0,0,0,0
1777623,954,-8294,249,0,-1,0,0
1777628,963,-8295,244,0,-1,0,0
1777633,964,-8294,235,0,-2,0,0
1777638,960,-8293,229,0,-3,0,0
1777644,956,-8292,220,0,-3,0,0
1777649,950,-8293,203,0,-4,0,0
1777654,940,-8295,179,0,-5,0,0
1777659,933,-8296,156,0,-6,0,0
1777663,926,-8299,129,0,-6,0,0
1777668,923,-8300,102,0,-7,0,0
1777674,910,-8297,83,0,-8,-1,0
1777678,881,-8298,63,0,-8,-1,0
1777683,853,-8298,50,0,-7,-1,0
1777689,822,-8300,42,0,-6,-1,0
1777694,798,-8301,41,0,-6,-1,0
1777698,779,-8302,46,0,-5,-1,0
1777704,774,-8305,58,0,-5,-1,0
1777709,782,-8304,72,0,-5,-1,0
1777714,797,-8300,87,1,-5,-1,0
1777718,817,-8297,92,1,-4,0,0
1777723,840,-8296,94,1,-4,-1,0
1777729,857,-8294,91,1,-4,-1,0
1777734,873,-8292,92,0,-4,-1,0
1777738,881,-8289,104,0,-5,-1,0
1777744,882,-8288,115,1,-6,-1,0
1777748,886,-8289,127,1,-6,-1,0
1777753,889,-8288,135,1,-7,-1,0
1777759,891,-8288,132,1,-7,-1,0
1777764,893,-8288,125,1,-7,-1,0
1777768,893,-8290,117,1,-7,-1,0
1777773,890,-8291,101,1,-7,-1,0
1777779,887,-8293,86,1,-7,-1,0
1777783,882,-8294,74,1,-7,-1,0
1777788,875,-8295,68,1,-7,-1,0
1777794,868,-8297,69,1,-7,-1,0
1777799,864,-8295,75,1,-6,-1,0
1777804,861,-8295,84,1,-5,-1,0
1777809,855,-8295,94,1,-4,-1,0
1777814,847,-8295,105,1,-3,-1,0
1777819,840,-8297,115,1,-2,-1,0
1777824,831,-8299,128,1,-1,-1,0
1777829,826,-8300,140,1,0,-1,0
1777834,829,-8299,150,1,0,-1,0
1777839,836,-8297,167,1,0,-1,0
1777844,850,-8293,177,1,0,-1,0
1777849,863,-8291,188,1,-1,-1,0
1777854,877,-8291,198,1,-1,-1,0
1777859,890,-8291,206,1,-1,-1,0
1777864,901,-8289,212,1,-1,-1,0
1777869,908,-8289,221,1,-2,-1,0
1777874,913,-8289,225,0,-2,-1,0
1777879,913,-8291,233,0,-2,-1,0
1777884,910,-8292,239,0,-2,-1,0
1777889,912,-8293,242,0,-2,-1,0
1777894,911,-8293,251,0,-1,-1,0
1777899,913,-8292,256,0,-1,-1,0
1777904,919,-8296,263,0,-1,-1,0
1777909,925,-8295,272,0,0,-1,0
1777914,931,-8296,280,0,0,-1,0
1777919,937,-8294,296,0,0,0,0
1777924,943,-8295,311,0,0,-1,0
1777929,954,-8293,324,0,0,0,0
1777934,961,-8290,329,0,-1,0,0
1777939,964,-8288,332,0,-1,0,0
1777944,968,-8287,333,0,-2,0,0
1777949,974,-8287,328,0,-2,0,0
1777954,978,-8288,316,0,-2,0,0
1777959,980,-8289,306,0,-3,0,0
1777964,976,-8289,293,0,-3,0,0
1777969,969,-8290,285,0,-3,0,0
1777974,960,-8292,278,0,-3,0,0
1777979,948,-8295,274,0,-3,0,0
1777984,939,-8298,271,0,-3,0,0
1777989,930,-8296,267,0,-3,0,0
1777994,923,-8296,261,0,-3,0,0
1777999,916,-8296,248,0,-3,0,0
1778004,914,-8296,242,0,-3,0,0
1778009,914,-8296,233,0,-4,0,0
1778014,914,-8296,224,0,-4,0,0
1778019,912,-8294,219,0,-4,0,0
1778024,907,-8297,218,0,-4,0,0
1778029,902,-8298,218,0,-5,0,0
1778034,894,-8297,219,0,-5,0,0
1778039,883,-8297,217,0,-5,0,0
1778044,878,-8296,213,0,-6,0,0
1778049,871,-8294,204,0,-6,0,0
1778054,868,-8294,194,0,-5,0,0
1778059,869,-8293,184,0,-5,0,0
1778064,872,-8292,181,0,-5,0,0
1778069,873,-8292,180,0,-6,0,0
1778074,876,-8293,180,0,-6,0,0
1778079,879,-8292,183,0,-6,0,0
1778084,877,-8288,190,0,-6,0,0
1778089,873,-8290,191,0,-6,0,0
1778094,866,-8293,191,0,-5,0,0
1778099,856,-8292,189,0,-5,0,0
1778104,851,-8293,190,0,-5,0,0
1778109,845,-8293,186,0,-5,0,0
1778114,844,-8290,178,0,-4,0,0
1778119,851,-8290,169,0,-4,0,0
1778124,859,-8288,159,0,-4,0,0
1778129,869,-8287,154,-1,-3,0,0
1778134,878,-8287,150,-1,-3,0,0
1778139,889,-8288,153,-1,-2,0,0
1778144,898,-8287,155,-1,-2,0,0
1778149,904,-8287,161,-1,-2,0,0
1778154,910,-8285,175,-1,-3,0,0
1778159,912,-8285,188,-1,-3,0,0
1778164,918,-8285,199,-1,-3,0,0
1778169,925,-8282,205,-1,-3,0,0
1778174,929,-8287,204,-1,-3,0,0
1778179,934,-8287,198,-1,-3,0,0
1778184,936,-8287,192,-1,-4,0,0
1778189,934,-8284,184,0,-4,0,0
1778194,926,-8286,173,-1,-4,0,0
1778199,915,-8290,162,-1,-4,0,0
1778204,900,-8290,156,-1,-4,0,0
1778209,885,-8290,153,-1,-3,0,0
1778214,870,-8291,153,-1,-3,0,0
1778219,860,-8290,157,-1,-3,0,0
1778224,853,-8288,157,-1,-3,0,0
1778229,854,-8290,150,-1,-2,0,0
1778234,863,-8294,145,0,-2,0,0
1778239,870,-8294,138,-1,-2,0,0
1778244,877,-8293,134,0,-2,0,0
1778249,882,-8293,123,-1,-2,0,0
1778254,881,-8295,120,-1,-2,0,0
1778259,877,-8296,119,-1,-2,0,0
1778264,867,-8297,122,0,-2,0,0
1778269,852,-8297,129,-1,-2,0,0
1778274,841,-8295,141,-1,-2,0,0
1778279,833,-8296,148,0,-1,0,0
1778284,831,-8295,148,0,-1,0,0
1778289,838,-8294,153,0,-1,0,0
1778294,854,-8291,150,0,-1,0,0
1778299,871,-8288,152,-1,-1,0,0
1778304,887,-8289,158,0,-2,0,0
1778309,902,-8288,156,0,-2,0,0
1778314,910,-8288,157,0,-2,0,0
1778319,910,-8290,157,0,-2,0,0
1778324,904,-8291,156,-1,-3,0,0
1778329,894,-8291,152,-1,-3,0,0
1778334,887,-8291,146,-1,-3,0,0
1778339,883,-8292,144,0,-3,0,0
1778344,884,-8293,140,0,-4,0,0
1778349,890,-8291,140,0,-4,0,0
1778354,898,-8290,129,0,-4,0,0
1778359,906,-8290,118,0,-4,0,0
1778364,912,-8291,112,0,-5,0,0
1778369,913,-8296,113,0,-6,0,0
1778374,908,-8297,115,0,-7,0,0
1778379,899,-8296,118,0,-7,0,0
1778384,885,-8294,122,0,-7,0,0
1778389,869,-8293,123,0,-7,0,0
1778394,855,-8294,125,0,-7,0,0
1778399,845,-8293,126,0,-7,0,0
1778404,844,-8293,122,0,-7,0,0
1778409,850,-8294,117,0,-8,0,0
1778414,862,-8293,113,0,-9,0,0
1778419,879,-8292,111,0,-10,0,0
1778424,896,-8290,102,0,-11,0,0
1778429,911,-8285,103,0,-11,0,0
1778434,921,-8287,103,0,-12,0,0
1778439,925,-8289,106,0,-13,0,0
1778444,925,-8290,111,0,-14,0,0
1778449,925,-8285,117,0,-15,0,0
1778454,922,-8285,121,0,-15,0,0
1778459,921,-8287,127,0,-16,0,0
1778464,923,-8286,131,0,-17,0,0
1778469,921,-8287,135,0,-18,0,0
1778474,917,-8290,142,0,-17,0,0
1778479,911,-8289,148,0,-17,0,0
1778484,902,-8290,149,0,-16,0,0
1778489,896,-8290,146,0,-16,0,0
1778494,884,-8293,145,0,-16,0,0
1778499,861,-8296,147,0,-17,0,0
1778504,834,-8296,151,0,-16,0,0
1778509,809,-8295,160,0,-14,0,0
1778514,795,-8294,177,0,-11,0,0
1778519,791,-8296,199,0,-10,0,0
1778524,795,-8295,224,0,-9,0,0
1778529,810,-8294,254,0,-8,0,0
1778534,830,-8294,286,0,-8,0,0
1778539,860,-8292,308,0,-9,0,0
1778544,896,-8292,327,0,-11,0,0
1778549,932,-8290,342,0,-13,0,0
1778554,957,-8289,346,0,-16,0,0
1778559,976,-8290,341,0,-18,0,0
1778564,987,-8290,334,0,-19,0,0
1778569,987,-8289,320,0,-20,0,0
1778574,976,-8290,305,0,-21,0,0
1778579,954,-8292,290,0,-22,0,0
1778584,921,-8292,268,0,-23,0,0
1778589,877,-8292,241,0,-23,0,0
1778594,837,-8294,205,0,-22,0,0
1778599,808,-8295,159,0,-20,0,0
1778604,774,-8294,125,0,-18,0,0
1778609,753,-8295,85,0,-17,0,0
1778614,743,-8296,48,0,-15,0,0
1778619,735,-8299,29,0,-13,0,0
1778624,733,-8297,30,0,-12,0,0
1778629,734,-8297,44,0,-10,0,0
1778634,742,-8295,70,0,-9,0,0
1778639,748,-8297,96,0,-8,0,0
1778644,744,-8299,128,0,-7,0,0
1778649,737,-8300,166,0,-6,0,0
1778654,714,-8300,196,0,-4,0,0
1778659,715,-8301,207,0,-2,0,0
1778664,707,-8301,221,0,-2,0,0
1778669,687,-8303,226,0,-3,0,0
1778674,675,-8306,214,0,-1,0,0
1778679,682,-8305,200,0,1,0,0
1778684,698,-8305,164,0,1,0,0
1778689,706,-8303,131,0,1,0,0
1778694,706,-8297,88,0,2,0,0
1778699,710,-8295,40,0,4,0,0
1778704,713,-8294,12,0,5,0,0
1778709,717,-8293,-5,0,6,0,0
1778714,722,-8293,-11,0,7,0,0
1778719,738,-8296,5,0,6,0,0
1778724,755,-8297,23,0,6,0,0
1778729,775,-8298,50,0,5,0,0
1778734,795,-8298,87,0,6,0,0
1778739,824,-8296,120,0,7,0,0
1778744,850,-8295,159,0,8,0,0
1778749,877,-8294,184,0,7,0,0
1778754,887,-8295,200,0,6,0,0
1778759,879,-8293,206,0,6,0,0
1778764,857,-8292,203,0,6,0,0
1778769,830,-8292,197,0,8,0,0
1778774,810,-8293,181,0,9,0,0
1778779,798,-8292,156,0,9,0,0
1778784,783,-8293,131,0,7,0,0
1778789,766,-8295,108,0,6,0,0
1778794,747,-8296,82,0,6,0,0
1778799,739,-8299,55,0,7,0,0
1778804,738,-8302,47,0,9,0,0
1778809,740,-8302,47,0,10,0,0
1778814,750,-8299,60,0,11,0,0
1778819,762,-8294,81,0,11,0,0
1778824,773,-8294,112,0,11,0,0
1778829,787,-8295,138,0,11,0,0
1778834,798,-8294,164,0,11,0,0
1778839,807,-8293,177,0,10,0,0
1778844,815,-8294,181,0,10,0,0
1778849,822,-8295,185,0,10,0,0
1778854,835,-8295,183,0,11,0,0
1778859,852,-8294,187,0,11,0,0
1778864,873,-8292,191,0,10,0,0
1778869,893,-8291,197,0,9,0,0
1778874,908,-8290,203,0,7,0,0
1778879,916,-8292,209,0,6,0,0
1778884,921,-8289,212,0,5,0,0
1778889,923,-8287,218,0,4,0,0
1778894,925,-8286,224,0,3,0,0
1778899,922,-8288,229,0,2,0,0
1778904,914,-8286,237,0,0,0,0
1778909,904,-8285,237,0,0,0,0
1778914,888,-8286,230,0,-1,0,0
1778919,871,-8288,224,0,-1,0,0
1778924,852,-8290,219,0,0,0,0
1778929,834,-8290,215,0,0,0,0
1778934,818,-8291,208,0,0,0,0
1778939,804,-8294,206,0,0,0,0
1778944,794,-8298,204,0,0,0,0
1778949,790,-8298,209,0,0,0,0
1778954,788,-8298,219,0,0,0,0
1778959,789,-8299,230,0,0,0,0
1778964,790,-8298,234,0,0,0,0
1778969,792,-8297,239,0,-1,0,0
1778974,793,-8296,244,0,-1,0,0
1778979,792,-8294,250,0,-1,0,0
1778984,793,-8292,259,-1,-1,0,0
1778989,795,-8290,263,-1,-1,0,0
1778994,793,-8292,271,-1,-1,0,0
1778999,795,-8292,280,-1,-1,0,0
1779004,796,-8293,283,-1,-1,0,0
1779009,792,-8293,284,-1,-1,0,0
1779014,789,-8294,282,-1,-1,0,0
1779019,783,-8294,280,-1,-1,-1,0
1779024,774,-8298,280,-1,-1,-1,0
1779029,767,-8297,277,-1,-1,-1,0
1779034,759,-8295,279,-1,-1,-1,0
1779039,750,-8295,284,-1,-1,0,0
1779044,744,-8295,289,-1,-1,-1,0
1779049,740,-8298,284,-1,-1,-1,0
1779054,741,-8297,279,-1,-1,-1,0
1779059,744,-8298,274,-1,-1,-1,0
1779064,750,-8296,266,-1,-1,-1,0
1779069,759,-8296,258,-1,-1,-1,0
1779074,768,-8296,265,-1,-2,-1,0
1779079,769,-8297,268,-1,-2,-1,0
1779084,765,-8296,266,-1,-2,-1,0
1779089,761,-8294,253,-1,-2,-1,0
1779094,752,-8292,237,-1,-2,-1,0
1779099,742,-8293,216,-1,-2,-1,0
1779104,732,-8293,196,-1,-2,-1,0
1779109,727,-8294,174,-1,-1,-1,0
1779114,728,-8297,164,-1,-1,-1,0
1779119,736,-8298,157,-1,0,-1,0
1779124,745,-8295,159,-1,0,-1,0
1779129,757,-8295,162,-1,0,-1,0
1779134,769,-8295,166,-1,0,-1,0
1779139,782,-8294,168,-1,-1,-1,0
1779144,796,-8294,166,-1,-1,-1,0
1779149,803,-8291,157,-1,-2,-1,0
1779154,810,-8291,140,-1,-3,-1,0
1779159,811,-8290,121,-1,-3,-1,0
1779164,805,-8291,99,-1,-3,-1,0
1779169,798,-8292,81,-1,-3,-1,0
1779174,790,-8294,74,-1,-2,-1,0
1779179,783,-8294,64,-1,-2,-1,0
1779184,784,-8300,61,-1,-1,-1,0
1779189,790,-8301,65,-1,-1,-1,0
1779194,806,-8300,71,-1,-2,-1,0
1779199,822,-8299,76,-1,-2,-1,0
1779204,838,-8298,69,-1,-3,-1,0
1779209,849,-8295,64,-1,-4,-1,0
1779214,853,-8293,63,0,-4,-1,0
1779219,855,-8292,65,0,-4,-1,0
1779224,853,-8296,63,0,-3,-1,0
1779229,848,-8296,65,0,-3,-1,0
1779234,841,-8293,62,0,-3,-1,0
1779239,841,-8291,66,0,-3,-1,0
1779244,848,-8291,65,0,-2,-1,0
1779249,856,-8294,64,0,-2,-1,0
1779254,867,-8295,67,0,-2,-1,0
1779259,874,-8295,75,0,-1,-1,0
1779264,884,-8298,84,0,-1,-1,0
1779269,891,-8299,101,0,-1,-1,0
1779274,899,-8297,117,0,-1,-1,0
1779279,903,-8297,131,0,-2,-1,0
1779284,905,-8296,138,0,-2,-1,0
1779289,907,-8297,142,0,-2,-1,0
1779294,905,-8294,143,0,-3,-1,0
1779299,903,-8294,136,0,-3,-1,0
1779304,900,-8291,128,0,-3,-1,0
1779309,893,-8290,118,0,-2,-1,0
1779314,884,-8289,123,0,-2,-1,0
1779319,878,-8287,120,0,-2,-1,0
1779324,863,-8289,117,0,-1,0,0
1779329,847,-8291,116,0,-1,-1,0
1779334,832,-8293,116,0,0,-1,0
1779339,821,-8296,119,0,0,-1,0
1779344,814,-8296,124,0,0,-1,0
1779349,812,-8295,129,0,0,-1,0
1779354,820,-8291,139,0,0,0,0
1779359,831,-8292,142,0,0,0,0
1779364,839,-8290,149,0,0,-1,0
1779369,844,-8291,166,0,0,-1,0
1779374,846,-8294,185,0,0,-1,0
1779379,844,-8295,203,0,0,-1,0
1779384,837,-8293,213,0,0,-1,0
1779389,830,-8294,223,0,0,-1,0
1779394,821,-8294,232,0,0,-1,0
1779399,810,-8295,241,0,0,-1,0
1779404,800,-8294,241,0,0,-1,0
1779409,789,-8293,234,0,0,-1,0
1779414,780,-8292,226,0,1,-1,0
1779419,774,-8292,220,0,2,-1,0
1779424,770,-8290,211,0,2,-1,0
1779429,766,-8292,209,-1,2,-1,0
1779434,767,-8295,215,-1,3,-1,0
1779439,770,-8297,220,-1,4,-1,0
1779444,784,-8296,228,-1,4,-1,0
1779450,798,-8296,230,-1,4,-1,0
1779454,812,-8296,228,-1,3,-1,0
1779459,823,-8296,226,-1,3,-1,0
1779465,831,-8296,226,-1,2,-1,0
1779469,841,-8298,220,-1,2,-1,0
1779474,851,-8297,217,-1,1,-1,0
1779479,858,-8295,212,-1,0,-1,0
1779484,861,-8296,207,-1,0,-1,0
1779489,869,-8295,205,-1,-1,-1,0
1779494,872,-8296,205,-1,-1,-1,0
1779499,873,-8297,211,-1,-1,-1,0
1779504,871,-8298,214,-1,-1,-1,0
1779510,874,-8298,207,-1,-1,0,0
1779514,876,-8301,210,-1,-1,0,0
1779519,883,-8302,208,-1,-1,0,0
1779525,891,-8302,214,-1,-1,0,0
1779529,897,-8302,220,-1,-1,0,0
1779534,900,-8302,233,-1,-1,0,0
1779540,897,-8301,247,-1,-1,-1,0
1779545,886,-8300,252,-1,-1,0,0
1779550,874,-8300,250,-1,-1,0,0
1779554,861,-8301,248,-1,-2,0,0
1779559,849,-8297,246,-1,-2,0,0
1779565,846,-8296,242,-1,-2,0,0
1779569,843,-8295,237,-1,-2,0,0
1779574,844,-8297,226,-1,-2,0,0
1779579,842,-8297,210,-1,-2,0,0
1779585,842,-8295,196,-1,-1,0,0
1779590,843,-8297,177,-1,-2,0,0
1779594,840,-8294,171,-1,-2,0,0
1779600,834,-8293,171,-1,-3,0,0
1779605,827,-8294,170,-1,-3,0,0
1779610,826,-8294,174,-1,-3,0,0
1779615,829,-8294,179,-1,-3,0,0
1779620,837,-8292,178,-1,-3,0,0
1779625,844,-8292,173,-1,-4,0,0
1779630,849,-8292,164,-1,-3,0,0
1779635,850,-8291,157,-1,-3,0,0
1779640,851,-8293,153,-1,-3,0,0
1779645,847,-8293,151,-1,-3,0,0
1779650,841,-8296,145,-1,-3,0,0
1779655,837,-8296,144,-1,-4,0,0
1779660,839,-8296,138,-1,-4,0,0
1779665,843,-8301,131,-1,-4,0,0
1779670,846,-8305,125,-1,-4,0,0
1779675,849,-8308,123,-1,-4,0,0
1779680,852,-8307,125,-1,-4,0,0
1779685,853,-8304,122,-1,-4,0,0
1779690,847,-8304,122,-1,-3,0,0
1779695,838,-8302,126,-1,-3,0,0
1779700,830,-8301,138,-1,-3,0,0
1779705,820,-8300,144,-1,-2,0,0
1779710,809,-8300,141,-1,-3,0,0
1779715,794,-8301,133,-1,-3,0,0
1779720,778,-8300,119,-1,-3,0,0
1779725,762,-8300,99,-1,-3,0,0
1779730,750,-8299,73,-1,-2,0,0
1779735,744,-8299,50,-1,-1,0,0
1779740,742,-8297,30,-1,0,0,0
1779745,745,-8296,22,-1,1,0,0
1779750,753,-8298,28,-1,1,0,0
1779755,761,-8301,32,-1,1,0,0
1779760,770,-8302,44,0,1,-1,0
1779765,777,-8299,59,0,1,-1,0
1779770,784,-8298,71,0,0,0,0
1779775,785,-8299,81,0,0,0,0
1779780,784,-8300,89,0,0,-1,0
1779785,785,-8302,94,0,0,-1,0
1779790,785,-8299,98,0,0,-1,0
1779795,787,-8297,94,0,0,-1,0
1779800,793,-8297,88,0,1,0,0
1779805,802,-8296,82,0,1,-1,0
1779810,811,-8299,81,0,1,0,0
1779815,828,-8299,89,0,1,-1,0
1779820,843,-8298,92,0,1,0,0
1779825,857,-8298,96,0,0,0,0
1779830,872,-8299,103,0,0,0,0
1779835,884,-8301,108,0,-1,0,0
1779840,892,-8301,114,0,-2,0,0
1779845,893,-8299,121,0,-3,0,0
1779850,897,-8299,124,0,-3,0,0
1779855,893,-8298,127,0,-2,0,0
1779860,880,-8299,129,0,-2,0,0
1779865,862,-8300,132,0,-2,0,0
1779870,843,-8304,141,0,-2,0,0
1779875,824,-8303,153,0,-2,0,0
1779880,807,-8302,151,0,-1,0,0
1779885,797,-8301,160,0,-1,0,0
1779890,794,-8302,159,0,0,0,0
1779895,798,-8299,161,0,0,0,0
1779900,809,-8301,164,0,0,0,0
1779905,815,-8303,164,0,0,0,0
1779910,821,-8301,171,0,0,0,0
1779915,828,-8297,180,0,0,0,0
1779920,833,-8297,181,0,0,0,0
1779925,835,-8298,180,0,0,0,0
1779930,837,-8296,179,0,0,0,0
1779935,833,-8296,180,0,0,0,0
1779940,830,-8298,184,0,0,0,0
1779945,825,-8298,183,0,1,0,0
1779950,820,-8296,178,0,1,0,0
1779955,811,-8295,176,0,1,0,0
1779960,803,-8296,171,0,2,0,0
1779965,795,-8298,166,0,2,0,0
1779970,791,-8299,156,0,3,0,0
1779975,792,-8299,152,0,4,0,0
1779980,797,-8300,150,0,4,0,0
1779985,808,-8300,146,0,4,0,0
1779990,816,-8300,146,0,3,0,0
1779995,812,-8297,148,0,1,0,0
1780000,800,-8298,148,0,0,0,0
1780005,783,-8298,150,0,0,0,0
1780010,770,-8301,147,0,0,0,0
1780015,760,-8302,152,0,0,-1,0
1780020,747,-8302,165,0,0,0,0
1780025,739,-8301,177,0,1,0,0
1780030,740,-8301,186,0,1,-1,0
1780035,750,-8304,193,0,2,0,0
1780040,760,-8305,192,0,2,0,0
1780045,770,-8305,191,0,2,-1,0
1780050,774,-8309,187,0,1,-1,0
1780055,776,-8310,175,0,0,-1,0
1780060,771,-8307,166,0,-1,-1,0
1780065,764,-8307,155,0,-1,-1,0
1780070,762,-8308,146,0,0,-1,0
1780075,762,-8308,137,0,0,-1,0
1780080,763,-8308,130,0,0,-1,0
1780085,764,-8307,128,0,0,-1,0
1780090,769,-8308,124,0,1,-1,0
1780095,779,-8305,128,0,1,-1,0
1780100,790,-8304,129,0,1,-1,0
1780105,801,-8303,125,0,1,-1,0
1780110,811,-8301,121,0,1,-1,0
1780115,815,-8303,116,0,0,-1,0
1780120,816,-8304,114,0,0,-1,0
1780125,814,-8303,117,0,0,-1,0
1780130,813,-8302,114,0,-1,-1,0
1780135,809,-8299,114,0,-1,-1,0
1780140,800,-8301,117,0,-1,-1,0
1780145,791,-8303,120,0,-1,-1,0
1780150,787,-8298,127,0,-1,-1,0
1780155,786,-8297,138,0,-1,-1,0
1780160,785,-8297,150,0,-1,-1,0
1780165,789,-8295,157,0,-1,-1,0
1780170,799,-8295,167,0,-1,-1,0
1780175,809,-8296,175,0,-1,-1,0
1780180,817,-8300,183,0,-2,-1,0
1780185,824,-8301,197,0,-1,-1,0
1780190,831,-8300,199,0,-2,-1,0
1780195,836,-8300,205,0,-2,-1,0
1780200,837,-8302,213,0,-2,-1,0
1780205,838,-8301,214,0,-2,-1,0
1780210,837,-8301,219,0,-2,-1,0
1780215,836,-8300,217,0,-1,-1,0
1780220,832,-8302,218,0,-1,-1,0
1780225,831,-8302,218,0,-1,-1,0
1780230,832,-8304,216,0,-1,-1,0
1780235,833,-8302,217,0,-1,-1,0
1780240,832,-8303,220,0,-1,-1,0
1780245,833,-8304,217,0,0,-1,0
1780250,828,-8305,216,0,0,-1,0
1780255,823,-8302,213,0,0,-1,0
1780260,822,-8298,212,0,0,-1,0
1780265,820,-8298,203,0,0,-1,0
1780270,821,-8295,195,0,0,-1,0
1780275,823,-8293,187,0,0,-1,0
1780280,825,-8295,177,0,0,-1,0
1780285,827,-8294,172,0,0,-1,0
1780290,831,-8296,168,0,0,-1,0
1780295,830,-8294,176,0,-1,-1,0
1780300,820,-8293,182,0,-1,-1,0
1780305,813,-8292,189,0,-1,-1,0
1780310,805,-8296,197,0,-1,-1,0
1780315,798,-8300,201,0,-1,-1,0
1780320,793,-8300,205,0,-1,-1,0
1780325,789,-8301,205,0,-1,-1,0
1780330,787,-8303,206,0,-1,-1,0
1780335,792,-8299,202,0,-1,-1,0
1780340,799,-8298,192,0,-1,-1,0
1780345,807,-8299,179,0,-1,-1,0
1780350,813,-8300,171,0,-1,-1,0
1780355,818,-8302,170,0,-1,-1,0
1780360,820,-8300,169,0,-1,-1,0
1780365,825,-8297,174,0,-1,-1,0
1780370,825,-8298,182,0,0,-1,0
1780375,827,-8300,191,0,0,-1,0
1780380,832,-8301,199,0,0,-1,0
1780385,837,-8301,211,0,0,-1,0
1780390,846,-8303,218,0,0,-1,0
1780395,855,-8300,220,0,0,-1,0
1780400,865,-8299,220,-1,0,0,0
1780405,869,-8296,214,-1,-1,0,0
1780410,868,-8295,208,-1,-1,-1,0
1780415,866,-8293,203,-1,-1,0,0
1780420,857,-8295,202,-1,-1,0,0
1780425,846,-8299,201,-1,-1,0,0
1780430,834,-8300,203,-1,0,0,0
1780435,829,-8300,205,-1,0,0,0
1780440,827,-8300,210,-1,0,0,0
1780445,827,-8300,210,-1,0,0,0
1780450,828,-8299,208,-1,-1,-1,0
1780455,831,-8296,202,-1,-1,0,0
1780460,830,-8294,193,-1,-1,0,0
1780465,830,-8293,185,-1,-1,-1,0
1780470,830,-8294,172,-1,-1,-1,0
1780475,829,-8294,170,-1,-1,-1,0
1780480,826,-8297,162,-1,-2,-1,0
1780485,820,-8296,154,-1,-2,0,0
1780490,815,-8296,148,-1,-2,-1,0
1780495,807,-8295,149,-1,-2,-1,0
1780500,801,-8296,146,-1,-2,-1,0
1780505,793,-8298,144,-1,-2,0,0
1780510,787,-8298,146,-1,-2,0,0
1780515,778,-8299,147,-1,-1,-1,0
1780520,770,-8301,147,-1,-1,-1,0
1780525,764,-8302,151,-1,0,-1,0
1780530,758,-8301,158,-1,0,0,0
1780535,754,-8301,157,-1,0,-1,0
1780540,758,-8301,161,-1,0,-1,0
1780545,763,-8302,162,-1,0,-1,0
1780550,767,-8301,166,-1,0,-1,0
1780555,778,-8298,172,-1,0,-1,0
1780560,786,-8295,176,-1,0,-1,0
1780565,795,-8294,176,-1,0,-1,0
1780570,803,-8293,174,-1,0,-1,0
1780575,805,-8291,169,-1,0,-1,0
1780580,810,-8292,162,-1,0,-1,0
1780585,811,-8293,160,-1,0,-1,0
1780590,808,-8294,156,-1,-1,-1,0
1780595,804,-8295,156,-1,0,-1,0
1780600,805,-8296,154,-1,0,-1,0
1780605,808,-8299,151,-1,0,-1,0
1780610,811,-8297,145,-1,0,-1,0
1780615,816,-8297,145,-1,-1,-1,0
1780620,818,-8300,143,0,-1,-1,0
1780625,820,-8299,143,0,-1,-1,0
1780630,822,-8298,143,-1,-1,-1,0
1780635,822,-8299,149,-1,-1,-1,0
1780640,822,-8300,156,-1,-1,-1,0
1780645,824,-8303,169,-1,0,-1,0
1780650,822,-8303,182,-1,0,-1,0
1780655,813,-8300,196,-1,0,-1,0
1780660,805,-8297,207,-1,-1,-1,0
1780665,796,-8295,217,-1,-1,-1,0
1780670,787,-8293,221,-1,-1,-1,0
1780675,779,-8291,220,-1,-1,-1,0
1780680,772,-8291,212,-1,-1,-1,0
1780685,762,-8295,203,-1,-1,-1,0
1780690,755,-8295,189,-1,-1,-1,0
1780695,753,-8294,172,-1,0,-1,0
1780700,752,-8293,148,-1,-1,-1,0
1780705,749,-8296,127,0,-1,-1,0
1780710,744,-8294,108,0,-1,-1,0
1780715,746,-8293,92,0,0,-1,0
1780720,750,-8294,75,0,0,-1,0
1780725,756,-8296,67,0,-1,-1,0
1780730,758,-8298,66,0,-1,-1,0
1780735,762,-8301,77,0,0,-1,0
1780740,772,-8299,91,0,0,-1,0
1780745,778,-8300,103,0,-1,-1,0
1780750,785,-8297,119,0,-1,-1,0
1780755,791,-8298,134,0,-1,-1,0
1780760,797,-8299,141,0,-1,-1,0
1780765,804,-8300,143,0,-1,-1,0
1780770,806,-8297,138,0,-1,-1,0
1780775,808,-8297,131,0,-1,-1,0
1780780,810,-8299,125,0,-1,-1,0
1780785,811,-8300,123,0,-1,-1,0
1780790,813,-8300,121,0,0,-1,0
1780795,815,-8300,122,0,0,-1,0
1780800,819,-8300,127,0,0,-1,0
1780805,822,-8299,139,0,0,-1,0
1780810,822,-8302,158,0,0,-1,0
1780815,824,-8303,171,0,0,-1,0
1780820,827,-8302,180,0,0,-1,0
1780825,833,-8300,180,0,0,-1,0
1780830,839,-8300,176,0,0,-1,0
1780835,844,-8301,172,0,0,-1,0
1780840,850,-8298,172,0,0,-1,0
1780845,854,-8300,165,0,0,-1,0
1780850,855,-8300,167,0,0,-1,0
1780855,855,-8299,170,0,0,-1,0
1780860,855,-8299,178,0,0,-1,0
1780865,852,-8294,181,0,1,-1,0
1780870,848,-8297,188,0,0,-1,0
1780875,841,-8297,199,0,0,-1,0
1780880,835,-8296,202,0,0,-1,0
1780885,829,-8297,197,0,0,-1,0
1780890,823,-8298,195,0,0,-1,0
1780895,818,-8297,191,0,0,-1,0
1780900,816,-8296,187,0,0,-1,0
1780905,814,-8299,187,0,0,-1,0
1780910,813,-8298,178,0,0,-1,0
1780915,811,-8298,180,0,1,-1,0
1780920,810,-8298,180,0,1,-1,0
1780925,810,-8297,180,0,1,-1,0
1780930,805,-8298,181,0,2,-1,0
1780935,809,-8299,186,0,2,-1,0
1780940,809,-8298,185,0,1,-1,0
1780945,809,-8298,184,0,1,-1,0
1780950,815,-8301,183,0,1,-1,0
1780955,825,-8298,189,0,1,-1,0
1780960,833,-8294,191,0,1,-1,0
1780965,843,-8291,189,0,2,-1,0
1780970,847,-8290,191,0,1,-1,0
1780975,844,-8290,191,0,1,-1,0
1780980,840,-8291,183,0,1,-1,0
1780985,834,-8289,171,0,1,-1,0
1780990,830,-8289,161,0,1,-1,0
1780995,826,-8291,154,0,1,-1,0
1781000,824,-8292,146,0,1,-1,0
1781005,820,-8292,136,0,2,-1,0
1781010,821,-8294,128,0,2,-1,0
1781015,825,-8293,124,0,2,-1,0
1781020,830,-8291,124,0,2,-1,0
1781025,836,-8291,133,0,2,-1,0
1781030,843,-8289,139,0,2,-1,0
1781035,852,-8289,151,0,2,-1,0
1781040,861,-8289,158,0,1,-1,0
1781045,867,-8289,164,0,0,-1,0
1781050,869,-8289,164,0,-1,-1,0
1781055,872,-8290,159,0,-1,-1,0
1781060,874,-8291,145,0,-1,-1,0
1781065,872,-8291,128,0,-1,-1,0
1781070,869,-8291,113,0,-1,-1,0
1781075,863,-8293,97,0,-1,-1,0
1781080,859,-8294,85,0,-1,-1,0
1781085,856,-8294,78,0,-1,-1,0
1781091,857,-8295,79,0,-1,-1,0
1781095,857,-8295,86,0,0,-1,0
1781100,864,-8293,98,0,0,-1,0
1781106,872,-8290,113,0,0,-1,0
1781110,883,-8290,128,0,0,-1,0
1781116,894,-8292,144,0,-1,-1,0
1781120,901,-8290,151,0,-1,-1,0
1781125,905,-8289,158,0,-1,-1,0
1781130,903,-8293,171,0,-1,-1,0
1781135,899,-8296,182,0,0,-1,0
1781140,891,-8296,182,0,0,-1,0
1781145,883,-8294,194,0,0,-1,0
1781150,879,-8291,200,0,0,-1,0
1781155,876,-8290,210,0,0,-1,0
1781160,876,-8293,213,0,0,-1,0
1781165,877,-8294,214,0,0,-1,0
1781170,879,-8296,217,0,0,-1,0
1781175,881,-8293,214,0,0,-1,0
1781181,886,-8292,218,0,0,-1,0
1781186,887,-8293,223,0,0,-1,0
1781190,886,-8291,225,0,0,-1,0
1781195,887,-8291,232,0,0,-1,0
1781201,884,-8291,238,0,0,-1,0
1781206,880,-8290,243,0,0,-1,0
1781210,875,-8290,241,0,0,-1,0
1781215,868,-8290,241,0,0,-1,0
1781220,856,-8293,243,0,0,-1,0
1781226,849,-8293,238,0,0,-1,0
1781231,844,-8292,233,0,0,-1,0
1781236,836,-8292,231,0,0,-1,0
1781241,831,-8295,229,0,0,-1,0
1781245,828,-8297,233,0,0,-1,0
1781251,825,-8297,238,0,0,-1,0
1781256,819,-8296,248,0,0,-1,0
1781261,813,-8297,260,0,-1,-1,0
1781266,805,-8297,269,0,-1,-1,0
1781271,796,-8298,280,0,-1,-1,0
1781276,789,-8297,291,0,-1,-1,0
1781281,784,-8300,298,0,-1,-1,0
1781286,781,-8300,301,0,-1,-1,0
1781291,779,-8300,296,0,0,-1,0
1781296,782,-8297,289,0,0,-1,0
1781301,786,-8295,282,0,0,-1,0
1781306,790,-8297,274,0,0,-1,0
1781311,796,-8296,273,0,0,-1,0
1781316,804,-8295,274,0,0,-1,0
1781321,815,-8292,283,-1,0,-1,0
1781326,824,-8290,292,-1,0,-1,0
1781331,832,-8291,292,0,-1,-1,0
1781336,840,-8291,289,-1,-1,-1,0
1781341,847,-8293,286,-1,-1,-1,0
1781346,849,-8294,272,-1,-1,-1,0
1781351,846,-8295,260,0,-1,-1,0
1781356,839,-8296,244,0,-1,-1,0
1781361,833,-8296,227,-1,-1,-1,0
1781366,825,-8299,211,-1,-1,-1,0
1781371,822,-8303,195,-1,-1,-1,0
1781376,829,-8304,184,-1,0,-1,0
1781381,839,-8302,179,-1,0,-1,0
1781386,851,-8302,179,0,0,-1,0
1781391,862,-8299,182,0,0,-1,0
1781396,874,-8296,190,0,0,-1,0
1781401,886,-8294,196,0,0,-1,0
1781406,895,-8291,199,0,-1,-1,0
1781411,902,-8291,208,0,-1,-1,0
1781416,907,-8291,215,0,-1,-1,0
1781421,912,-8291,219,0,-1,-1,0
1781426,914,-8292,214,0,-1,-1,0
1781431,916,-8292,208,0,-1,-1,0
1781436,914,-8291,206,0,-1,-1,0
1781441,914,-8290,208,0,-1,-1,0
1781446,917,-8288,208,0,-1,-1,0
1781451,922,-8291,213,0,0,-1,0
1781456,925,-8294,219,-1,0,-1,0
1781461,927,-8295,226,-1,0,-1,0
1781466,928,-8295,235,-1,0,-1,0
1781471,924,-8296,237,0,0,-1,0
1781476,920,-8294,233,0,0,-1,0
1781481,917,-8291,229,0,0,-1,0
1781486,912,-8289,224,0,-1,-1,0
1781491,907,-8289,223,-1,-1,-1,0
1781496,908,-8290,217,-1,-1,-1,0
1781501,911,-8291,215,-1,-1,-1,0
1781506,919,-8291,216,-1,-1,-1,0
1781511,922,-8290,218,-1,-1,-1,0
1781516,921,-8289,232,-1,-1,-1,0
1781521,913,-8291,247,-1,-1,-1,0
1781526,902,-8290,259,-1,0,-1,0
1781531,896,-8291,271,-1,0,-1,0
1781536,890,-8288,280,-1,0,0,0
1781541,888,-8289,275,-1,0,0,0
1781546,890,-8292,273,-1,0,0,0
1781551,892,-8293,256,-1,0,0,0
1781556,901,-8296,249,-1,0,0,0
1781561,905,-8297,241,-1,-1,0,0
1781566,907,-8297,233,-1,-1,0,0
1781571,908,-8296,233,-1,-1,0,0
1781576,905,-8297,235,-1,-1,0,0
1781581,903,-8296,242,-1,-1,0,0
1781586,900,-8294,254,-1,-1,0,0
1781591,896,-8294,259,-1,-1,0,0
1781596,891,-8292,250,-1,-1,0,0
1781601,890,-8289,254,-1,-1,0,0
1781606,890,-8289,249,-1,-1,0,0
1781611,894,-8291,244,-1,-1,0,0
1781616,896,-8290,233,-1,-1,0,0
1781621,894,-8287,215,-1,-1,0,0
1781626,892,-8286,199,-1,-1,0,0
1781631,889,-8289,187,-1,-1,0,0
1781636,881,-8293,177,-1,-1,0,0
1781641,872,-8294,172,-1,-1,0,0
1781646,864,-8297,173,-1,-1,0,0
1781651,856,-8300,180,-1,-1,-1,0
1781656,848,-8299,183,-1,0,0,0
1781661,846,-8297,190,-1,0,0,0
1781666,847,-8299,196,-1,0,0,0
1781671,850,-8297,203,-1,-1,0,0
1781676,852,-8295,210,-1,0,0,0
1781681,858,-8296,217,-1,-1,0,0
1781686,861,-8296,217,-1,-1,0,0
1781691,861,-8296,217,-1,-1,0,0
1781696,860,-8298,212,-1,-1,0,0
1781701,858,-8298,205,-1,-1,0,0
1781706,859,-8296,201,-1,-1,0,0
1781711,857,-8298,203,-1,-1,0,0
1781716,856,-8297,203,-1,-1,0,0
1781721,856,-8298,204,-1,-1,0,0
1781726,857,-8298,207,-1,-1,0,0
1781731,855,-8295,214,-1,-1,0,0
1781736,853,-8294,214,-1,-1,0,0
1781741,850,-8294,214,-1,-1,0,0
1781746,848,-8295,210,-1,-1,0,0
1781751,847,-8294,208,-1,-1,0,0
1781756,844,-8294,205,-1,-1,0,0
1781761,844,-8294,205,-1,-1,0,0
1781766,844,-8295,201,-1,0,0,0
1781771,846,-8296,198,-1,0,0,0
1781776,849,-8295,197,-1,0,0,0
1781781,853,-8296,195,-1,-1,0,0
1781786,855,-8298,195,-1,-1,0,0
1781791,855,-8302,195,-1,-1,0,0
1781796,854,-8300,192,-1,-1,0,0
1781801,852,-8298,194,-1,-1,-1,0
1781806,849,-8297,196,-1,-1,0,0
1781811,847,-8297,199,-1,-1,-1,0
1781816,846,-8297,196,-1,-1,0,0
1781821,841,-8297,189,-1,-1,-1,0
1781826,842,-8296,181,-1,-2,0,0
1781831,843,-8297,169,-1,-2,0,0
1781836,840,-8299,166,-1,-2,-1,0
1781841,840,-8300,164,-1,-2,-1,0
1781846,839,-8298,167,-1,-1,-1,0
1781851,835,-8296,166,-1,-1,-1,0
1781856,831,-8294,170,-1,-1,-1,0
1781861,829,-8294,177,-1,0,-1,0
1781866,832,-8295,184,-1,0,0,0
1781871,838,-8299,196,-1,0,-1,0
1781876,842,-8300,210,-1,0,-1,0
1781881,846,-8303,225,-1,0,-1,0
1781886,850,-8302,235,-1,1,0,0
1781891,852,-8301,238,-1,0,-1,0
1781896,849,-8302,242,-1,0,-1,0
1781901,843,-8300,235,-1,0,-1,0
1781906,838,-8298,229,-1,0,-1,0
1781911,836,-8301,218,-1,0,0,0
1781916,839,-8302,198,-1,0,-1,0
1781921,843,-8302,180,-1,0,-1,0
1781926,851,-8302,162,-1,0,0,0
1781931,855,-8298,147,-1,0,-1,0
1781936,855,-8293,130,-1,0,0,0
1781941,854,-8290,114,-1,0,-1,0
1781946,853,-8290,105,0,0,-1,0
1781951,853,-8291,99,0,0,-1,0
1781956,848,-8292,97,0,-1,-1,0
1781961,844,-8294,95,0,-1,-1,0
1781966,839,-8298,99,0,-1,-1,0
1781971,837,-8298,105,0,-1,-1,0
1781976,837,-8295,108,0,0,-1,0
1781981,835,-8297,113,0,0,-1,0
1781986,831,-8298,124,0,-1,-1,0
1781991,826,-8298,132,0,-1,-1,0
1781996,824,-8298,139,0,-1,-1,0
1782001,818,-8297,143,0,-1,-1,0
1782006,808,-8295,148,0,-1,-1,0
1782011,803,-8295,155,0,0,-1,0
1782016,800,-8295,163,0,0,-1,0
1782021,803,-8295,175,0,0,-1,0
1782026,805,-8294,181,0,0,-1,0
1782031,813,-8296,190,0,0,-1,0
1782036,822,-8296,197,0,0,-1,0
1782041,830,-8296,204,0,0,-1,0
1782046,836,-8293,206,0,0,-1,0
1782051,842,-8291,208,0,0,-1,0
1782056,852,-8289,210,0,0,-1,0
1782061,860,-8288,214,0,0,-1,0
1782066,870,-8287,213,0,0,-1,0
1782071,878,-8287,212,0,-1,-1,0
1782076,887,-8288,212,0,-1,-1,0
1782081,892,-8292,209,0,-1,-1,0
1782086,893,-8291,208,0,-1,-1,0
1782091,890,-8293,206,0,-1,-1,0
1782096,883,-8292,203,0,-1,-1,0
1782101,875,-8291,204,0,-1,-1,0
1782106,870,-8292,209,0,-1,-1,0
1782111,866,-8295,218,0,-1,-1,0
1782116,862,-8297,224,0,-1,-1,0
1782121,861,-8295,230,0,0,-1,0
1782126,862,-8293,232,0,0,-1,0
1782131,869,-8294,235,0,0,-1,0
1782136,875,-8293,234,0,0,-1,0
1782141,879,-8293,231,0,0,-1,0
1782146,882,-8292,229,0,0,-1,0
1782151,883,-8293,231,-1,0,-1,0
1782156,881,-8295,233,-1,-1,-1,0
1782161,871,-8296,233,-1,-1,-1,0
1782166,865,-8296,236,0,0,-1,0
1782171,861,-8295,234,0,0,-1,0
1782176,855,-8296,236,0,-1,-1,0
1782181,856,-8296,233,-1,0,-1,0
1782186,860,-8298,224,0,0,-1,0
1782191,866,-8294,216,-1,0,-1,0
1782196,870,-8293,210,-1,0,-1,0
1782201,874,-8291,209,-1,-1,-1,0
1782206,876,-8291,208,-1,-1,-1,0
1782211,878,-8291,208,-1,-1,-1,0
1782216,875,-8296,210,-1,-1,-1,0
1782221,869,-8299,211,0,0,-1,0
1782226,863,-8300,208,0,0,-1,0
1782231,858,-8300,208,0,0,-1,0
1782236,856,-8300,206,0,0,-1,0
1782241,857,-8300,201,0,0,-1,0
1782246,858,-8297,194,0,0,-1,0
1782251,860,-8296,188,0,0,-1,0
1782256,868,-8297,187,0,0,-1,0
1782261,875,-8296,188,0,0,-1,0
1782266,881,-8292,185,0,0,-1,0
1782271,880,-8292,186,0,0,-1,0
1782276,872,-8291,180,0,0,-1,0
1782281,868,-8293,180,0,0,-1,0
1782286,861,-8293,183,0,0,-1,0
1782291,856,-8292,181,0,0,-1,0
1782296,854,-8292,180,0,0,-1,0
1782301,855,-8295,172,0,0,-1,0
1782306,855,-8297,167,0,0,-1,0
1782311,855,-8300,164,0,0,-1,0
1782316,857,-8299,164,0,0,-1,0
1782321,859,-8298,165,0,0,-1,0
1782326,859,-8297,173,0,0,-1,0
1782331,862,-8296,176,0,0,-1,0
1782336,861,-8296,180,0,0,-1,0
1782341,857,-8296,186,0,0,-1,0
1782346,856,-8295,195,0,0,-1,0
1782351,853,-8296,194,0,0,-1,0
1782356,852,-8298,199,0,0,-1,0
1782361,857,-8297,204,0,0,-1,0
1782366,862,-8297,213,0,0,-1,0
1782371,866,-8298,225,0,0,-1,0
1782376,870,-8298,236,0,0,-1,0
1782381,875,-8300,248,0,0,-1,0
1782386,874,-8300,255,0,0,-1,0
1782391,873,-8298,258,0,-1,-1,0
1782396,868,-8295,256,0,0,-1,0
1782401,861,-8293,254,0,-1,-1,0
1782406,853,-8296,255,0,-1,-1,0
1782411,841,-8295,256,0,-1,-1,0
1782416,835,-8295,268,-1,0,-1,0
1782421,834,-8297,283,-1,-1,-1,0
1782426,833,-8296,297,-1,-1,-1,0
1782431,830,-8298,310,-1,-1,-1,0
1782436,823,-8299,322,-1,-1,-1,0
1782441,813,-8301,334,-1,-1,-1,0
1782446,799,-8302,353,-1,-1,-1,0
1782451,784,-8303,366,-1,-1,-1,0
1782456,770,-8303,377,-1,-1,-1,0
1782461,757,-8304,402,-1,-1,-1,0
1782466,746,-8304,429,-1,-1,-1,0
1782471,739,-8305,461,-1,-1,-1,0
1782476,738,-8304,500,-1,-1,-1,0
1782481,747,-8302,539,-2,0,-1,0
1782486,761,-8299,578,-2,-1,-1,0
1782491,772,-8298,611,-2,-1,-1,0
1782496,783,-8294,641,-2,-1,-1,0
1782501,791,-8295,665,-2,-1,-1,0
1782506,792,-8296,677,-2,-2,-1,0
1782511,792,-8298,682,-2,-2,-1,0
1782516,787,-8300,690,-3,-3,-1,0
1782521,785,-8301,701,-3,-3,-1,7
1782526,787,-8301,717,-3,-2,-1,7
1782531,822,-8298,726,-3,1,-1,7
1782536,902,-8295,726,-3,4,-1,7
1782541,1014,-8292,721,-3,4,-1,7
1782546,1130,-8287,703,-3,3,-1,7
1782551,1235,-8287,685,-4,2,0,7
1782556,1322,-8285,668,-4,2,0,7
1782561,1393,-8284,640,-4,3,0,7
1782566,1455,-8281,621,-4,2,0,7
1782571,1500,-8279,593,-4,1,0,7
1782576,1527,-8279,564,-4,0,1,7
1782581,1546,-8276,536,-4,-1,1,7
1782586,1558,-8280,489,-4,-2,1,7
1782591,1557,-8279,441,-4,-3,1,7
1782596,1555,-8275,386,-4,0,2,7
1782601,1575,-8273,328,-4,3,2,7
1782606,1620,-8274,275,-4,5,2,7
1782611,1690,-8277,229,-4,3,3,7
1782616,1764,-8276,210,-4,-2,3,7
1782621,1835,-8271,194,-4,-6,3,7
1782626,1903,-8268,184,-4,-8,4,7
1782631,1976,-8263,172,-4,-9,4,7
1782636,2054,-8258,149,-4,-9,5,7
1782641,2135,-8255,119,-3,-10,5,7
1782646,2212,-8252,68,-3,-10,6,7
1782651,2271,-8247,-5,-3,-8,7,7
1782656,2330,-8242,-90,-2,-2,8,7
1782661,2410,-8239,-207,-2,1,9,7
1782666,2501,-8237,-345,-2,2,10,7
1782671,2579,-8235,-499,-2,1,10,7
1782676,2653,-8230,-647,-2,0,11,7
1782681,2732,-8227,-776,-2,-1,11,7
1782686,2811,-8223,-896,-1,-2,12,7
1782691,2893,-8217,-1010,-1,-2,12,7
1782696,2959,-8211,-1126,0,-2,12,7
1782701,2994,-8202,-1256,0,-2,12,7
1782706,2995,-8197,-1391,1,-3,13,7
1782711,2948,-8198,-1517,2,-5,13,7
1782716,2861,-8198,-1635,2,-7,14,7
1782721,2742,-8201,-1735,3,-8,15,7
1782727,2610,-8211,-1799,3,-4,16,7
1782731,2478,-8215,-1824,4,-2,16,7
1782736,2387,-8214,-1821,5,-2,17,7
1782742,2351,-8208,-1810,5,1,18,7
1782747,2356,-8198,-1813,6,3,18,7
1782752,2382,-8185,-1831,7,6,18,7
1782757,2424,-8176,-1847,7,9,19,7
1782762,2459,-8165,-1866,8,11,19,7
1782766,2463,-8154,-1877,8,12,19,7
1782771,2440,-8141,-1872,8,12,20,7
1782776,2378,-8125,-1858,9,13,20,7
1782781,2286,-8115,-1844,10,13,21,7
1782787,2182,-8105,-1858,10,12,21,7
1782792,2068,-8088,-1907,11,12,22,7
1782797,1952,-8075,-1987,12,11,22,7
1782802,1842,-8067,-2102,13,11,22,7
1782807,1733,-8053,-2245,14,11,23,7
1782812,1617,-8042,-2397,14,11,23,7
1782817,1484,-8031,-2533,15,11,23,7
1782822,1345,-8021,-2659,16,10,22,7
1782827,1238,-8009,-2770,17,9,22,7
1782832,1099,-7997,-2854,18,9,22,7
1782836,900,-7984,-2900,19,7,22,7
1782842,697,-7974,-2933,19,4,19,7
1782847,474,-7956,-2946,20,3,17,7
1782852,65,-7946,-2918,20,4,17,7
1782857,-512,-7943,-2872,21,0,16,7
1782862,-1152,-7942,-2784,21,-2,16,7
1782867,-1811,-7941,-2631,22,-2,17,7
1782872,-2398,-7938,-2422,23,-1,17,7
1782877,-2856,-7934,-2185,24,3,17,7
1782882,-3144,-7930,-1963,25,11,17,7
1782887,-3301,-7930,-1777,26,21,15,7
1782892,-3365,-7935,-1655,27,30,14,7
1782897,-3387,-7941,-1582,28,35,12,7
1782902,-3450,-7950,-1527,28,36,10,7
1782907,-3577,-7961,-1433,27,33,8,7
1782912,-3757,-7969,-1299,27,29,7,7
1782917,-3983,-7969,-1120,27,27,6,7
1782922,-4230,-7966,-876,27,27,5,7
1782927,-4456,-7961,-637,27,30,4,7
1782932,-4638,-7955,-449,28,35,3,7
1782937,-4746,-7950,-343,29,41,2,7
1782942,-4799,-7955,-278,30,48,0,7
1782947,-4807,-7961,-250,30,52,-1,7
1782952,-4797,-7968,-215,29,54,-3,7
1782957,-4818,-7973,-76,28,55,-4,7
1782962,-4884,-7972,206,27,54,-6,7
1782967,-4984,-7963,565,26,53,-8,7
1782972,-5092,-7947,927,26,54,-9,7
1782977,-5182,-7928,1294,26,56,-10,7
1782982,-5221,-7916,1673,27,56,-11,7
1782987,-5172,-7909,1956,27,55,-11,7
1782992,-5032,-7903,2139,27,53,-12,7
1782997,-4815,-7903,2241,27,51,-13,7
1783002,-4575,-7901,2277,26,48,-15,7
1783007,-4357,-7900,2323,25,45,-16,7
1783012,-4212,-7899,2401,24,42,-18,7
1783017,-4171,-7895,2525,23,40,-19,7
1783022,-4203,-7892,2696,23,38,-20,7
1783027,-4280,-7889,2914,22,38,-21,7
1783032,-4358,-7882,3143,22,38,-22,7
1783037,-4380,-7875,3352,21,41,-22,7
1783042,-4323,-7869,3547,20,45,-23,7
1783047,-4171,-7868,3722,19,49,-23,7
1783052,-3951,-7864,3846,18,53,-24,7
1783057,-3712,-7861,3967,17,55,-25,7
1783062,-3478,-7854,4100,16,55,-26,7
1783067,-3273,-7845,4264,14,53,-27,7
1783072,-3097,-7838,4459,13,51,-27,7
1783077,-2948,-7828,4677,12,48,-28,7
1783082,-2818,-7816,4904,12,45,-28,7
1783087,-2685,-7804,5112,11,42,-28,7
1783092,-2532,-7798,5271,10,39,-29,7
1783097,-2349,-7794,5386,10,36,-29,7
1783102,-2155,-7792,5458,9,33,-30,7
1783107,-1957,-7791,5503,7,31,-30,7
1783112,-1749,-7791,5554,6,29,-31,7
1783117,-1557,-7789,5616,5,28,-32,7
1783122,-1394,-7785,5701,4,28,-32,7
1783127,-1263,-7780,5820,2,29,-33,7
1783132,-1161,-7776,5933,1,29,-33,7
1783137,-1070,-7771,6029,0,28,-33,7
1783142,-974,-7764,6092,-1,27,-33,7
1783147,-864,-7761,6126,-2,26,-33,7
1783152,-732,-7758,6117,-3,25,-33,7
1783157,-579,-7755,6082,-4,24,-34,7
1783162,-408,-7752,6044,-6,23,-34,7
1783167,-222,-7749,6014,-7,21,-34,7
1783172,-30,-7742,5996,-8,19,-34,7
1783177,162,-7735,5992,-10,18,-34,7
1783182,344,-7726,5984,-11,16,-34,7
1783187,512,-7719,5968,-12,15,-34,7
1783192,656,-7715,5962,-13,14,-34,7
1783197,782,-7712,5941,-14,14,-33,7
1783202,884,-7703,5915,-15,15,-33,7
1783207,971,-7693,5894,-17,17,-33,7
1783212,1059,-7684,5868,-18,20,-33,7
1783217,1144,-7676,5819,-19,22,-32,7
1783222,1228,-7669,5745,-20,24,-32,7
1783227,1280,-7653,5610,-21,26,-31,7
1783232,1364,-7639,5451,-21,26,-31,7
1783237,1508,-7629,5324,-22,27,-31,7
1783242,1651,-7617,5141,-23,29,-31,7
1783247,1901,-7615,5036,-24,30,-31,7
1783252,2201,-7614,4970,-25,35,-30,7
1783257,2434,-7602,4853,-26,38,-29,7
1783262,2666,-7594,4837,-27,38,-29,7
1783267,2879,-7586,4816,-28,35,-29,7
1783272,3096,-7576,4762,-28,30,-29,7
1783277,3364,-7575,4716,-29,27,-27,7
1783282,3567,-7569,4667,-30,25,-25,7
1783287,3753,-7563,4623,-31,18,-25,7
1783292,3943,-7559,4575,-32,12,-24,7
1783297,4102,-7556,4519,-32,8,-23,7
1783302,4222,-7553,4470,-33,3,-23,7
1783307,4285,-7546,4408,-34,-2,-22,7
1783312,4315,-7543,4320,-35,-7,-21,7
1783317,4310,-7541,4225,-35,-9,-20,7
1783322,4277,-7539,4107,-36,-11,-19,7
1783327,4259,-7535,3979,-37,-12,-18,7
1783332,4251,-7530,3821,-37,-10,-17,7
1783337,4243,-7524,3657,-38,-6,-16,7
1783342,4271,-7519,3486,-39,-3,-15,7
1783347,4310,-7509,3312,-39,2,-14,7
1783352,4337,-7500,3148,-40,6,-13,7
1783357,4377,-7486,3000,-40,8,-12,7
1783362,4448,-7477,2841,-41,8,-12,7
1783367,4556,-7464,2649,-41,5,-11,7
1783372,4706,-7456,2457,-41,2,-9,7
1783377,4865,-7457,2293,-41,-4,-7,7
1783382,5037,-7448,2142,-40,-12,-6,7
1783387,5214,-7443,2004,-40,-22,-5,7
1783392,5370,-7433,1838,-40,-33,-4,7
1783397,5532,-7414,1576,-39,-45,-3,7
1783402,5636,-7399,1343,-37,-55,-1,7
1783407,5656,-7420,1249,-36,-65,0,7
1783412,5615,-7415,1036,-37,-79,1,7
1783417,5580,-7410,493,-37,-89,3,7
1783422,5509,-7413,-9,-37,-92,5,7
1783427,5352,-7431,-515,-36,-98,6,7
1783432,5175,-7453,-989,-36,-105,7,7
1783437,4992,-7483,-1377,-35,-106,9,7
1783442,4799,-7507,-1882,-36,-101,10,7
1783447,4609,-7522,-2161,-36,-92,11,7
1783452,4471,-7539,-2403,-35,-88,12,7
1783457,4328,-7549,-2573,-33,-81,14,7
1783462,4218,-7559,-2676,-32,-74,15,7
1783467,4166,-7574,-2886,-30,-69,16,7
1783472,4133,-7590,-3062,-29,-65,17,7
1783477,4128,-7610,-3295,-28,-65,18,7
1783482,4108,-7628,-3496,-27,-65,19,7
1783487,4078,-7642,-3643,-26,-66,20,7
1783492,4033,-7653,-3781,-25,-64,21,7
1783497,3972,-7663,-3856,-23,-61,22,7
1783502,3917,-7670,-3960,-22,-58,22,7
1783507,3857,-7681,-4065,-20,-53,23,7
1783512,3802,-7695,-4199,-19,-50,24,7
1783517,3758,-7708,-4367,-18,-48,25,7
1783522,3706,-7716,-4498,-16,-47,26,7
1783527,3654,-7727,-4625,-15,-47,27,7
1783532,3587,-7734,-4695,-14,-46,27,7
1783537,3508,-7740,-4734,-13,-43,28,7
1783542,3421,-7741,-4760,-11,-41,29,7
1783547,3334,-7741,-4766,-10,-39,29,7
1783552,3244,-7746,-4811,-8,-38,30,7
1783557,3154,-7750,-4860,-7,-37,30,7
1783562,3010,-7746,-4961,-5,-36,31,7
1783567,2799,-7748,-5108,-3,-37,31,7
1783572,2602,-7752,-5214,-2,-38,31,7
1783577,2398,-7759,-5349,-1,-38,31,7
1783582,2157,-7763,-5450,0,-36,31,7
1783587,1927,-7762,-5528,2,-34,31,7
1783592,1726,-7762,-5615,4,-30,31,7
1783597,1539,-7757,-5680,5,-24,32,7
1783602,1343,-7758,-5774,7,-19,32,7
1783607,1164,-7760,-5874,9,-15,32,7
1783612,1006,-7758,-5959,10,-11,31,7
1783617,836,-7757,-6006,11,-6,31,7
1783622,676,-7756,-5995,12,-1,31,7
1783627,537,-7753,-5949,13,5,30,7
1783632,434,-7743,-5867,15,14,30,7
1783637,413,-7733,-5772,16,24,30,7
1783642,454,-7721,-5690,17,36,32,7
1783647,182,-7713,-5605,19,45,33,7
1783652,-87,-7703,-5527,20,42,30,7
1783657,-159,-7705,-5492,21,40,29,7
1783662,-387,-7709,-5454,21,44,29,7
1783667,-616,-7700,-5323,22,40,30,7
1783672,-754,-7690,-5165,23,37,31,7
1783677,-812,-7677,-4957,24,38,31,7
1783682,-828,-7661,-4710,25,40,31,7
1783687,-829,-7646,-4509,27,38,30,7
1783692,-787,-7632,-4355,28,34,29,7
1783697,-874,-7624,-4285,29,31,28,7
1783702,-1065,-7620,-4246,29,24,27,7
1783707,-1298,-7615,-4245,30,16,26,7
1783712,-1664,-7614,-4261,30,12,25,7
1783717,-2121,-7617,-4205,31,11,24,7
1783722,-2626,-7621,-4102,31,16,23,7
1783727,-3186,-7622,-3937,32,25,22,7
1783732,-3705,-7626,-3709,32,35,21,7
1783737,-4154,-7630,-3453,33,47,20,7
1783742,-4542,-7641,-3153,33,57,19,7
1783747,-4824,-7652,-2801,34,65,19,7
1783752,-5009,-7663,-2449,34,72,17,7
1783757,-5114,-7674,-2110,34,77,16,7
1783762,-5127,-7685,-1766,34,79,15,7
1783767,-5094,-7695,-1449,34,80,14,7
1783772,-5041,-7709,-1146,34,78,12,7
1783777,-4979,-7725,-825,33,77,11,7
1783782,-4947,-7743,-488,32,76,10,7
1783787,-4926,-7758,-125,32,76,9,7
1783792,-4894,-7769,212,31,75,8,7
1783797,-4862,-7779,494,31,73,7,7
1783802,-4804,-7792,729,31,68,6,7
1783807,-4730,-7811,965,30,64,5,7
1783812,-4668,-7832,1210,30,59,4,7
1783817,-4608,-7854,1453,29,53,3,7
1783822,-4593,-7882,1754,27,48,1,7
1783827,-4642,-7907,2116,25,45,-1,7
1783832,-4729,-7922,2442,24,43,-2,7
1783837,-4846,-7935,2752,24,43,-3,7
1783842,-4939,-7952,3036,24,41,-4,7
1783847,-4965,-7972,3213,24,39,-4,7
1783852,-4909,-7992,3288,23,37,-5,7
1783857,-4767,-8014,3277,22,34,-6,7
1783862,-4582,-8036,3234,21,30,-8,7
1783867,-4404,-8055,3200,19,24,-9,7
1783872,-4292,-8069,3195,18,20,-11,7
1783877,-4259,-8078,3239,17,19,-12,7
1783882,-4291,-8088,3322,16,19,-14,7
1783887,-4380,-8096,3442,15,20,-15,7
1783892,-4470,-8105,3575,14,21,-15,7
1783897,-4527,-8108,3715,13,21,-16,7
1783902,-4524,-8111,3814,12,22,-17,7
1783907,-4439,-8117,3944,12,22,-18,7
1783912,-4299,-8124,4173,10,20,-19,7
1783917,-4121,-8123,4329,8,17,-20,7
1783922,-3968,-8116,4523,7,13,-22,7
1783927,-3835,-8110,4736,5,7,-23,7
1783932,-3735,-8103,4912,4,1,-24,7
1783937,-3682,-8097,5051,4,-5,-25,7
1783942,-3626,-8091,5108,3,-10,-26,7
1783947,-3557,-8085,5095,2,-15,-27,7
1783952,-3471,-8077,5021,1,-20,-27,7
1783957,-3360,-8067,4888,-1,-25,-28,7
1783962,-3241,-8056,4715,-2,-26,-29,7
1783967,-3103,-8042,4496,-3,-24,-30,7
1783972,-2943,-8026,4261,-4,-19,-30,7
1783977,-2763,-8008,4006,-5,-13,-31,7
1783982,-2565,-7992,3729,-5,-8,-32,7
1783987,-2349,-7975,3453,-6,-4,-32,7
1783992,-2105,-7960,3191,-7,-1,-32,7
1783997,-1850,-7948,2953,-7,1,-32,7
1784002,-1571,-7937,2743,-8,4,-32,7
1784007,-1263,-7921,2557,-8,7,-32,7
1784012,-935,-7910,2397,-9,10,-32,7
1784017,-585,-7899,2274,-9,12,-32,7
1784022,-207,-7891,2165,-9,13,-32,7
1784027,177,-7884,2068,-9,12,-31,7
1784032,565,-7878,1986,-10,9,-30,7
1784037,945,-7880,1914,-10,5,-30,7
1784042,1298,-7886,1824,-11,2,-29,7
1784047,1625,-7890,1723,-11,-3,-27,7
1784052,1922,-7894,1627,-11,-8,-26,7
1784057,2195,-7906,1526,-12,-14,-25,7
1784062,2445,-7914,1404,-12,-20,-23,7
1784067,2656,-7924,1251,-11,-25,-22,7
1784072,2983,-7925,1109,-11,-31,-21,7
1784077,3385,-7924,953,-10,-33,-20,7
1784082,3778,-7924,764,-9,-31,-20,7
1784087,4126,-7925,501,-8,-31,-20,7
1784092,4411,-7931,191,-6,-32,-19,7
1784097,4591,-7940,-92,-4,-32,-17,7
1784102,4663,-7988,-260,-2,-34,-16,7
1784107,4651,-8016,-558,-3,-35,-15,7
1784112,4621,-8044,-983,-4,-34,-14,7
1784117,4623,-8088,-1401,-4,-33,-13,7
1784122,4593,-8124,-1811,-5,-36,-11,7
1784127,4540,-8145,-2173,-5,-38,-9,7
1784132,4496,-8164,-2298,-5,-35,-8,7
1784137,4419,-8166,-2322,-4,-27,-8,7
1784142,4318,-8165,-2261,-4,-16,-7,7
1784147,4204,-8165,-2135,-2,-5,-7,7
1784152,4061,-8173,-2062,-1,1,-6,7
1784157,3884,-8188,-1991,0,2,-5,7
1784162,3679,-8202,-1933,0,1,-4,7
1784167,3471,-8216,-1877,0,-1,-4,7
1784172,3291,-8228,-1763,0,-1,-3,7
1784177,3148,-8231,-1624,0,1,-2,7
1784182,3043,-8232,-1461,1,3,-2,7
1784187,2960,-8228,-1302,2,6,-1,7
1784192,2883,-8229,-1168,2,8,-1,7
1784197,2807,-8233,-1044,2,9,-1,7
1784202,2710,-8240,-930,2,9,-1,7
1784207,2585,-8247,-823,2,8,0,7
1784212,2450,-8253,-696,2,8,0,7
1784217,2311,-8256,-544,2,8,0,7
1784222,2183,-8259,-382,2,8,1,7
1784227,2076,-8259,-214,2,8,1,7
1784232,1987,-8259,-52,2,7,1,7
1784237,1917,-8258,92,2,5,1,7
1784242,1852,-8258,211,2,4,1,7
1784247,1776,-8261,295,2,2,1,7
1784252,1699,-8267,351,2,0,1,7
1784257,1609,-8270,397,2,0,1,7
1784262,1501,-8274,420,2,-1,1,7
1784267,1392,-8277,440,2,-2,1,7
1784272,1279,-8279,471,2,-2,1,7
1784277,1164,-8281,501,1,-2,1,7
1784282,1067,-8283,542,1,-1,1,7
1784287,982,-8286,579,1,0,1,7
1784292,912,-8285,614,1,0,1,7
1784297,857,-8285,654,1,0,1,7
1784302,807,-8286,691,1,0,1,7
1784307,767,-8287,717,1,0,1,7
1784312,730,-8289,748,1,-1,1,7
1784317,696,-8288,775,0,-1,0,7
1784322,667,-8285,787,0,-2,0,7
1784327,648,-8286,790,0,-2,0,7
1784332,628,-8285,775,0,-3,0,7
1784337,607,-8285,751,0,-4,0,7
1784342,587,-8284,720,0,-4,0,7
1784347,568,-8287,685,0,-4,0,7
1784352,555,-8289,653,0,-5,0,7
1784357,548,-8290,631,0,-5,0,7
1784363,541,-8290,613,0,-4,0,7
1784367,540,-8292,606,0,-3,-1,7
1784372,553,-8292,609,-1,-2,-1,7
1784377,569,-8295,622,-1,-1,-1,7
1784382,597,-8295,646,-1,-1,-1,7
1784387,629,-8293,678,-1,-1,-1,7
1784392,669,-8289,709,-1,-2,-1,7
1784397,710,-8287,733,-1,-3,-1,7
1784402,746,-8287,751,-1,-5,-1,7
1784407,773,-8286,751,-1,-7,-1,7
1784413,791,-8284,739,-1,-8,-1,7
1784417,802,-8285,715,-1,-10,-1,7
1784422,809,-8286,681,-1,-11,-1,7
1784427,814,-8285,640,-1,-11,-1,7
1784432,817,-8284,594,-1,-11,-1,7
1784437,819,-8284,551,-1,-11,-1,7
1784442,823,-8286,515,-2,-11,-1,7
1784447,828,-8288,479,-2,-11,-1,7
1784452,828,-8289,446,-2,-11,-1,7
1784458,829,-8291,414,-2,-10,-1,7
1784463,827,-8291,383,-2,-10,-1,7
1784467,821,-8293,357,-2,-10,-1,7
1784472,819,-8290,328,-2,-9,-1,7
1784477,817,-8290,305,-2,-9,-1,7
1784482,805,-8289,284,-2,-8,-1,7
1784488,792,-8288,257,-1,-8,-1,7
1784492,770,-8290,231,-1,-7,-2,7
1784498,746,-8292,202,-1,-6,-1,7
1784503,726,-8293,175,-1,-5,-1,7
1784507,719,-8293,151,-1,-4,-1,7
1784512,721,-8295,128,-1,-4,-1,7
1784518,742,-8296,108,-1,-4,-1,7
1784523,780,-8293,89,-1,-4,-1,0
1784528,831,-8291,76,-1,-5,-1,0
1784533,886,-8289,63,-1,-5,-1,0
1784538,931,-8289,61,-1,-5,-1,0
1784543,966,-8288,58,-1,-5,-1,0
1784547,989,-8287,57,-1,-6,-1,0
1784553,993,-8289,57,0,-6,-1,0
1784558,988,-8290,54,0,-8,-1,0
1784563,978,-8292,51,0,-9,-1,0
1784568,965,-8293,54,0,-10,-1,0
1784573,955,-8292,49,0,-10,-1,0
1784577,953,-8289,41,0,-9,-1,0
1784582,954,-8291,28,0,-8,-1,0
1784588,961,-8292,17,0,-7,-1,0
1784593,957,-8290,6,0,-7,-1,0
1784598,948,-8290,-6,0,-7,-1,0
1784603,934,-8292,-16,0,-6,-1,0
1784607,919,-8293,-9,0,-5,-1,0
1784613,909,-8293,0,0,-3,-1,0
1784618,906,-8291,16,1,-2,-1,0
1784623,905,-8288,31,1,-1,-1,0
1784628,912,-8286,50,1,-1,-1,0
1784633,931,-8286,68,1,0,-1,0
1784638,954,-8285,95,1,0,-1,0
1784643,979,-8283,121,1,0,-1,0
1784648,1003,-8284,151,1,0,-1,0
1784653,1020,-8284,189,1,0,-1,0
1784658,1036,-8285,224,1,0,-1,0
1784663,1044,-8282,255,1,0,-1,0
1784668,1049,-8279,288,1,0,-1,0
1784673,1055,-8277,319,1,-1,-1,0
1784678,1059,-8275,343,1,-1,-1,0
1784683,1063,-8277,352,1,-1,0,0
1784688,1068,-8279,356,1,-1,0,0
1784693,1074,-8277,351,1,-1,0,0
1784698,1077,-8275,349,1,-2,0,0
1784703,1077,-8278,351,1,-2,0,0
1784708,1074,-8281,353,1,-1,0,0
1784713,1063,-8281,358,0,-1,0,0
1784718,1046,-8281,371,0,-1,0,0
1784723,1028,-8280,386,0,-1,0,0
1784728,1012,-8282,398,0,-1,0,0
1784733,1004,-8282,409,0,-1,0,0
1784738,1000,-8282,416,0,-2,0,0
1784743,991,-8283,408,0,-2,0,0
1784748,973,-8285,408,0,-2,0,0
1784753,952,-8285,400,0,-2,0,0
1784758,926,-8289,394,0,-1,0,0
1784763,897,-8292,386,0,-1,0,0
1784768,870,-8291,385,0,-1,0,0
1784773,853,-8292,393,0,-1,0,0
1784778,845,-8290,403,0,-1,0,0
1784783,848,-8290,408,0,-1,0,0
1784788,854,-8288,406,0,-1,0,0
1784793,864,-8290,406,0,-1,0,0
1784798,869,-8289,403,0,-1,0,0
1784803,866,-8286,396,0,-1,-1,0
1784808,857,-8285,388,0,-2,-1,0
1784813,838,-8285,393,0,-2,-1,0
1784818,815,-8286,394,0,-2,-1,0
1784823,797,-8288,400,0,-2,-1,0
1784828,780,-8290,400,0,-3,-1,0
1784833,768,-8290,403,0,-3,-1,0
1784838,761,-8290,407,0,-2,-1,0
1784843,764,-8291,405,0,-2,-1,0
1784848,772,-8289,405,0,-2,-1,0
1784853,782,-8289,403,0,-2,-1,0
1784858,792,-8289,408,0,-3,-1,0
1784863,800,-8288,413,0,-3,-1,0
1784868,809,-8288,409,0,-3,-1,0
1784873,816,-8289,403,0,-4,-1,0
1784878,825,-8290,393,0,-4,-1,0
1784883,837,-8289,383,0,-5,-1,0
1784888,850,-8293,370,0,-5,-1,0
1784893,859,-8292,359,0,-4,-1,0
1784898,868,-8290,355,0,-4,-1,0
1784903,873,-8290,357,0,-3,-1,0
1784908,871,-8285,364,0,-2,-1,0
1784913,863,-8284,370,0,-2,-1,0
1784918,854,-8286,380,0,-1,-1,0
1784923,852,-8285,390,0,-1,-1,0
1784928,853,-8286,396,0,-1,-1,0
1784933,857,-8285,398,0,-1,-1,0
1784938,867,-8288,400,0,-1,-1,0
1784943,879,-8288,405,0,-1,-1,0
1784948,889,-8290,414,0,-1,-1,0
1784953,899,-8291,421,0,-1,-1,0
1784958,906,-8293,431,0,-1,-1,0
1784963,912,-8294,438,0,-1,-1,0
1784968,921,-8294,445,0,-1,-1,0
1784973,928,-8291,441,0,-1,-1,0
1784978,936,-8291,440,0,-1,-1,0
1784983,950,-8291,441,0,-1,-1,0
1784988,967,-8290,441,0,-2,-1,0
1784993,984,-8289,446,0,-2,-1,0
1784998,1004,-8289,445,0,-3,-1,0
1785003,1017,-8285,442,0,-3,-1,0
1785008,1030,-8285,431,0,-4,-1,0
1785013,1034,-8282,424,0,-5,-1,0
1785018,1031,-8281,416,0,-5,-1,0
1785023,1022,-8280,412,0,-6,-1,0
1785028,1008,-8282,413,-1,-6,-1,0
1785033,995,-8285,408,-1,-6,-1,0
1785038,979,-8288,406,0,-5,-1,0
1785043,963,-8291,398,0,-4,-1,0
1785048,951,-8292,385,-1,-3,-1,0
1785053,942,-8292,377,-1,-2,-1,0
1785058,941,-8290,372,-1,-2,-1,0
1785063,944,-8287,366,-1,-2,-1,0
1785068,950,-8287,363,-1,-2,-1,0
1785073,961,-8287,362,-1,-2,-1,0
1785078,975,-8290,364,-1,-2,-1,0
1785083,982,-8290,371,-1,-2,-1,0
1785088,989,-8291,378,-1,-2,-1,0
1785093,992,-8289,384,-1,-2,-1,0
1785098,989,-8288,389,-1,-2,-1,0
1785103,992,-8286,393,-1,-3,-1,0
1785108,992,-8285,399,-1,-3,-1,0
1785113,994,-8284,405,-1,-3,-1,0
1785118,1000,-8284,411,-1,-4,-1,0
1785123,1012,-8285,412,-1,-4,-1,0
1785128,1023,-8284,412,-1,-5,-1,0
1785133,1037,-8284,407,-1,-5,-1,0
1785138,1050,-8284,398,-1,-6,-1,0
1785143,1057,-8284,385,-1,-7,-1,0
1785148,1057,-8285,374,-1,-7,-1,0
1785153,1049,-8282,367,-1,-7,-1,0
1785158,1035,-8283,361,-1,-7,-1,0
1785163,1015,-8285,363,-1,-7,-1,0
1785168,994,-8287,368,-1,-6,-1,0
1785173,975,-8286,371,-1,-5,0,0
1785178,962,-8286,371,-1,-4,0,0
1785183,954,-8285,375,-1,-3,0,0
1785188,955,-8285,382,-1,-3,-1,0
1785193,957,-8286,390,-1,-3,0,0
1785198,962,-8289,400,-1,-3,0,0
1785203,964,-8288,410,-1,-2,0,0
1785208,969,-8290,418,-1,-2,0,0
1785213,970,-8291,423,-1,-2,0,0
1785218,971,-8291,426,-1,-2,0,0
1785223,974,-8293,425,-1,-3,0,0
1785228,978,-8292,430,-1,-3,0,0
1785233,982,-8292,429,-1,-3,0,0
1785238,987,-8291,430,-1,-4,0,0
1785243,994,-8290,423,-1,-4,0,0
1785248,1001,-8293,409,-1,-4,0,0
1785253,1006,-8292,401,-1,-4,0,0
1785258,1011,-8291,388,-1,-4,0,0
1785263,1006,-8288,379,-1,-4,0,0
1785268,1001,-8288,369,-1,-4,0,0
1785273,996,-8286,365,-1,-4,0,0
1785278,986,-8289,358,-1,-4,0,0
1785283,983,-8291,350,-1,-4,0,0
1785288,981,-8289,341,-1,-4,0,0
1785293,979,-8289,334,-1,-4,0,0
1785298,974,-8290,326,-1,-4,0,0
1785303,973,-8290,324,-1,-4,0,0
1785308,969,-8291,327,-1,-4,0,0
1785313,960,-8292,332,-1,-4,0,0
1785318,949,-8291,342,-1,-4,0,0
1785323,939,-8289,351,-1,-4,0,0
1785328,928,-8288,354,-1,-4,0,0
1785333,920,-8288,354,-1,-4,0,0
1785338,916,-8290,353,-1,-3,0,0
1785343,920,-8292,341,-1,-4,0,0
1785348,930,-8293,331,-1,-4,0,0
1785353,942,-8293,318,-1,-4,0,0
1785358,956,-8292,301,-1,-4,0,0
1785363,967,-8290,295,-1,-4,0,0
1785368,977,-8290,282,-1,-4,0,0
1785373,981,-8292,275,-1,-4,0,0
1785378,981,-8292,267,-1,-4,0,0
1785383,977,-8290,266,-1,-5,0,0
1785388,967,-8288,262,-1,-5,0,0
1785393,954,-8289,264,-1,-5,0,0
1785398,941,-8287,271,-1,-4,0,0
1785403,927,-8287,276,-1,-4,0,0
1785408,918,-8289,287,-1,-4,0,0
1785413,913,-8287,294,-1,-4,0,0
1785418,918,-8283,300,-1,-4,0,0
1785423,924,-8283,303,-1,-5,0,0
1785428,927,-8284,311,-1,-5,0,0
1785433,933,-8284,310,-1,-5,0,0
1785438,935,-8283,300,-1,-5,0,0
1785443,935,-8284,293,-1,-5,0,0
1785448,933,-8287,281,-1,-5,0,0
1785453,928,-8290,263,-1,-5,0,0
1785458,921,-8291,248,-1,-5,0,0
1785463,919,-8293,241,-1,-4,0,0
1785468,923,-8290,231,-1,-4,0,0
1785473,930,-8290,228,-1,-4,0,0
1785478,936,-8289,230,-1,-4,0,0
1785483,939,-8288,234,-1,-3,0,0
1785488,944,-8290,241,-1,-3,0,0
1785493,941,-8289,250,-1,-3,0,0
1785498,936,-8289,260,-1,-3,0,0
1785503,930,-8290,270,-1,-3,0,0
1785508,927,-8290,276,-1,-3,0,0
1785513,927,-8290,281,-1,-4,0,0
1785518,930,-8288,281,-1,-4,0,0
1785523,930,-8288,289,-1,-5,0,0
1785528,933,-8288,289,-1,-5,0,0
1785533,935,-8286,289,-1,-6,0,0
1785538,928,-8287,287,-1,-6,0,0
1785543,921,-8288,279,-1,-5,0,0
1785548,911,-8291,271,-1,-5,0,0
1785553,902,-8294,262,-1,-5,0,0
1785558,886,-8294,254,-1,-5,0,0
1785563,871,-8294,250,-1,-4,0,0
1785568,866,-8295,247,-1,-3,0,0
1785573,865,-8293,238,-1,-2,0,0
1785578,866,-8291,234,-1,-2,0,0
1785583,874,-8291,233,-1,-1,0,0
1785588,884,-8288,235,0,-1,0,0
1785593,892,-8286,237,0,-1,0,0
1785598,904,-8284,239,0,-1,0,0
1785603,914,-8285,241,0,-1,-1,0
1785608,918,-8285,247,0,-1,0,0
1785613,922,-8285,257,0,-1,0,0
1785618,924,-8287,262,0,-1,0,0
1785623,926,-8288,266,0,-1,0,0
1785628,931,-8290,269,0,-1,0,0
1785633,934,-8289,267,0,-1,0,0
1785638,934,-8286,263,0,-2,0,0
1785643,931,-8285,257,0,-2,0,0
1785648,922,-8286,251,0,-2,-1,0
1785653,911,-8286,247,0,-2,-1,0
1785658,898,-8287,239,0,-2,-1,0
1785663,881,-8290,234,0,-1,-1,0
1785668,866,-8293,230,0,-1,-1,0
1785673,854,-8294,228,0,0,-1,0
1785678,851,-8294,227,0,0,-1,0
1785683,851,-8293,225,0,0,-1,0
1785688,856,-8288,226,0,0,-1,0
1785693,864,-8286,227,0,0,-1,0
1785698,875,-8286,230,0,0,-1,0
1785703,887,-8286,234,0,0,-1,0
1785708,898,-8287,242,0,0,-1,0
1785713,905,-8286,249,0,-1,-1,0
1785718,910,-8286,258,0,-1,-1,0
1785723,909,-8288,265,0,-1,-1,0
1785728,908,-8291,268,0,-1,-1,0
1785733,904,-8293,270,0,-1,-1,0
1785738,900,-8291,270,0,-1,-1,0
1785743,895,-8288,271,0,-1,-1,0
1785748,892,-8286,263,0,-1,-1,0
1785753,892,-8288,261,0,-1,-1,0
1785758,892,-8291,260,0,0,-1,0
1785763,893,-8292,257,0,0,-1,0
1785768,890,-8291,258,0,0,-1,0
1785773,889,-8290,261,0,0,-1,0
1785778,892,-8289,265,0,0,-1,0
1785783,898,-8288,272,0,1,-1,0
1785788,905,-8286,280,0,1,-1,0
1785793,913,-8284,293,0,1,-1,0
1785798,922,-8286,303,0,0,-1,0
1785803,932,-8286,307,0,0,-1,0
1785808,939,-8285,310,0,0,-1,0
1785813,943,-8284,307,0,0,-1,0
1785818,944,-8283,304,0,0,-1,0
1785823,942,-8282,303,0,0,-1,0
1785828,937,-8283,303,0,0,-1,0
1785833,935,-8284,300,0,0,-1,0
1785838,932,-8282,294,0,0,-1,0
1785843,934,-8280,295,0,0,-1,0
1785848,936,-8282,293,0,0,-1,0
1785853,939,-8284,293,0,0,-1,0
1785858,940,-8286,292,0,0,-1,0
1785863,940,-8290,288,0,0,-1,0
1785868,938,-8291,285,0,0,-1,0
1785873,935,-8289,289,0,0,-1,0
1785878,933,-8289,296,0,0,-1,0
1785883,934,-8287,301,0,0,-1,0
1785888,936,-8287,312,0,0,-1,0
1785893,940,-8287,317,0,0,-1,0
1785898,942,-8288,319,0,0,-1,0
1785903,941,-8287,323,0,0,-1,0
1785908,935,-8287,330,0,0,-1,0
1785913,929,-8288,345,0,0,-1,0
1785918,923,-8289,356,0,0,-1,0
1785923,918,-8291,367,0,0,-1,0
1785928,914,-8295,372,0,0,-1,0
1785933,913,-8293,370,0,0,-1,0
1785938,913,-8290,369,0,0,-1,0
1785943,918,-8288,371,0,0,-1,0
1785948,924,-8287,374,0,0,-1,0
1785953,930,-8286,380,0,0,-1,0
1785958,935,-8285,386,0,0,-1,0
1785963,941,-8284,393,0,0,-1,0
1785968,947,-8284,400,0,0,-1,0
1785973,957,-8281,404,0,0,-1,0
1785978,968,-8280,405,0,0,-1,0
1785983,977,-8280,403,0,-1,-1,0
1785988,987,-8281,403,0,-1,-1,0
1785993,996,-8280,405,0,-1,-1,0
1785998,998,-8278,406,0,-1,-1,0
1786003,997,-8279,410,0,-1,-1,0
1786008,990,-8278,414,0,-1,-1,0
1786013,980,-8280,415,0,-1,-1,0
1786018,970,-8281,419,0,-1,-1,0
1786023,964,-8281,417,0,-1,-1,0
1786028,960,-8284,415,0,-1,-1,0
1786033,963,-8287,414,0,0,-1,0
1786038,966,-8288,411,0,0,-1,0
1786043,968,-8285,413,0,0,-1,0
1786048,970,-8285,415,-1,-1,-1,0
1786053,971,-8285,418,-1,-1,-1,0
1786058,972,-8285,422,-1,-1,-1,0
1786063,972,-8286,423,-1,-1,-1,0
1786068,969,-8287,417,-1,-1,-1,0
1786073,969,-8289,408,-1,-1,-1,0
1786078,973,-8292,399,-1,-1,-1,0
1786083,978,-8292,390,-1,-1,-1,0
1786088,980,-8293,384,-1,-1,-1,0
1786093,977,-8294,376,-1,-1,-1,0
1786098,971,-8292,376,-1,-1,-1,0
1786103,967,-8293,379,-1,-1,-1,0
1786108,965,-8292,381,-1,-1,-1,0
1786113,963,-8292,388,-1,-1,-1,0
1786118,962,-8293,396,-1,-1,-1,0
1786123,964,-8291,399,-1,-1,-1,0
1786128,970,-8292,401,-1,-1,-1,0
1786133,973,-8295,401,-1,-1,-1,0
1786138,970,-8294,399,-1,-1,-1,0
1786143,969,-8293,399,-1,-1,-1,0
1786148,969,-8293,404,-1,-1,-1,0
1786153,965,-8291,400,-1,-1,-1,0
1786158,960,-8291,393,-1,-1,0,0
1786163,956,-8292,391,-1,-1,-1,0
1786168,952,-8292,380,-1,-1,0,0
1786173,947,-8291,370,-1,-1,-1,0
1786178,947,-8292,360,-1,-1,-1,0
1786183,948,-8290,353,-1,-1,0,0
1786188,949,-8291,348,-1,-1,-1,0
1786193,948,-8286,346,-1,-1,-1,0
1786198,947,-8284,346,-1,-1,0,0
1786204,946,-8286,347,-1,-1,-1,0
1786208,945,-8288,345,-1,-1,-1,0
1786214,940,-8286,348,-1,-1,-1,0
1786218,938,-8286,350,-1,-1,-1,0
1786223,941,-8286,350,-1,-2,-1,0
1786228,946,-8284,345,-1,-2,-1,0
1786234,948,-8284,336,-1,-2,0,0
1786238,947,-8286,329,-1,-2,-1,0
1786243,951,-8287,326,-1,-2,-1,0
1786249,951,-8287,322,-1,-2,-1,0
1786253,952,-8289,322,-1,-2,-1,0
1786258,954,-8289,328,-1,-2,-1,0
1786263,954,-8289,332,-1,-2,-1,0
1786268,955,-8290,337,-1,-2,-1,0
1786273,955,-8289,331,-1,-2,-1,0
1786278,955,-8289,318,-1,-2,-1,0
1786283,951,-8289,310,-1,-2,-1,0
1786289,947,-8287,306,-1,-2,-1,0
1786293,944,-8284,303,-1,-2,-1,0
1786299,937,-8285,304,-1,-2,-1,0
1786304,931,-8285,314,-1,-2,-1,0
1786309,929,-8286,320,-1,-1,0,0
1786314,931,-8284,323,-1,-1,0,0
1786319,935,-8281,320,-1,-2,-1,0
1786324,940,-8280,315,-1,-2,-1,0
1786329,945,-8277,308,-1,-2,-1,0
1786334,947,-8279,304,-1,-2,-1,0
1786339,947,-8280,305,-1,-2,0,0
1786343,946,-8280,306,-1,-2,-1,0
1786349,945,-8281,306,-1,-1,0,0
1786354,946,-8282,302,0,-1,-1,0
1786359,949,-8284,295,0,-1,-1,0
1786364,958,-8283,287,0,-1,0,0
1786369,963,-8282,278,-1,-2,0,0
1786374,967,-8283,276,-1,-2,0,0
1786379,968,-8281,281,-1,-1,-1,0
1786384,968,-8279,291,-1,-1,-1,0
1786389,966,-8279,299,-1,-1,-1,0
1786394,960,-8282,303,0,-1,-1,0
1786399,950,-8282,304,0,-1,-1,0
1786404,940,-8282,306,0,-1,0,0
1786409,932,-8282,305,0,-1,-1,0
1786414,926,-8281,305,0,-1,0,0
1786419,926,-8282,299,0,-1,0,0
1786424,925,-8284,297,0,-1,-1,0
1786429,925,-8286,293,0,-1,0,0
1786434,922,-8289,288,0,-1,-1,0
1786439,920,-8292,279,0,-1,-1,0
1786444,918,-8293,276,0,-1,-1,0
1786449,918,-8293,281,0,-1,-1,0
1786454,917,-8293,284,0,-1,-1,0
1786459,922,-8293,288,0,0,0,0
1786464,930,-8291,292,0,-1,-1,0
1786469,937,-8289,293,0,-1,0,0
1786474,944,-8286,295,0,-1,0,0
1786479,953,-8288,294,0,-1,-1,0
1786484,961,-8291,295,0,-1,-1,0
1786489,967,-8290,289,0,-1,-1,0
1786494,966,-8289,287,0,-1,-1,0
1786499,960,-8287,286,0,-1,-1,0
1786504,951,-8288,291,0,-1,-1,0
1786509,945,-8290,291,0,-1,-1,0
1786514,940,-8289,297,0,-1,0,0
1786519,937,-8289,304,0,0,-1,0
1786524,937,-8287,312,0,0,-1,0
1786529,939,-8285,319,0,-1,-1,0
1786534,941,-8287,326,0,0,0,0
1786539,942,-8288,333,0,0,-1,0
1786544,944,-8288,338,0,0,-1,0
1786549,945,-8286,342,0,0,-1,0
1786554,944,-8286,349,0,0,-1,0
1786559,943,-8288,353,0,0,0,0
1786564,947,-8288,358,0,0,0,0
1786569,952,-8289,365,0,0,0,0
1786574,960,-8288,369,0,0,0,0
1786579,966,-8285,376,0,0,0,0
1786584,971,-8285,378,0,0,0,0
1786589,974,-8286,377,0,0,0,0
1786594,977,-8286,374,0,0,0,0
1786599,974,-8285,370,0,0,0,0
1786604,970,-8286,361,0,0,-1,0
1786609,967,-8285,354,0,0,0,0
1786614,964,-8285,354,-1,0,0,0
1786619,962,-8283,354,-1,-1,0,0
1786624,955,-8283,362,-1,-1,0,0
1786629,950,-8284,369,-1,-1,0,0
1786634,944,-8283,373,0,-1,0,0
1786639,939,-8284,375,0,-1,0,0
1786644,933,-8285,380,-1,-1,0,0
1786649,928,-8286,381,-1,-1,-1,0
1786654,923,-8286,384,-1,-1,-1,0
1786659,916,-8289,384,-1,-1,0,0
1786664,907,-8289,382,-1,-1,-1,0
1786669,902,-8289,377,-1,-1,-1,0
1786674,902,-8290,376,-1,0,0,0
1786679,906,-8292,378,-1,-1,-1,0
1786684,909,-8292,379,-1,-1,-1,0
1786689,911,-8291,376,-1,-1,-1,0
1786694,913,-8289,376,-1,0,-1,0
1786699,914,-8289,380,-1,0,-1,0
1786704,915,-8283,380,-1,-1,-1,0
1786709,920,-8282,379,-1,-1,-1,0
1786714,923,-8285,382,-1,-1,-1,0
1786719,926,-8285,386,-1,-1,-1,0
1786724,929,-8288,388,-1,-1,-1,0
1786729,935,-8290,392,-1,-1,-1,0
1786734,939,-8290,390,-1,-1,-1,0
1786739,939,-8291,388,-1,-1,-1,0
1786744,939,-8292,387,-1,-1,-1,0
1786749,934,-8293,376,-1,-2,-1,0
1786754,935,-8292,367,-1,-2,-1,0
1786759,932,-8290,361,-1,-2,-1,0
1786764,930,-8289,353,-1,-2,-1,0
1786769,926,-8288,349,-1,-2,-1,0
1786774,927,-8288,349,-1,-2,-1,0
1786779,926,-8288,353,-1,-2,-1,0
1786784,929,-8288,354,-1,-1,-1,0
1786789,937,-8289,349,-1,-1,-1,0
1786794,942,-8288,348,-1,-1,-1,0
1786799,949,-8288,348,-1,-1,-1,0
1786804,954,-8290,347,-1,-1,-1,0
1786809,958,-8291,340,-1,-1,-1,0
1786814,959,-8291,326,-1,-1,-1,0
1786819,960,-8287,320,-1,-2,-1,0
1786824,958,-8285,318,-1,-2,-1,0
1786829,957,-8281,310,-1,-2,-1,0
1786834,954,-8283,303,-1,-2,-1,0
1786839,951,-8287,300,-1,-2,-1,0
1786844,947,-8286,304,-1,-2,-1,0
1786849,947,-8286,305,-1,-2,-1,0
1786854,945,-8285,304,-1,-2,-1,0
1786859,944,-8285,299,-1,-2,-1,0
1786864,941,-8283,293,-1,-2,-1,0
1786869,943,-8281,292,-1,-2,-1,0
1786874,942,-8283,288,-1,-2,-1,0
1786879,938,-8282,284,-1,-2,-1,0
1786884,937,-8282,275,-1,-2,-1,0
1786889,940,-8282,272,-1,-2,-1,0
1786894,943,-8281,270,-1,-3,-1,0
1786899,945,-8280,265,-1,-3,-1,0
1786904,943,-8278,260,-1,-3,-1,0
1786909,942,-8279,254,-1,-3,-1,0
1786914,943,-8279,259,-1,-4,-1,0
1786919,944,-8280,263,-1,-4,-1,0
1786924,947,-8281,265,-1,-5,-1,0
1786929,938,-8282,273,-1,-4,-1,0
1786934,930,-8282,277,-1,-4,-1,0
1786939,928,-8285,282,-1,-3,-1,0
1786944,926,-8287,279,-1,-2,-1,0
1786949,924,-8289,273,0,-2,-1,0
1786954,921,-8288,266,0,-2,-1,0
1786959,920,-8285,258,-1,-2,-1,0
1786964,922,-8284,252,-1,-1,-1,0
1786969,928,-8284,248,0,-1,-1,0
1786974,938,-8284,251,0,-1,-1,0
1786979,947,-8281,261,0,0,-1,0
1786984,956,-8285,263,0,0,-1,0
1786989,962,-8286,268,0,0,-1,0
1786994,967,-8285,276,0,0,-1,0
1786999,971,-8284,287,0,0,-1,0
1787004,975,-8286,299,0,-1,-1,0
1787009,976,-8286,303,0,-1,-1,0
1787014,980,-8286,304,0,-1,-1,0
1787019,983,-8288,303,0,-1,-1,0
1787024,986,-8286,302,0,-1,-1,0
1787029,989,-8284,297,0,-1,-1,0
1787034,989,-8284,299,0,-1,-1,0
1787039,987,-8285,297,0,-1,-1,0
1787044,985,-8285,299,0,-1,-1,0
1787049,982,-8282,301,0,-1,-1,0
1787054,976,-8283,299,0,-1,0,0
1787059,973,-8282,295,0,-1,0,0
1787064,967,-8283,289,0,-1,0,0
1787069,963,-8288,287,0,-1,0,0
1787074,959,-8290,287,0,-1,-1,0
1787079,956,-8293,283,0,0,0,0
1787084,957,-8292,280,0,0,-1,0
1787089,956,-8289,280,0,0,0,0
1787094,954,-8287,282,0,0,-1,0
1787099,954,-8286,285,0,0,-1,0
1787104,955,-8283,292,0,0,-1,0
1787109,956,-8282,299,0,0,0,0
1787114,955,-8282,307,0,0,-1,0
1787119,957,-8283,317,0,0,-1,0
1787124,958,-8281,317,0,0,-1,0
1787129,960,-8280,316,0,0,-1,0
1787134,963,-8279,315,0,0,-1,0
1787139,967,-8282,319,0,-1,0,0
1787144,972,-8282,315,0,-1,-1,0
1787149,973,-8280,312,0,-1,-1,0
1787154,972,-8284,309,0,-1,-1,0
1787159,966,-8284,304,0,-1,-1,0
1787164,957,-8282,302,0,-1,-1,0
1787169,949,-8284,304,0,-1,-1,0
1787174,943,-8284,303,0,-1,-1,0
1787179,939,-8281,303,0,-2,-1,0
1787184,935,-8282,309,0,-2,-1,0
1787189,932,-8283,314,0,-2,-1,0
1787194,930,-8287,315,0,-2,-1,0
1787199,928,-8287,314,0,-1,-1,0
1787204,925,-8285,320,0,-1,-1,0
1787209,921,-8287,325,0,-1,-1,0
1787214,918,-8288,327,0,-1,-1,0
1787219,915,-8287,331,0,-1,-1,0
1787224,916,-8288,335,0,0,-1,0
1787229,919,-8288,331,0,0,-1,0
1787234,923,-8286,327,0,0,-1,0
1787239,932,-8285,322,0,0,-1,0
1787244,941,-8284,315,0,0,-1,0
1787249,951,-8284,309,0,0,-1,0
1787254,962,-8283,303,0,0,-1,0
1787259,969,-8282,300,0,0,-1,0
1787264,977,-8286,297,0,0,-1,0
1787269,984,-8287,299,0,0,-1,0
1787274,985,-8288,301,0,-1,-1,0
1787279,987,-8291,303,0,-1,-1,0
1787284,988,-8291,308,0,-1,-1,0
1787289,985,-8292,312,0,-1,-1,0
1787294,983,-8294,316,0,-1,-1,0
1787299,981,-8293,317,0,-1,-1,0
1787304,976,-8292,317,0,-1,-1,0
1787309,969,-8291,313,0,-1,-1,0
1787314,961,-8290,310,0,-1,-1,0
1787319,951,-8290,306,0,-1,-1,0
1787324,942,-8291,294,0,-1,-1,0
1787329,935,-8290,284,0,0,0,0
1787334,928,-8288,276,0,0,-1,0
1787339,928,-8287,273,0,0,-1,0
1787344,932,-8289,279,0,0,-1,0
1787349,937,-8288,288,0,0,-1,0
1787354,942,-8285,299,0,0,-1,0
1787359,946,-8282,311,0,0,-1,0
1787364,948,-8283,325,0,0,-1,0
1787369,954,-8282,335,0,0,-1,0
1787374,952,-8282,336,0,-1,-1,0
1787379,952,-8283,340,0,-1,-1,0
1787384,951,-8280,340,0,-1,-1,0
1787389,952,-8279,337,0,-1,-1,0
1787394,953,-8280,333,0,-1,-1,0
1787399,956,-8282,329,0,-1,-1,0
1787404,957,-8282,327,0,-1,-1,0
1787409,958,-8284,324,0,-1,-1,0
1787414,958,-8285,328,0,0,-1,0
1787419,959,-8286,339,0,0,-1,0
1787424,962,-8286,351,0,0,-1,0
1787429,966,-8285,363,0,0,-1,0
1787434,969,-8284,368,0,0,-1,0
1787439,969,-8282,368,0,0,-1,0
1787444,969,-8280,366,0,0,-1,0
1787449,969,-8280,361,0,0,-1,0
1787454,967,-8281,360,0,0,0,0
1787459,966,-8283,354,0,0,-1,0
1787464,969,-8287,349,0,0,-1,0
1787469,972,-8288,347,0,0,-1,0
1787474,972,-8288,339,0,0,0,0
1787479,972,-8289,335,0,0,0,0
1787484,970,-8288,330,0,-1,-1,0
1787489,964,-8287,325,0,0,-1,0
1787494,957,-8288,328,0,0,-1,0
1787499,950,-8289,336,0,0,-1,0
1787504,942,-8286,349,0,0,-1,0
1787509,939,-8285,356,0,0,-1,0
1787514,938,-8280,366,0,0,-1,0
1787519,939,-8278,374,0,-1,-1,0
1787524,941,-8274,383,0,-1,-1,0
1787529,942,-8277,385,0,-1,-1,0
1787534,939,-8281,381,0,-1,-1,0
1787539,937,-8283,373,0,-1,-1,0
1787544,933,-8284,357,0,-1,-1,0
1787549,926,-8285,347,0,-1,-1,0
1787554,922,-8280,341,0,-1,-1,0
1787559,918,-8278,335,-1,-1,-1,0
1787564,918,-8280,327,-1,-1,-1,0
1787569,923,-8283,334,-1,-1,-1,0
1787574,929,-8285,344,-1,0,-1,0
1787579,934,-8287,352,-1,0,-1,0
1787584,942,-8285,353,0,-1,-1,0
1787589,946,-8282,358,-1,-1,-1,0
1787594,950,-8281,362,-1,-1,-1,0
1787599,951,-8282,367,-1,-1,-1,0
1787604,953,-8284,363,-1,-1,-1,0
1787609,959,-8285,360,-1,-1,-1,0
1787614,963,-8287,358,-1,-1,-1,0
1787619,965,-8288,358,-1,-1,-1,0
1787624,973,-8289,357,-1,-1,-1,0
1787629,981,-8290,358,-1,-1,-1,0
1787634,988,-8289,366,-1,-1,-1,0
1787639,995,-8288,376,-1,-1,-1,0
1787644,998,-8287,377,-1,-1,-1,0
1787649,997,-8284,377,-1,-2,-1,0
1787654,994,-8288,379,-1,-2,0,0
1787659,985,-8288,376,-1,-2,0,0
1787664,978,-8289,365,-1,-2,0,0
1787669,971,-8287,354,-1,-2,-1,0
1787674,965,-8284,349,-1,-2,0,0
1787679,958,-8283,347,-1,-2,0,0
1787684,950,-8282,345,-1,-2,0,0
1787689,949,-8282,340,-1,-1,0,0
1787694,948,-8285,344,-1,-1,-1,0
1787699,949,-8286,348,-1,0,-1,0
1787704,947,-8285,345,-1,0,0,0
1787709,945,-8284,344,-1,0,0,0
1787714,945,-8284,342,-1,0,0,0
1787719,947,-8282,337,-1,0,-1,0
1787724,951,-8282,331,-1,-1,0,0
1787729,955,-8281,319,-1,-1,0,0
1787734,962,-8281,303,-1,-1,0,0
1787739,962,-8281,285,-1,-1,0,0
1787744,960,-8283,272,-1,-1,0,0
1787749,955,-8284,267,-1,-1,-1,0
1787754,952,-8283,264,-1,-1,-1,0
1787759,946,-8284,263,-1,-1,-1,0
1787764,941,-8284,269,-1,-1,0,0
1787769,938,-8284,279,-1,-1,0,0
1787774,936,-8285,294,-1,-1,-1,0
1787779,937,-8285,303,0,-1,0,0
1787784,937,-8284,313,0,-1,-1,0
1787789,936,-8282,316,-1,-1,0,0
1787794,939,-8280,313,0,-1,-1,0
1787799,944,-8280,303,0,-1,-1,0
1787804,946,-8281,292,0,-1,0,0
1787809,950,-8282,285,0,-1,-1,0
1787814,952,-8283,283,0,-1,-1,0
1787819,950,-8283,281,0,-1,-1,0
1787824,947,-8284,282,0,0,-1,0
1787829,944,-8289,290,-1,0,-1,0
1787834,941,-8290,309,0,0,-1,0
1787839,938,-8287,321,0,0,-1,0
1787844,941,-8286,335,0,0,-1,0
1787849,942,-8286,340,0,0,-1,0
1787854,947,-8285,344,0,0,-1,0
1787859,952,-8286,349,-1,0,0,0
1787864,960,-8289,349,-1,0,-1,0
1787869,962,-8289,347,-1,0,-1,0
1787874,964,-8291,349,-1,0,-1,0
1787879,967,-8288,348,-1,-1,-1,0
1787884,971,-8284,343,-1,-1,0,0
1787889,975,-8281,343,-1,-1,0,0
1787894,978,-8279,336,-1,-1,0,0
1787899,981,-8280,331,-1,-1,0,0
1787904,984,-8283,324,-1,-1,0,0
1787909,985,-8287,320,-1,-1,-1,0
1787914,982,-8288,325,-1,-1,-1,0
1787919,973,-8286,322,-1,-1,0,0
1787924,962,-8285,321,0,-1,-1,0
1787929,951,-8286,323,0,-1,0,0
1787934,943,-8287,317,0,-1,0,0
1787939,936,-8287,315,0,-1,0,0
1787944,932,-8287,311,0,-1,0,0
1787949,930,-8287,316,-1,0,0,0
1787954,932,-8288,322,-1,0,0,0
1787959,939,-8287,325,-1,0,0,0
1787964,948,-8283,328,-1,0,0,0
1787969,959,-8282,333,-1,0,0,0
1787974,967,-8283,341,-1,0,0,0
1787979,971,-8284,344,-1,0,-1,0
1787985,976,-8282,345,-1,-1,0,0
1787990,977,-8285,347,-1,-1,0,0
1787994,976,-8284,344,0,-1,0,0
1787999,974,-8283,341,0,-1,0,0
1788004,974,-8285,340,-1,-1,0,0
1788009,976,-8286,339,-1,-1,0,0
1788014,977,-8284,337,-1,-1,0,0
1788019,975,-8282,335,-1,-1,0,0
1788024,969,-8281,341,-1,-1,0,0
1788030,959,-8284,345,-1,-2,0,0
1788034,949,-8286,346,-1,-2,0,0
1788039,941,-8288,354,-1,-2,0,0
1788044,936,-8289,363,-1,-2,0,0
1788049,934,-8289,366,-1,-2,0,0
1788055,927,-8292,374,-1,-2,-1,0
1788060,920,-8293,380,-1,-1,-1,0
1788064,919,-8291,382,-1,-1,0,0
1788070,916,-8291,379,-1,-1,0,0
1788074,913,-8292,373,-1,-1,0,0
1788079,915,-8293,370,-1,0,0,0
1788084,921,-8292,363,-1,0,0,0
1788090,929,-8290,350,-1,-1,0,0
1788094,940,-8290,343,-1,-1,0,0
1788099,956,-8289,337,-1,-1,0,0
1788104,968,-8288,338,-1,-1,-1,0
1788110,974,-8286,340,-1,-1,0,0
1788115,973,-8286,337,-1,-1,0,0
1788119,969,-8287,337,-1,-2,0,0
1788125,964,-8288,338,-1,-2,0,0
1788129,960,-8288,331,-1,-2,0,0
1788135,953,-8286,327,-1,-2,0,0
1788139,948,-8284,314,-1,-2,0,0
1788145,942,-8283,301,-1,-2,0,0
1788149,937,-8286,284,-1,-2,0,0
1788155,933,-8288,277,-1,-2,0,0
1788159,927,-8290,268,-1,-1,-1,0
1788165,919,-8290,262,-1,-1,0,0
1788169,919,-8293,259,-1,-1,0,0
1788175,910,-8293,262,-1,-1,0,0
1788180,898,-8290,266,-1,0,0,0
1788185,910,-8291,267,-1,0,0,0
1788190,916,-8295,267,0,0,-1,0
1788195,920,-8293,265,0,0,-1,0
1788200,927,-8293,270,0,0,-1,0
1788205,935,-8290,272,-1,0,-1,0
1788210,938,-8286,279,-1,-1,0,0
1788215,935,-8286,292,0,-1,-1,0
1788220,939,-8285,299,0,-1,-1,0
1788225,935,-8283,299,0,-1,-1,0
1788230,927,-8283,300,0,-1,-1,0
1788235,927,-8286,307,0,-1,-1,0
1788240,927,-8287,307,0,-2,-1,0
1788245,927,-8287,310,0,-2,0,0
1788250,927,-8286,313,0,-2,-1,0
1788255,925,-8285,313,0,-1,-1,0
1788260,925,-8284,309,0,-1,-1,0
1788265,925,-8285,296,0,-1,-1,0
1788270,918,-8284,289,0,-1,-1,0
1788275,913,-8285,286,0,-1,-1,0
1788280,912,-8284,279,0,-1,-1,0
1788285,910,-8287,280,0,-1,-1,0
1788290,911,-8285,290,0,-1,-1,0
1788295,911,-8283,294,0,-1,-1,0
1788300,914,-8282,294,0,-1,-1,0
1788305,914,-8283,294,0,-1,-1,0
1788310,913,-8283,296,0,-1,-1,0
1788315,915,-8285,303,0,-1,-1,0
1788320,915,-8285,303,0,-1,-1,0
1788325,917,-8286,306,0,0,-1,0
1788330,924,-8285,310,0,0,-1,0
1788335,934,-8288,317,0,0,-1,0
1788340,945,-8288,326,0,0,-1,0
1788345,956,-8287,334,0,0,-1,0
1788350,971,-8286,339,0,0,-1,0
1788355,982,-8285,344,0,0,-1,0
1788360,993,-8283,352,0,0,-1,0
1788365,1005,-8282,359,0,0,-1,0
1788370,1014,-8282,365,0,0,-1,0
1788375,1017,-8281,370,0,0,-1,0
1788380,1016,-8282,370,0,-1,-1,0
1788385,1013,-8284,369,0,-1,-1,0
1788390,1010,-8285,362,0,-1,-1,0
1788395,1004,-8283,351,0,-1,-1,0
1788400,996,-8284,335,0,-1,-1,0
1788405,992,-8283,322,0,-1,-1,0
1788410,987,-8286,310,0,-1,0,0
1788415,983,-8287,299,0,-1,0,0
1788420,976,-8289,295,0,-1,-1,0
1788425,969,-8289,290,0,-1,-1,0
1788430,961,-8289,289,0,-1,-1,0
1788435,957,-8289,294,0,-1,-1,0
1788440,956,-8285,299,0,-1,-1,0
1788445,963,-8284,304,0,-1,0,0
1788450,969,-8285,313,0,-1,-1,0
1788455,973,-8285,316,0,-1,-1,0
1788460,980,-8283,320,0,-1,0,0
1788465,980,-8283,324,0,-1,0,0
1788470,975,-8281,321,0,-1,-1,0
1788475,965,-8283,318,0,-1,-1,0
1788480,955,-8284,320,0,-1,-1,0
1788485,947,-8286,322,0,-1,-1,0
1788490,945,-8284,321,0,0,-1,0
1788495,943,-8282,327,0,0,0,0
1788500,943,-8283,335,0,0,0,0
1788505,950,-8285,350,0,0,0,0
1788510,960,-8283,361,0,0,0,0
1788515,971,-8282,367,0,0,0,0
1788520,981,-8284,367,0,0,-1,0
1788525,989,-8289,366,0,0,0,0
1788530,990,-8294,369,0,0,-1,0
1788535,989,-8293,363,0,-1,0,0
1788540,989,-8294,360,0,-1,0,0
1788545,986,-8295,355,0,-1,0,0
1788550,983,-8295,349,0,-1,0,0
1788555,979,-8294,348,0,-1,0,0
1788560,974,-8294,345,-1,-1,0,0
1788565,965,-8293,341,-1,-1,0,0
1788570,960,-8293,345,0,-1,-1,0
1788575,952,-8293,341,0,-1,0,0
1788580,946,-8292,349,-1,-1,0,0
1788585,939,-8289,361,-1,-1,0,0
1788590,932,-8292,367,-1,-1,-1,0
1788595,928,-8295,365,-1,-1,0,0
1788600,929,-8296,361,-1,-1,0,0
1788605,932,-8297,357,-1,-1,0,0
1788610,936,-8296,357,-1,-1,0,0
1788615,941,-8296,355,-1,-1,-1,0
1788620,947,-8297,355,-1,-1,-1,0
1788625,952,-8296,351,-1,-1,-1,0
1788630,954,-8293,345,-1,-1,-1,0
1788635,955,-8290,340,-1,-1,-1,0
1788640,956,-8289,335,-1,-1,-1,0
1788645,954,-8288,338,-1,-1,-1,0
1788650,951,-8289,339,-1,-2,-1,0
1788655,947,-8289,345,-1,-1,-1,0
1788660,944,-8288,346,-1,-1,0,0
1788665,948,-8287,347,-1,-1,-1,0
1788670,952,-8287,345,-1,-2,-1,0
1788675,951,-8286,342,-1,-2,-1,0
1788680,948,-8289,337,-1,-2,-1,0
1788685,944,-8290,335,-1,-2,-1,0
1788690,937,-8288,338,-1,-2,-1,0
1788695,933,-8290,340,-1,-3,-1,0
1788700,927,-8291,341,-1,-3,-1,0
1788705,921,-8289,337,-1,-3,-1,0
1788710,918,-8288,335,-1,-3,-1,0
1788715,915,-8290,327,0,-3,-1,0
1788720,909,-8288,318,0,-3,-1,0
1788725,903,-8287,300,0,-3,-1,0
1788730,897,-8288,290,0,-3,-1,0
1788735,888,-8289,282,0,-2,-1,0
1788740,874,-8292,276,-1,-2,-1,0
1788745,864,-8292,269,0,-1,-1,0
1788750,861,-8291,265,-1,0,-1,0
1788755,861,-8292,264,0,0,-1,0
1788760,862,-8295,266,0,0,-1,0
1788765,872,-8297,276,0,0,-1,0
1788770,881,-8298,284,0,0,-1,0
1788775,896,-8294,292,0,1,-1,0
1788780,910,-8291,299,0,1,-1,0
1788785,926,-8293,305,0,0,-1,0
1788790,939,-8292,308,0,0,-1,0
1788795,948,-8292,311,0,0,-1,0
1788800,949,-8291,311,0,0,-1,0
1788805,945,-8289,315,0,0,-1,0
1788810,943,-8288,324,-1,0,-1,0
1788815,940,-8289,337,-1,0,-1,0
1788820,939,-8288,356,-1,0,-1,0
1788825,935,-8285,369,-1,-1,-1,0
1788830,933,-8286,383,-1,-1,-1,0
1788835,926,-8282,392,-1,-1,-1,0
1788840,917,-8277,400,-1,-1,-1,0
1788845,910,-8277,411,-1,-1,-1,0
1788850,900,-8279,424,-1,-1,-1,0
1788855,887,-8280,435,-1,-1,-1,0
1788860,871,-8282,444,-1,-2,-1,0
1788865,858,-8282,452,-1,-2,-1,0
1788870,841,-8281,460,-1,-2,-1,0
1788875,821,-8282,467,-1,-2,-1,0
1788880,803,-8284,481,-1,-2,-2,0
1788885,783,-8285,494,-1,-2,-2,0
1788890,767,-8287,504,-1,-2,-2,0
1788895,754,-8288,519,-1,-2,-2,0
1788900,745,-8287,540,-1,-1,-2,0
1788905,743,-8289,563,-2,-1,-2,0
1788910,745,-8290,589,-2,-1,-2,0
1788915,751,-8286,617,-2,0,-2,0
1788920,762,-8287,656,-2,0,-2,0
1788925,775,-8287,702,-2,0,-2,7
1788930,790,-8290,753,-2,0,-2,7
1788935,815,-8287,811,-3,0,-2,7
1788940,841,-8285,869,-3,0,-2,7
1788945,872,-8283,925,-3,-1,-2,7
1788950,903,-8284,977,-3,-1,-2,7
1788955,941,-8286,1033,-4,-2,-2,7
1788960,988,-8286,1084,-4,-2,-2,7
1788965,1048,-8281,1121,-4,-3,-2,7
1788970,1120,-8279,1152,-4,-4,-2,7
1788975,1201,-8277,1163,-4,-5,-1,7
1788980,1292,-8274,1151,-5,-7,-1,7
1788985,1387,-8270,1117,-5,-8,-1,7
1788990,1488,-8265,1067,-5,-10,-1,7
1788995,1590,-8263,1001,-5,-11,0,7
1789000,1688,-8259,919,-5,-12,0,7
1789005,1785,-8256,828,-5,-13,0,7
1789010,1878,-8257,732,-5,-13,1,7
1789015,1969,-8255,646,-5,-13,1,7
1789020,2056,-8254,571,-5,-12,1,7
1789025,2144,-8254,511,-5,-11,2,7
1789030,2235,-8252,465,-5,-10,2,7
1789035,2325,-8248,428,-5,-9,3,7
1789040,2418,-8247,398,-5,-8,4,7
1789045,2511,-8246,372,-5,-8,4,7
1789050,2607,-8241,344,-5,-8,5,7
1789055,2706,-8239,306,-5,-9,6,7
1789060,2809,-8233,252,-5,-10,6,7
1789065,2928,-8226,167,-5,-10,7,7
1789070,3053,-8224,62,-4,-11,8,7
1789075,3202,-8221,-65,-4,-12,9,7
1789080,3365,-8215,-203,-4,-14,10,7
1789085,3535,-8207,-338,-4,-17,11,7
1789090,3703,-8198,-466,-3,-19,12,7
1789095,3863,-8189,-584,-3,-22,13,7
1789100,4011,-8177,-697,-2,-23,14,7
1789105,4145,-8163,-809,-2,-23,15,7
1789110,4260,-8149,-927,-1,-24,16,7
1789115,4353,-8139,-1042,0,-26,17,7
1789120,4403,-8127,-1162,0,-27,18,7
1789125,4408,-8116,-1271,1,-28,19,7
1789130,4367,-8103,-1364,1,-28,20,7
1789135,4289,-8091,-1441,2,-25,21,7
1789140,4195,-8083,-1515,2,-21,22,7
1789145,4098,-8071,-1588,3,-16,24,7
1789150,4010,-8086,-1664,4,-13,25,7
1789155,3902,-8103,-1742,5,-9,26,7
1789160,3760,-8095,-1906,5,-6,27,7
1789165,3688,-8079,-2058,6,-4,28,7
1789170,3670,-8058,-2182,7,-1,29,7
1789175,3653,-8034,-2292,7,0,29,7
1789180,3600,-8010,-2336,8,1,29,7
1789185,3496,-7986,-2383,9,2,30,7
1789190,3313,-7961,-2402,10,3,30,7
1789195,3061,-7940,-2399,10,4,30,7
1789200,2788,-7919,-2407,11,6,31,7
1789205,2518,-7900,-2384,12,10,31,7
1789210,2247,-7884,-2334,12,14,32,7
1789215,2003,-7866,-2280,13,18,32,7
1789220,1750,-7845,-2265,14,22,32,7
1789225,1520,-7829,-2273,15,25,31,7
1789230,1303,-7819,-2273,15,27,30,7
1789235,1103,-7816,-2328,16,27,30,7
1789240,901,-7811,-2412,16,24,29,7
1789245,651,-7808,-2467,16,21,28,7
1789250,294,-7802,-2444,16,14,28,7
1789255,-143,-7793,-2335,16,4,28,7
1789260,-632,-7785,-2125,17,-4,28,7
1789265,-1152,-7780,-1873,18,-9,28,7
1789270,-1648,-7781,-1619,19,-12,27,7
1789275,-2085,-7786,-1404,20,-12,27,7
1789280,-2463,-7795,-1269,21,-9,26,7
1789285,-2796,-7810,-1210,22,-6,25,7
1789290,-3064,-7831,-1234,23,-3,24,7
1789295,-3290,-7848,-1312,23,0,22,7
1789300,-3501,-7865,-1392,23,3,21,7
1789305,-3696,-7882,-1462,23,4,19,7
1789310,-3900,-7895,-1458,23,6,18,7
1789315,-4122,-7905,-1397,23,6,16,7
1789320,-4347,-7909,-1295,24,8,14,7
1789325,-4570,-7916,-1153,24,11,13,7
1789330,-4786,-7924,-990,24,14,11,7
1789335,-4984,-7932,-811,25,17,10,7
1789340,-5166,-7941,-628,25,21,9,7
1789345,-5312,-7955,-442,25,25,7,7
1789350,-5406,-7966,-257,25,29,6,7
1789355,-5463,-7972,-71,25,33,4,7
1789360,-5484,-7981,116,25,36,3,7
1789365,-5476,-7988,286,25,38,1,7
1789370,-5464,-7992,454,25,39,0,7
1789375,-5434,-7996,610,25,39,-2,7
