millis,ax,ay,az,gx,gy,gz,label
12316024,561,-8305,153,-1,0,-1,0
12316029,560,-8304,153,-1,-1,-1,0
12316034,561,-8306,151,-1,-1,-1,0
12316039,561,-8307,144,-1,-1,-1,0
12316044,560,-8309,139,-1,-1,-1,0
12316049,553,-8311,128,0,-1,-1,0
12316054,543,-8312,112,0,-1,-1,0
12316059,532,-8311,95,0,-1,-1,0
12316064,518,-8310,66,0,-1,-1,0
12316069,508,-8313,39,0,-1,-1,0
12316074,497,-8315,11,0,-1,-1,0
12316079,491,-8315,-17,0,-1,-1,0
12316084,486,-8313,-40,0,-1,-1,0
12316089,486,-8313,-61,0,-1,-1,0
12316094,485,-8313,-73,0,0,-1,0
12316099,488,-8314,-78,0,0,-1,0
12316104,491,-8315,-80,0,0,-1,0
12316109,493,-8317,-75,0,-1,-1,0
12316114,498,-8316,-74,0,-1,-1,0
12316119,500,-8317,-67,0,-1,-2,0
12316124,499,-8312,-67,0,-1,-2,0
12316129,499,-8311,-68,0,-1,-2,0
12316134,498,-8311,-72,0,-1,-2,0
12316139,500,-8311,-70,0,-1,-2,0
12316144,504,-8312,-70,0,-1,-2,0
12316149,506,-8315,-68,1,-1,-2,0
12316154,513,-8314,-65,1,-1,-2,0
12316159,516,-8314,-58,1,0,-2,0
12316164,527,-8316,-52,1,0,-2,0
12316169,536,-8316,-50,1,-1,-2,0
12316174,545,-8313,-47,1,-1,-2,0
12316179,551,-8312,-49,1,-1,-2,0
12316184,562,-8313,-52,1,-1,-2,0
12316189,569,-8312,-57,1,-1,-2,0
12316194,578,-8311,-66,1,-1,-2,0
12316199,588,-8311,-81,1,-1,-2,0
12316204,604,-8310,-86,1,-1,-2,0
12316209,620,-8308,-82,1,-1,-2,0
12316214,634,-8306,-79,1,-1,-2,0
12316219,646,-8307,-71,1,-1,-2,0
12316224,660,-8308,-55,1,0,-2,0
12316229,672,-8304,-32,1,0,-2,0
12316234,684,-8301,-12,1,0,-2,0
12316239,697,-8302,11,1,0,-2,0
12316244,709,-8302,36,1,0,-2,0
12316249,723,-8301,56,1,0,-2,0
12316254,733,-8300,76,1,0,-2,0
12316259,742,-8300,95,1,0,-2,0
12316264,750,-8303,115,1,0,-2,0
12316269,760,-8303,129,1,0,-2,0
12316274,768,-8302,141,1,0,-2,0
12316279,777,-8304,149,1,0,-2,0
12316284,785,-8303,158,1,0,-1,0
12316289,789,-8305,168,1,0,-1,0
12316294,791,-8304,176,1,0,-1,0
12316299,790,-8301,184,1,0,-1,0
12316304,784,-8301,192,1,0,-1,0
12316309,777,-8303,203,1,0,-1,0
12316314,765,-8303,218,1,0,-1,0
12316319,750,-8305,232,1,0,-1,0
12316324,729,-8305,238,1,0,-1,0
12316329,707,-8307,237,1,0,-1,0
12316334,686,-8306,230,1,0,-1,0
12316339,668,-8307,227,1,1,-1,0
12316344,656,-8305,220,1,1,-1,0
12316349,651,-8304,211,1,1,-1,0
12316354,648,-8305,207,1,2,-1,0
12316359,648,-8307,205,1,2,-1,0
12316364,648,-8307,211,1,2,-2,0
12316369,649,-8309,214,1,2,-2,0
12316374,648,-8311,214,1,2,-1,0
12316379,647,-8308,215,1,1,-1,0
12316384,645,-8307,222,1,1,-2,0
12316389,639,-8311,232,1,1,-2,0
12316394,632,-8314,241,1,1,-2,0
12316399,623,-8315,249,1,1,-2,0
12316404,618,-8315,252,1,1,-2,0
12316409,613,-8313,261,1,1,-2,0
12316414,609,-8309,267,1,2,-2,0
12316419,608,-8308,273,0,2,-2,0
12316424,613,-8308,287,0,2,-2,0
12316429,618,-8307,300,0,2,-2,0
12316434,630,-8303,308,0,2,-2,0
12316439,643,-8302,313,0,2,-2,0
12316444,654,-8303,317,0,2,-2,0
12316449,666,-8304,313,0,1,-2,0
12316454,677,-8303,311,0,1,-2,0
12316459,684,-8301,311,0,1,-2,0
12316464,689,-8297,314,0,0,-2,0
12316469,695,-8297,313,0,0,-2,0
12316474,700,-8294,311,0,0,-2,0
12316479,697,-8297,316,0,0,-2,0
12316484,690,-8298,313,0,0,-2,0
12316489,679,-8299,310,0,0,-2,0
12316494,668,-8297,299,0,0,-2,0
12316499,658,-8296,285,0,0,-2,0
12316504,648,-8296,270,0,0,-2,0
12316509,643,-8297,256,0,0,-2,0
12316514,641,-8299,235,0,-1,-2,0
12316519,649,-8299,218,0,-1,-2,0
12316524,665,-8299,201,0,-1,-2,0
12316529,688,-8300,188,0,0,-2,0
12316534,718,-8303,179,0,0,-2,0
12316539,743,-8303,164,0,0,-2,0
12316544,767,-8305,155,0,0,-2,0
12316549,787,-8305,154,0,0,-2,0
12316554,808,-8305,159,0,0,-2,0
12316559,820,-8305,166,0,-1,-2,0
12316564,826,-8305,171,0,0,-2,0
12316569,834,-8304,180,0,0,-2,0
12316574,846,-8301,193,0,0,-2,0
12316579,862,-8300,204,0,0,-2,0
12316584,877,-8295,213,0,0,-2,0
12316589,893,-8293,223,0,0,-2,0
12316594,911,-8294,227,0,0,-2,0
12316599,925,-8293,233,0,0,-1,0
12316604,935,-8293,236,0,0,-1,0
12316609,941,-8294,234,0,1,-1,0
12316614,939,-8298,228,0,1,-1,0
12316619,939,-8297,219,0,1,-1,0
12316624,943,-8299,206,0,1,-1,0
12316629,950,-8300,189,0,1,-1,0
12316634,956,-8296,176,0,0,-1,0
12316639,959,-8294,165,0,0,-1,0
12316644,964,-8296,158,0,0,-1,0
12316649,965,-8295,159,0,-1,-1,0
12316654,964,-8294,167,0,-1,-1,0
12316659,959,-8292,178,0,-1,-1,0
12316664,949,-8292,186,0,-1,-1,0
12316669,944,-8294,191,0,-1,-1,0
12316674,931,-8297,206,0,-1,-1,0
12316679,917,-8300,217,0,-1,-1,0
12316684,911,-8302,229,0,-1,0,0
12316689,901,-8303,240,0,-1,-1,0
12316694,890,-8305,251,0,-1,-1,0
12316699,885,-8304,260,0,-1,-1,0
12316704,876,-8304,270,0,-1,0,0
12316709,863,-8304,268,0,-2,0,0
12316714,844,-8307,264,0,-2,-1,0
12316719,832,-8304,261,0,-1,0,0
12316724,820,-8300,258,0,-1,-1,0
12316729,805,-8297,257,0,-1,-1,0
12316734,794,-8294,259,0,-1,0,0
12316739,789,-8297,259,0,-1,0,0
12316744,787,-8297,266,0,-1,0,0
12316749,789,-8295,275,0,-1,0,0
12316754,793,-8295,286,0,-1,0,0
12316759,800,-8296,299,0,-1,0,0
12316764,807,-8296,316,0,-1,0,0
12316769,814,-8294,336,0,-1,0,0
12316774,817,-8294,358,0,-1,0,0
12316779,819,-8295,385,0,-1,0,0
12316784,813,-8295,403,0,-1,0,0
12316789,807,-8297,414,-1,-1,0,0
12316794,794,-8298,420,-1,-1,0,0
12316799,783,-8300,421,-1,0,0,0
12316804,775,-8304,418,-1,0,0,0
12316809,767,-8304,416,-1,0,0,0
12316814,757,-8303,411,-1,0,0,0
12316819,757,-8305,413,-1,0,0,0
12316824,758,-8304,408,-1,0,0,0
12316829,758,-8302,403,-1,0,0,0
12316834,762,-8299,399,-1,0,0,0
12316839,766,-8301,393,-1,-1,0,0
12316844,768,-8302,378,-1,0,-1,0
12316849,768,-8302,368,-1,0,-1,0
12316854,767,-8302,354,-1,0,0,0
12316859,765,-8301,341,-1,0,0,0
12316864,764,-8301,328,-1,0,0,0
12316869,766,-8301,316,-1,0,0,0
12316874,773,-8302,313,-1,0,0,0
12316879,780,-8305,299,-1,0,0,0
12316884,786,-8305,290,-1,0,0,0
12316889,790,-8302,273,-1,0,0,0
12316894,794,-8299,259,-1,-1,0,0
12316899,793,-8300,243,-1,-1,0,0
12316904,792,-8299,231,-1,-1,0,0
12316909,786,-8301,215,-1,-1,0,0
12316914,779,-8304,193,-1,-1,0,0
12316919,773,-8306,169,-1,-1,0,0
12316924,765,-8307,146,-1,-1,0,0
12316929,760,-8308,126,-1,-1,0,0
12316934,759,-8306,103,-1,-1,0,0
12316939,756,-8307,87,-1,-1,0,0
12316944,754,-8307,78,-1,-1,0,0
12316949,749,-8306,70,-1,-1,0,0
12316954,746,-8304,67,-1,-1,0,0
12316959,741,-8306,71,-1,-1,0,0
12316964,735,-8307,78,-1,-1,0,0
12316969,731,-8305,90,-1,-1,-1,0
12316974,728,-8306,107,-1,-1,0,0
12316979,727,-8308,122,-1,-1,0,0
12316984,729,-8309,125,-1,-1,-1,0
12316989,734,-8307,124,-1,-1,0,0
12316994,743,-8304,121,0,-1,-1,0
12316999,756,-8305,109,0,-1,-1,0
12317004,764,-8303,97,0,-1,-1,0
12317009,772,-8303,77,0,-1,-1,0
12317014,773,-8304,61,0,-1,0,0
12317019,770,-8302,51,0,-1,-1,0
12317024,762,-8303,38,0,-1,-1,0
12317029,755,-8300,27,0,-1,-1,0
12317034,744,-8303,21,0,-1,-1,0
12317039,734,-8303,26,0,0,-1,0
12317044,726,-8304,36,0,0,-1,0
12317049,721,-8301,56,0,0,-1,0
12317054,715,-8301,84,0,0,-1,0
12317059,711,-8302,116,0,0,-1,0
12317064,709,-8304,150,0,0,-1,0
12317069,704,-8305,187,0,0,-1,0
12317074,706,-8303,214,0,0,-1,0
12317079,712,-8303,242,0,0,-1,0
12317084,714,-8303,263,0,0,-1,0
12317089,720,-8305,272,0,0,-1,0
12317094,725,-8305,272,0,0,-1,0
12317099,732,-8308,266,0,-1,-1,0
12317104,738,-8310,261,0,-1,-1,0
12317109,743,-8311,260,0,-1,-1,0
12317114,746,-8311,254,0,-1,-1,0
12317119,745,-8310,249,0,-1,-1,0
12317124,740,-8310,249,0,-1,-1,0
12317129,737,-8308,253,0,-1,-1,0
12317134,734,-8307,260,0,0,-1,0
12317139,730,-8304,261,0,0,-1,0
12317144,727,-8304,264,0,0,-1,0
12317149,732,-8306,266,0,0,-1,0
12317154,740,-8305,259,0,0,-1,0
12317159,753,-8306,249,0,0,-1,0
12317164,767,-8303,245,0,0,-1,0
12317169,777,-8302,240,0,0,-1,0
12317174,787,-8302,232,0,0,-1,0
12317179,793,-8303,223,0,0,-1,0
12317184,792,-8302,217,0,0,-1,0
12317189,790,-8301,208,0,0,-1,0
12317194,786,-8301,200,0,0,-1,0
12317199,784,-8298,195,0,0,-1,0
12317204,785,-8299,194,0,0,-1,0
12317209,790,-8301,190,0,0,-1,0
12317214,794,-8301,186,0,0,-1,0
12317219,796,-8299,187,0,0,-1,0
12317224,800,-8296,186,0,0,-1,0
12317229,802,-8297,185,0,0,-1,0
12317234,803,-8298,183,0,0,-1,0
12317239,806,-8299,183,0,0,-1,0
12317244,810,-8300,187,0,0,-1,0
12317249,814,-8300,192,0,-1,-1,0
12317254,823,-8298,195,0,-1,-1,0
12317259,830,-8298,197,0,-1,-1,0
12317264,833,-8301,199,0,-1,-1,0
12317269,829,-8304,201,0,-1,-1,0
12317274,819,-8304,202,0,-1,-1,0
12317279,808,-8307,208,0,-1,-1,0
12317284,796,-8306,211,0,-1,-1,0
12317289,781,-8307,216,0,-1,-1,0
12317294,769,-8304,220,0,-1,-1,0
12317299,762,-8304,224,0,0,-1,0
12317304,763,-8302,228,0,0,-1,0
12317309,767,-8303,238,0,0,-1,0
12317314,772,-8306,251,0,0,-1,0
12317319,778,-8305,264,0,0,-1,0
12317324,782,-8303,272,0,0,-1,0
12317329,782,-8305,277,0,0,-1,0
12317334,780,-8302,277,0,-1,-1,0
12317339,777,-8300,274,0,-1,-1,0
12317344,772,-8299,267,0,-1,-1,0
12317349,774,-8301,260,0,-1,-1,0
12317354,779,-8301,261,0,-1,-1,0
12317359,785,-8301,255,0,-1,-1,0
12317364,790,-8300,246,0,-1,-1,0
12317369,795,-8299,239,0,-1,-1,0
12317374,798,-8302,231,0,-1,-1,0
12317379,799,-8303,226,0,-1,-1,0
12317384,800,-8299,226,0,-1,-1,0
12317389,794,-8297,228,0,-1,-1,0
12317394,791,-8295,225,0,-1,-1,0
12317399,789,-8292,226,0,-1,-1,0
12317404,791,-8295,228,0,-1,-1,0
12317409,793,-8296,235,0,-1,-1,0
12317414,800,-8299,236,0,-1,-1,0
12317419,806,-8299,235,0,-1,-1,0
12317424,808,-8298,235,0,-1,-1,0
12317429,809,-8299,239,0,-1,0,0
12317434,810,-8302,242,0,-1,-1,0
12317439,809,-8299,242,0,-1,-1,0
12317444,803,-8299,244,0,-1,-1,0
12317449,795,-8298,246,0,-1,-1,0
12317454,787,-8299,246,0,-1,-1,0
12317459,783,-8300,248,0,-1,-1,0
12317464,777,-8299,243,0,-1,-1,0
12317469,772,-8299,241,0,-1,0,0
12317474,770,-8296,239,-1,-1,0,0
12317479,771,-8295,238,0,-1,-1,0
12317484,774,-8296,234,0,-1,0,0
12317489,773,-8296,228,-1,0,-1,0
12317494,768,-8296,219,-1,0,-1,0
12317499,769,-8295,215,-1,0,-1,0
12317504,769,-8294,220,-1,0,-1,0
12317509,776,-8296,225,-1,0,-1,0
12317514,783,-8296,229,-1,0,-1,0
12317519,788,-8297,233,-1,-1,-1,0
12317524,794,-8297,239,-1,-1,-1,0
12317529,795,-8300,238,-1,-1,-1,0
12317534,797,-8299,238,-1,-1,-1,0
12317539,795,-8297,243,-1,-1,-1,0
12317544,791,-8298,252,-1,-1,-1,0
12317549,784,-8298,263,-1,-1,-1,0
12317554,779,-8296,274,-1,-1,-1,0
12317559,772,-8297,281,-1,-1,-1,0
12317564,772,-8299,280,-1,-1,-1,0
12317569,774,-8301,280,-1,-1,-1,0
12317574,780,-8303,280,-1,-1,-1,0
12317579,789,-8307,279,-1,-1,-1,0
12317584,791,-8306,272,-1,-1,-1,0
12317589,793,-8305,259,-1,-1,-1,0
12317594,791,-8305,245,-1,-1,-1,0
12317599,791,-8305,236,-1,-1,-1,0
12317604,787,-8305,226,-1,-1,-1,0
12317609,783,-8302,221,-1,0,-1,0
12317614,783,-8303,210,-1,0,-1,0
12317619,788,-8305,207,-1,0,-1,0
12317624,794,-8303,208,-1,0,-1,0
12317629,805,-8301,217,-1,0,0,0
12317634,821,-8302,221,-1,0,-1,0
12317639,832,-8303,229,-1,0,0,0
12317644,846,-8304,229,-1,0,-1,0
12317649,854,-8301,226,-1,-1,-1,0
12317654,859,-8300,215,-1,-1,-1,0
12317659,862,-8298,205,-1,-1,-1,0
12317664,863,-8301,187,-1,-1,0,0
12317669,864,-8303,165,-1,-1,0,0
12317674,864,-8303,142,-1,-1,0,0
12317679,863,-8301,127,-1,-1,0,0
12317684,863,-8302,119,0,-1,0,0
12317689,865,-8303,105,0,-1,0,0
12317695,864,-8303,94,0,-1,0,0
12317699,861,-8301,88,0,-1,0,0
12317704,860,-8302,83,0,0,0,0
12317710,855,-8301,82,0,0,0,0
12317715,847,-8297,89,0,0,0,0
12317719,833,-8297,98,0,0,0,0
12317724,823,-8297,112,0,0,0,0
12317729,815,-8298,126,0,0,0,0
12317734,811,-8300,137,0,0,0,0
12317739,809,-8300,151,0,0,0,0
12317744,805,-8299,163,0,0,0,0
12317749,808,-8297,176,0,0,0,0
12317754,814,-8295,189,0,0,0,0
12317759,817,-8294,201,0,0,0,0
12317765,817,-8295,209,0,-1,0,0
12317769,820,-8296,207,0,-1,0,0
12317774,822,-8297,209,0,-1,0,0
12317779,822,-8299,213,0,-1,0,0
12317784,819,-8300,220,0,-1,0,0
12317789,816,-8301,229,0,-1,0,0
12317794,812,-8300,238,0,-1,0,0
12317799,811,-8299,243,0,-1,0,0
12317804,815,-8298,254,0,-1,0,0
12317810,815,-8299,261,0,-1,0,0
12317815,812,-8300,268,0,-1,0,0
12317819,810,-8299,272,0,-1,0,0
12317825,807,-8300,277,0,-1,0,0
12317829,802,-8299,283,0,-1,0,0
12317834,792,-8298,289,0,-1,0,0
12317839,785,-8299,296,0,-1,0,0
12317844,778,-8299,306,0,-1,0,0
12317849,769,-8300,312,-1,-1,0,0
12317855,759,-8298,318,-1,-1,0,0
12317859,752,-8296,320,-1,-1,0,0
12317864,745,-8295,316,-1,-1,0,0
12317869,741,-8298,315,-1,-1,0,0
12317874,740,-8299,308,-1,-1,0,0
12317879,742,-8296,299,-1,-1,0,0
12317885,748,-8297,293,-1,-1,0,0
12317889,751,-8299,290,-1,-1,0,0
12317895,754,-8299,291,-1,-1,0,0
12317900,755,-8298,293,-1,-1,0,0
12317904,756,-8299,293,-1,-1,0,0
12317909,756,-8297,286,-1,-1,0,0
12317914,755,-8297,282,-1,-1,0,0
12317919,754,-8294,279,-1,-1,0,0
12317924,755,-8294,281,-1,-1,0,0
12317929,759,-8293,282,-1,-1,0,0
12317934,768,-8294,283,-1,-1,0,0
12317939,781,-8297,282,-1,-1,0,0
12317945,793,-8297,275,-1,-1,0,0
12317949,810,-8298,260,-1,-2,0,0
12317954,820,-8299,244,-1,-2,0,0
12317959,827,-8302,224,-1,-2,0,0
12317965,825,-8301,201,-1,-3,0,0
12317969,819,-8301,180,-1,-3,0,0
12317975,806,-8303,171,-1,-3,0,0
12317979,794,-8301,160,-1,-2,0,0
12317984,778,-8300,153,-1,-1,0,0
12317989,765,-8299,148,-1,-1,0,0
12317994,756,-8299,148,-1,0,0,0
12318000,750,-8301,144,-1,0,0,0
12318005,754,-8300,141,-1,0,0,0
12318009,763,-8298,135,-1,0,0,0
12318014,773,-8297,129,0,0,0,0
12318019,780,-8298,119,0,0,0,0
12318025,788,-8298,116,0,-1,0,0
12318030,792,-8300,107,0,-1,0,0
12318035,787,-8302,103,0,-1,0,0
12318039,780,-8301,98,0,-1,0,0
12318044,771,-8298,90,0,-1,0,0
12318049,765,-8300,84,0,0,0,0
12318055,765,-8300,85,0,0,0,0
12318060,771,-8301,86,0,0,0,0
12318065,782,-8303,87,0,-1,0,0
12318070,796,-8305,98,0,0,0,0
12318074,812,-8304,112,0,0,0,0
12318080,822,-8305,129,0,-1,0,0
12318085,821,-8307,153,0,-1,0,0
12318089,814,-8306,176,0,-1,0,0
12318095,806,-8305,198,0,-1,0,0
12318100,791,-8304,218,0,-1,0,0
12318105,778,-8304,228,0,-1,0,0
12318110,769,-8303,227,0,-1,0,0
12318115,766,-8302,213,0,-1,0,0
12318120,763,-8302,199,0,-1,0,0
12318124,759,-8301,180,0,-1,0,0
12318130,763,-8300,162,0,0,0,0
12318135,765,-8297,147,0,0,0,0
12318140,766,-8295,136,0,0,0,0
12318144,767,-8295,134,0,0,0,0
12318150,765,-8295,137,0,0,0,0
12318155,757,-8296,145,0,0,0,0
12318160,752,-8293,156,0,0,0,0
12318165,745,-8294,175,0,0,0,0
12318169,737,-8294,194,0,0,0,0
12318175,732,-8294,211,0,0,0,0
12318180,726,-8294,227,0,0,0,0
12318184,721,-8293,239,0,0,0,0
12318190,718,-8293,240,0,0,0,0
12318195,717,-8294,234,0,0,0,0
12318200,719,-8298,228,0,0,0,0
12318205,719,-8302,215,0,0,0,0
12318210,716,-8302,207,0,0,0,0
12318215,712,-8303,199,0,0,0,0
12318219,706,-8305,196,0,0,0,0
12318225,704,-8303,199,0,0,0,0
12318230,706,-8304,208,0,0,0,0
12318235,704,-8303,211,0,0,0,0
12318240,702,-8304,223,0,0,0,0
12318245,699,-8306,232,0,0,0,0
12318250,699,-8305,243,0,0,0,0
12318255,697,-8306,250,0,0,0,0
12318260,698,-8306,256,0,0,0,0
12318265,695,-8305,259,0,0,0,0
12318270,695,-8305,263,0,0,0,0
12318275,696,-8308,259,0,0,0,0
12318280,699,-8309,248,0,-1,0,0
12318285,704,-8310,244,0,-1,0,0
12318290,706,-8310,245,0,-1,0,0
12318295,708,-8311,245,0,0,0,0
12318300,711,-8307,246,0,0,0,0
12318305,718,-8308,248,0,0,-1,0
12318310,717,-8310,249,0,0,0,0
12318315,717,-8311,254,0,-1,-1,0
12318320,714,-8310,262,0,0,-1,0
12318325,713,-8310,273,0,0,-1,0
12318330,708,-8311,281,0,0,-1,0
12318335,700,-8313,289,0,0,0,0
12318340,694,-8316,296,0,0,-1,0
12318345,693,-8313,302,0,0,-1,0
12318350,694,-8312,300,0,0,-1,0
12318355,703,-8314,296,0,0,-1,0
12318360,712,-8316,291,0,0,-1,0
12318365,722,-8315,292,0,0,-1,0
12318370,730,-8312,296,0,0,-1,0
12318375,738,-8312,300,0,0,-1,0
12318380,740,-8308,301,0,-1,-1,0
12318385,740,-8303,304,0,-1,-1,0
12318390,740,-8303,304,0,-1,-1,0
12318395,738,-8304,299,0,-1,-1,0
12318400,733,-8305,295,0,-1,-1,0
12318405,732,-8306,284,0,-1,-1,0
12318410,736,-8304,270,0,-1,-1,0
12318415,737,-8301,254,0,-1,-1,0
12318420,738,-8298,242,0,-1,-1,0
12318425,740,-8301,236,0,-1,-1,0
12318430,745,-8304,226,0,-1,-1,0
12318435,747,-8305,220,0,-1,-1,0
12318440,749,-8303,217,0,0,-1,0
12318445,752,-8305,212,0,0,-1,0
12318450,756,-8304,213,0,0,-1,0
12318455,757,-8302,213,0,0,-1,0
12318460,758,-8301,214,0,0,-1,0
12318465,759,-8300,218,0,0,-1,0
12318470,759,-8301,222,0,0,-1,0
12318475,761,-8301,228,0,0,-1,0
12318480,760,-8302,234,0,0,-1,0
12318485,760,-8303,236,0,-1,-1,0
12318490,758,-8303,242,0,-1,-1,0
12318495,758,-8303,246,0,-1,-1,0
12318500,760,-8303,252,0,0,-1,0
12318505,762,-8301,259,0,0,-1,0
12318510,766,-8299,267,0,0,-1,0
12318515,771,-8301,278,0,0,-1,0
12318520,778,-8299,292,0,0,-1,0
12318525,785,-8299,307,0,0,-1,0
12318530,793,-8300,316,0,0,0,0
12318535,797,-8302,330,0,-1,-1,0
12318540,798,-8303,339,0,-1,0,0
12318545,798,-8305,343,0,-1,0,0
12318550,795,-8303,335,0,-1,-1,0
12318555,791,-8302,317,0,-1,0,0
12318560,786,-8303,303,0,-1,0,0
12318565,783,-8301,290,-1,-1,0,0
12318570,780,-8302,281,-1,-1,0,0
12318575,778,-8300,280,-1,-1,0,0
12318580,778,-8299,284,-1,0,0,0
12318585,775,-8297,291,-1,0,0,0
12318590,773,-8296,299,-1,0,0,0
12318595,773,-8297,303,-1,-1,0,0
12318600,772,-8299,308,-1,-1,0,0
12318605,773,-8301,308,-1,-1,0,0
12318610,769,-8300,306,-1,-1,0,0
12318615,766,-8299,302,-1,-1,0,0
12318620,758,-8301,294,-1,-1,0,0
12318625,753,-8302,288,-1,-1,0,0
12318630,746,-8301,284,-1,-1,0,0
12318635,741,-8299,280,-1,-1,0,0
12318640,740,-8298,270,-1,-1,0,0
12318645,742,-8299,256,-1,-1,0,0
12318650,744,-8299,245,-1,0,0,0
12318655,747,-8300,235,-1,0,0,0
12318660,749,-8302,230,-1,0,0,0
12318665,753,-8304,224,-1,0,0,0
12318670,757,-8304,222,-1,0,0,0
12318675,753,-8307,229,-1,0,0,0
12318680,750,-8308,236,-1,0,0,0
12318685,742,-8308,240,-1,0,0,0
12318690,733,-8310,242,-1,0,-1,0
12318695,725,-8307,253,-1,0,-1,0
12318700,719,-8305,265,-1,0,-1,0
12318705,718,-8304,271,-1,0,0,0
12318710,716,-8303,274,-1,0,0,0
12318715,712,-8306,277,-1,0,-1,0
12318720,706,-8305,284,-1,1,-1,0
12318725,703,-8304,290,-1,1,-1,0
12318730,700,-8304,303,-1,1,-1,0
12318735,696,-8303,317,-1,2,-1,0
12318740,695,-8301,326,-1,2,-1,0
12318745,695,-8298,328,-1,2,-1,0
12318750,699,-8298,328,-1,3,-1,0
12318755,709,-8296,320,-1,2,-1,0
12318760,725,-8298,307,-1,2,-1,0
12318765,748,-8296,287,-1,2,0,0
12318770,772,-8296,274,-1,1,-1,0
12318775,794,-8295,262,-1,1,-1,0
12318780,808,-8295,250,-1,0,-1,0
12318785,817,-8295,237,-1,0,-1,0
12318790,821,-8295,228,-1,0,-1,0
12318795,820,-8296,225,-1,0,-1,0
12318800,819,-8296,221,-1,0,0,0
12318805,815,-8299,222,-1,0,0,0
12318810,814,-8301,224,-1,0,0,0
12318815,816,-8300,229,-1,0,0,0
12318820,818,-8300,224,-1,0,0,0
12318825,819,-8300,215,-1,0,0,0
12318830,820,-8300,209,-1,-1,0,0
12318835,818,-8302,201,-1,-1,0,0
12318840,813,-8302,190,-1,-1,0,0
12318845,802,-8302,179,-1,-1,0,0
12318850,790,-8302,173,-1,-1,0,0
12318855,775,-8302,170,-1,-1,0,0
12318860,760,-8301,161,-1,-1,0,0
12318865,746,-8303,154,-1,-1,0,0
12318870,738,-8306,152,-1,-1,0,0
12318875,738,-8307,150,-1,0,0,0
12318880,742,-8304,150,-1,0,0,0
12318885,746,-8302,153,-1,0,0,0
12318890,752,-8302,155,-1,0,0,0
12318895,758,-8304,159,-1,0,0,0
12318900,762,-8305,157,-1,-1,0,0
12318905,764,-8305,164,-1,-1,0,0
12318910,761,-8306,164,0,-1,0,0
12318915,754,-8306,166,0,-1,0,0
12318920,747,-8305,164,0,-1,0,0
12318925,738,-8305,163,0,-1,0,0
12318930,728,-8305,169,0,-1,0,0
12318935,721,-8304,172,0,-1,0,0
12318940,715,-8303,180,-1,-1,0,0
12318945,710,-8302,189,-1,-1,0,0
12318950,704,-8303,201,-1,-1,0,0
12318955,702,-8304,208,-1,-1,0,0
12318960,701,-8304,210,-1,-1,0,0
12318965,703,-8305,218,0,-1,0,0
12318970,707,-8307,222,0,-1,0,0
12318975,709,-8307,216,0,-1,-1,0
12318980,714,-8304,205,0,-1,-1,0
12318985,717,-8306,193,0,-1,-1,0
12318990,726,-8305,177,0,-1,0,0
12318995,732,-8305,165,0,0,-1,0
12319000,741,-8304,161,0,0,-1,0
12319005,747,-8304,159,0,0,0,0
12319010,753,-8301,160,0,0,0,0
12319015,760,-8303,163,0,-1,-1,0
12319020,765,-8303,169,0,-1,-1,0
12319025,770,-8302,167,0,-1,0,0
12319030,772,-8302,171,0,-1,0,0
12319035,773,-8304,175,0,-1,0,0
12319040,773,-8303,181,0,-1,0,0
12319045,771,-8304,178,0,-1,0,0
12319050,765,-8308,175,0,-1,0,0
12319055,757,-8307,172,0,-1,0,0
12319060,753,-8310,163,0,-1,0,0
12319065,747,-8311,159,0,0,0,0
12319070,744,-8310,164,0,0,0,0
12319075,739,-8308,167,0,0,0,0
12319080,737,-8306,173,0,0,0,0
12319085,738,-8302,184,0,0,0,0
12319090,739,-8301,194,0,0,0,0
12319095,740,-8300,205,0,0,0,0
12319100,742,-8299,214,0,0,0,0
12319105,740,-8302,220,0,0,-1,0
12319110,741,-8307,226,0,0,0,0
12319115,742,-8310,225,0,0,0,0
12319120,744,-8306,222,0,0,0,0
12319125,747,-8306,219,0,0,0,0
12319130,751,-8306,213,0,0,-1,0
12319135,751,-8305,197,0,0,-1,0
12319140,750,-8304,193,0,0,-1,0
12319145,746,-8305,192,0,0,-1,0
12319150,738,-8308,191,0,0,-1,0
12319155,733,-8310,192,0,0,-1,0
12319160,728,-8310,195,0,0,-1,0
12319165,725,-8309,198,0,0,-1,0
12319170,727,-8308,207,0,0,-1,0
12319175,733,-8309,213,0,0,-1,0
12319180,735,-8309,220,0,0,-1,0
12319185,733,-8308,233,0,0,-1,0
12319190,731,-8308,248,0,0,-1,0
12319195,729,-8304,259,0,0,-1,0
12319200,725,-8302,270,0,0,-1,0
12319205,725,-8296,275,0,0,-1,0
12319210,725,-8293,280,0,0,-1,0
12319215,725,-8294,275,0,0,-1,0
12319220,730,-8294,262,0,0,-1,0
12319225,735,-8294,251,0,0,-1,0
12319230,735,-8294,241,0,0,-1,0
12319235,735,-8296,231,0,0,-1,0
12319240,734,-8301,224,0,0,-1,0
12319245,731,-8304,223,0,0,-1,0
12319250,729,-8304,226,0,0,-1,0
12319255,732,-8302,235,0,0,-1,0
12319260,737,-8300,249,0,0,-1,0
12319265,745,-8298,261,0,1,-1,0
12319270,751,-8299,271,0,1,-1,0
12319275,757,-8301,281,0,1,-1,0
12319280,759,-8299,288,0,0,-1,0
12319285,752,-8297,295,0,0,-1,0
12319290,742,-8299,299,0,0,-1,0
12319295,728,-8298,298,0,0,-1,0
12319300,715,-8299,294,0,0,-1,0
12319305,701,-8299,292,0,0,-1,0
12319310,690,-8300,291,0,0,-1,0
12319315,682,-8303,300,0,0,-1,0
12319320,679,-8305,307,0,0,-1,0
12319325,681,-8309,312,0,0,-1,0
12319330,687,-8311,323,0,0,-1,0
12319335,690,-8308,334,0,0,-1,0
12319340,692,-8305,349,0,0,-1,0
12319345,691,-8304,362,0,0,-1,0
12319350,691,-8303,372,-1,0,-1,0
12319355,690,-8301,380,-1,0,-1,0
12319360,685,-8298,380,-1,-1,-1,0
12319365,679,-8299,378,-1,-1,-1,0
12319370,670,-8300,384,-1,-1,-1,0
12319375,661,-8302,387,-1,-1,-1,0
12319380,653,-8305,385,-1,-1,-1,0
12319385,644,-8303,387,-1,-1,-1,0
12319390,634,-8301,388,-1,0,-1,0
12319395,628,-8301,395,-1,0,-1,0
12319400,619,-8299,403,-1,0,-1,0
12319405,609,-8298,416,-1,0,-2,0
12319410,600,-8297,433,-1,0,-2,0
12319415,594,-8295,446,-1,1,-2,0
12319420,592,-8296,456,-1,1,-2,0
12319425,591,-8295,461,-1,1,-2,8
12319430,590,-8296,466,-1,1,-2,8
12319435,589,-8296,465,-2,1,-2,8
12319440,589,-8296,460,-2,1,-2,8
12319445,594,-8295,458,-2,1,-2,8
12319450,594,-8298,445,-2,1,-2,8
12319455,596,-8298,428,-2,1,-2,8
12319460,597,-8298,403,-2,2,-2,8
12319465,599,-8297,378,-2,2,-2,8
12319470,608,-8297,345,-2,3,-2,8
12319475,619,-8298,315,-2,3,-2,8
12319480,635,-8298,290,-2,3,-2,8
12319485,654,-8300,260,-2,4,-2,8
12319490,673,-8301,229,-2,5,-2,8
12319495,691,-8301,198,-2,6,-2,8
12319500,709,-8299,169,-2,7,-2,8
12319505,728,-8298,139,-2,7,-2,8
12319510,744,-8298,113,-1,8,-2,8
12319515,762,-8299,81,-1,8,-2,8
12319520,781,-8297,48,-1,9,-2,8
12319525,804,-8298,20,-1,9,-2,8
12319530,829,-8299,-4,-1,9,-2,8
12319535,854,-8297,-36,-1,10,-2,8
12319540,882,-8294,-78,-1,11,-2,8
12319545,914,-8292,-134,-1,12,-2,8
12319550,948,-8291,-193,0,13,-2,8
12319555,993,-8287,-247,0,13,-2,8
12319560,1048,-8286,-301,0,12,-1,8
12319565,1098,-8285,-345,0,12,-1,8
12319570,1147,-8287,-373,0,12,-1,8
12319575,1195,-8288,-400,1,13,-1,8
12319580,1248,-8287,-435,1,14,-1,8
12319585,1296,-8286,-483,1,14,-1,8
12319590,1343,-8285,-538,2,13,0,8
12319595,1384,-8284,-591,2,12,0,8
12319600,1421,-8281,-642,2,12,0,8
12319605,1463,-8282,-688,2,13,0,8
12319610,1502,-8282,-724,3,14,1,8
12319615,1538,-8281,-754,3,16,1,8
12319620,1573,-8279,-784,3,17,1,8
12319625,1607,-8278,-816,4,17,1,8
12319630,1628,-8279,-847,4,18,2,8
12319635,1650,-8279,-870,4,19,2,8
12319640,1671,-8282,-885,5,21,2,8
12319645,1688,-8281,-902,5,22,3,8
12319650,1713,-8279,-908,5,25,3,8
12319655,1739,-8276,-905,6,27,4,8
12319660,1781,-8270,-890,6,30,4,8
12319665,1831,-8265,-869,6,33,4,8
12319670,1886,-8263,-847,7,35,5,8
12319675,1941,-8258,-816,7,37,5,8
12319680,1997,-8256,-779,7,37,6,8
12319685,2051,-8250,-745,7,38,6,8
12319690,2102,-8245,-708,8,37,7,8
12319695,2143,-8239,-674,8,36,7,8
12319700,2174,-8233,-640,8,35,8,8
12319705,2199,-8228,-620,8,35,8,8
12319710,2222,-8223,-611,9,35,9,8
12319715,2241,-8217,-615,9,35,9,8
12319720,2256,-8217,-619,9,35,10,8
12319725,2257,-8213,-623,9,35,10,8
12319730,2254,-8208,-625,10,36,11,8
12319735,2249,-8204,-618,10,38,11,8
12319740,2231,-8200,-596,10,40,12,8
12319745,2210,-8197,-560,10,43,12,8
12319750,2181,-8191,-505,10,45,13,8
12319755,2152,-8186,-426,10,46,13,8
12319760,2125,-8179,-324,10,47,14,8
12319765,2108,-8170,-210,10,47,15,8
12319770,2103,-8162,-97,10,46,15,8
12319775,2106,-8155,22,10,45,16,8
12319780,2111,-8148,144,10,44,16,8
12319785,2120,-8141,255,10,43,17,8
12319790,2129,-8139,365,10,41,17,8
12319795,2135,-8132,473,10,39,18,8
12319800,2130,-8124,582,9,36,18,8
12319805,2110,-8115,694,9,33,19,8
12319810,2079,-8108,804,9,31,19,8
12319815,2041,-8099,911,9,29,20,8
12319820,2001,-8092,1005,8,28,20,8
12319825,1966,-8086,1078,8,28,21,8
12319830,1934,-8081,1142,8,28,21,8
12319835,1903,-8076,1193,8,28,22,8
12319840,1870,-8070,1237,7,28,22,8
12319845,1841,-8060,1282,7,28,23,8
12319850,1807,-8053,1334,6,27,23,8
12319855,1755,-8048,1410,6,26,23,8
12319860,1681,-8041,1506,5,25,23,8
12319865,1609,-8030,1593,5,25,24,8
12319870,1565,-8017,1624,5,24,24,8
12319875,1571,-8005,1585,5,24,25,8
12319880,1628,-7997,1511,6,22,26,8
12319885,1538,-8033,1815,5,17,27,8
12319890,1334,-8037,2276,0,8,25,8
12319895,1179,-8014,2401,-2,4,24,8
12319900,904,-7997,2816,-2,5,24,8
12319905,610,-7985,3216,-2,3,25,8
12319910,317,-7975,3490,-2,-2,25,8
12319915,44,-7975,3811,-2,-4,26,8
12319920,-118,-7981,3878,-2,-6,26,8
12319925,-218,-7989,3882,-3,-7,26,8
12319930,-200,-7996,3864,-4,-9,25,8
12319935,-187,-7999,3811,-6,-11,25,8
12319940,-210,-8001,3840,-8,-18,24,8
12319945,-275,-7999,3912,-9,-26,23,8
12319950,-469,-7995,4082,-10,-33,23,8
12319955,-721,-7992,4304,-11,-41,23,8
12319960,-1010,-7986,4515,-12,-47,22,8
12319965,-1348,-7987,4729,-12,-50,22,8
12319970,-1647,-7987,4892,-13,-53,22,8
12319975,-1899,-7991,5016,-14,-54,21,8
12319980,-2125,-7996,5109,-16,-54,21,8
12319985,-2301,-7996,5174,-18,-54,20,8
12319990,-2451,-7993,5264,-19,-52,19,8
12319995,-2609,-7989,5363,-21,-52,18,8
12320000,-2783,-7984,5472,-22,-52,17,8
12320005,-2985,-7976,5587,-24,-53,16,8
12320010,-3231,-7965,5701,-25,-53,15,8
12320015,-3478,-7957,5807,-26,-54,14,8
12320020,-3707,-7945,5880,-28,-56,13,8
12320025,-3920,-7931,5927,-29,-59,12,8
12320030,-4087,-7915,5947,-31,-62,11,8
12320035,-4213,-7897,5935,-32,-65,10,8
12320040,-4326,-7878,5888,-34,-68,9,8
12320045,-4431,-7854,5795,-35,-71,8,8
12320050,-4563,-7829,5666,-36,-74,6,8
12320055,-4716,-7801,5509,-37,-76,5,8
12320060,-4864,-7779,5329,-38,-79,4,8
12320065,-5001,-7760,5119,-39,-79,3,8
12320070,-5232,-7726,4813,-40,-78,2,8
12320075,-5558,-7712,4355,-40,-79,0,8
12320080,-5774,-7698,3932,-40,-84,-2,8
12320085,-6079,-7686,3471,-40,-83,-4,8
12320090,-6390,-7673,2919,-41,-87,-4,8
12320095,-6622,-7661,2412,-41,-90,-5,8
12320100,-6781,-7648,1927,-42,-88,-7,8
12320105,-6853,-7630,1481,-42,-86,-8,8
12320110,-6858,-7617,1102,-42,-82,-10,8
12320115,-6806,-7606,749,-42,-78,-12,8
12320120,-6774,-7595,420,-41,-75,-14,8
12320125,-6751,-7585,122,-41,-75,-15,8
12320130,-6729,-7577,-136,-41,-76,-17,8
12320135,-6762,-7572,-360,-41,-77,-18,8
12320140,-6772,-7562,-533,-41,-79,-19,8
12320145,-6759,-7546,-657,-41,-79,-21,8
12320150,-6743,-7532,-731,-41,-76,-22,8
12320155,-6685,-7516,-805,-40,-73,-23,8
12320160,-6609,-7498,-905,-40,-70,-25,8
12320165,-6542,-7483,-1038,-39,-68,-26,8
12320170,-6470,-7465,-1220,-39,-68,-28,8
12320175,-6414,-7451,-1452,-38,-68,-29,8
12320180,-6370,-7435,-1708,-38,-69,-30,8
12320185,-6302,-7423,-1965,-37,-68,-32,8
12320190,-6195,-7409,-2203,-37,-66,-33,8
12320195,-6052,-7394,-2445,-37,-63,-33,8
12320200,-5867,-7375,-2676,-36,-57,-35,8
12320205,-5637,-7359,-2884,-36,-48,-36,8
12320210,-5370,-7343,-3092,-35,-38,-37,8
12320215,-5061,-7329,-3277,-34,-30,-37,8
12320220,-4716,-7316,-3443,-33,-26,-38,8
12320225,-4351,-7305,-3605,-33,-26,-39,8
12320230,-3972,-7297,-3723,-32,-28,-39,8
12320235,-3600,-7292,-3783,-31,-32,-40,8
12320240,-3245,-7290,-3856,-30,-35,-40,8
12320245,-2917,-7282,-3970,-29,-38,-41,8
12320250,-2623,-7278,-4141,-27,-40,-41,8
12320255,-2393,-7284,-4372,-25,-43,-42,8
12320260,-2228,-7292,-4693,-23,-47,-42,8
12320265,-2098,-7306,-5072,-22,-50,-42,8
12320270,-1992,-7319,-5448,-21,-50,-42,8
12320275,-1881,-7329,-5822,-20,-44,-41,8
12320280,-1690,-7334,-6188,-19,-33,-41,8
12320285,-1434,-7341,-6455,-17,-19,-41,8
12320290,-1172,-7350,-6633,-15,-8,-40,8
12320295,-865,-7364,-6772,-13,2,-40,8
12320300,-514,-7377,-6856,-12,11,-40,8
12320305,-148,-7390,-6892,-10,18,-39,8
12320310,240,-7406,-6896,-8,21,-38,8
12320315,642,-7423,-6878,-6,22,-37,8
12320320,997,-7437,-6812,-5,20,-36,8
12320325,1321,-7451,-6757,-3,19,-36,8
12320330,1691,-7465,-6712,-2,19,-36,8
12320335,2066,-7476,-6673,0,23,-36,8
12320340,2383,-7491,-6677,3,27,-36,8
12320345,2623,-7507,-6728,5,27,-36,8
12320350,2764,-7529,-6843,7,27,-35,8
12320355,2806,-7553,-6985,8,27,-35,8
12320360,2783,-7575,-7130,10,31,-33,8
12320365,2744,-7593,-7240,11,38,-32,8
12320370,2726,-7604,-7285,13,49,-31,8
12320375,2738,-7609,-7268,15,63,-30,8
12320380,2795,-7614,-7191,17,77,-29,8
12320385,2911,-7614,-7076,18,91,-28,8
12320390,3079,-7614,-6935,20,102,-27,8
12320395,3270,-7611,-6760,22,108,-26,8
12320400,3449,-7604,-6544,23,110,-25,8
12320405,3602,-7599,-6285,25,110,-24,8
12320410,3737,-7590,-5998,26,109,-23,8
12320415,3853,-7584,-5700,28,108,-21,8
12320420,4030,-7580,-5403,29,108,-20,8
12320425,4312,-7582,-5105,31,112,-17,8
12320430,4565,-7574,-4806,32,118,-15,8
12320435,4817,-7562,-4506,32,120,-13,8
12320440,5107,-7557,-4169,33,120,-12,8
12320445,5361,-7550,-3795,33,122,-11,8
12320450,5503,-7540,-3406,34,122,-9,8
12320455,5563,-7534,-3008,34,118,-8,8
12320460,5566,-7534,-2605,35,112,-6,8
12320465,5509,-7538,-2243,35,108,-4,8
12320470,5432,-7544,-1899,35,106,-2,8
12320475,5284,-7551,-1659,36,103,0,8
12320480,5127,-7556,-1448,36,99,0,8
12320485,5150,-7583,-1106,36,95,2,8
12320490,5228,-7602,-730,34,98,5,8
12320495,5232,-7594,-420,33,103,8,8
12320500,5323,-7589,-85,32,106,9,8
12320505,5497,-7587,299,32,109,10,8
12320510,5609,-7591,610,31,109,11,8
12320515,5634,-7591,872,31,104,12,8
12320520,5627,-7599,1102,30,96,13,8
12320525,5550,-7609,1285,29,88,15,8
12320530,5392,-7621,1429,28,81,16,8
12320535,5233,-7628,1572,28,75,18,8
12320540,5096,-7634,1729,27,74,19,8
12320545,4960,-7640,1854,26,75,21,8
12320550,4852,-7642,1967,26,77,22,8
12320555,4777,-7640,2086,25,79,23,8
12320560,4696,-7640,2212,25,79,24,8
12320565,4620,-7641,2325,24,78,25,8
12320570,4541,-7642,2394,24,77,26,8
12320575,4465,-7644,2456,23,75,27,8
12320580,4426,-7654,2594,22,71,29,8
12320585,4383,-7659,2761,21,66,30,8
12320590,4311,-7657,2928,19,62,31,8
12320595,4217,-7660,3190,18,59,32,8
12320600,4109,-7653,3403,17,58,32,8
12320605,4015,-7639,3500,16,57,33,8
12320610,3932,-7634,3577,16,56,34,8
12320615,3784,-7650,3716,16,53,35,8
12320620,3548,-7656,3896,13,44,35,8
12320625,3336,-7650,3967,12,36,35,8
12320630,3169,-7645,4033,10,33,35,8
12320635,2994,-7639,4098,10,30,36,8
12320640,2793,-7632,4119,9,23,37,8
12320645,2594,-7628,4094,9,18,37,8
12320650,2420,-7632,4000,9,17,37,8
12320655,2246,-7635,3864,8,18,38,8
12320660,2061,-7643,3721,7,16,38,8
12320665,1893,-7647,3586,6,14,37,8
12320670,1746,-7650,3485,5,13,36,8
12320675,1547,-7654,3431,4,14,37,8
12320680,1275,-7656,3422,3,12,37,8
12320685,982,-7656,3445,2,8,37,8
12320690,702,-7656,3508,1,6,37,8
12320695,459,-7658,3589,0,5,37,8
12320700,254,-7662,3679,0,2,37,8
12320705,93,-7668,3769,-1,-3,37,8
12320710,-40,-7671,3839,-2,-6,37,8
12320715,-163,-7675,3885,-2,-9,36,8
12320720,-275,-7681,3902,-3,-13,36,8
12320725,-409,-7690,3892,-3,-15,35,8
12320730,-556,-7698,3876,-4,-18,34,8
12320735,-699,-7706,3857,-5,-21,34,8
12320740,-849,-7715,3849,-5,-23,33,8
12320745,-999,-7722,3838,-6,-26,32,8
12320750,-1176,-7726,3843,-6,-28,31,8
12320755,-1391,-7734,3854,-7,-30,30,8
12320760,-1632,-7746,3839,-7,-30,30,8
12320765,-1881,-7762,3824,-8,-30,29,8
12320770,-2138,-7782,3800,-8,-29,28,8
12320775,-2376,-7800,3774,-9,-29,28,8
12320780,-2609,-7817,3726,-10,-29,27,8
12320785,-2835,-7837,3677,-11,-29,27,8
12320790,-3025,-7855,3643,-13,-29,26,8
12320795,-3163,-7872,3641,-14,-30,25,8
12320800,-3263,-7883,3685,-15,-29,24,8
12320805,-3324,-7890,3757,-16,-29,23,8
12320810,-3365,-7899,3843,-16,-31,22,8
12320815,-3409,-7907,3922,-17,-35,21,8
12320820,-3468,-7914,3970,-17,-41,20,8
12320825,-3560,-7923,3971,-17,-50,18,8
12320830,-3678,-7934,3924,-18,-60,17,8
12320835,-3811,-7946,3840,-19,-70,16,8
12320840,-3947,-7953,3733,-19,-78,16,8
12320845,-4097,-7963,3606,-20,-82,15,8
12320850,-4252,-7972,3453,-20,-82,13,8
12320855,-4394,-7981,3287,-20,-77,12,8
12320860,-4534,-7989,3108,-21,-68,11,8
12320865,-4760,-7990,2846,-21,-57,10,8
12320870,-5011,-8001,2525,-21,-50,7,8
12320875,-5220,-8019,2274,-21,-45,5,8
12320880,-5480,-8038,2001,-21,-38,5,8
12320885,-5686,-8054,1718,-22,-36,4,8
12320890,-5802,-8066,1489,-22,-32,3,8
12320895,-5808,-8069,1273,-22,-27,2,8
12320900,-5745,-8071,1096,-22,-22,0,8
12320905,-5619,-8074,931,-22,-17,-2,8
12320910,-5472,-8079,738,-21,-14,-4,8
12320915,-5379,-8084,553,-21,-14,-5,8
12320920,-5314,-8089,366,-20,-18,-7,8
12320925,-5302,-8093,199,-20,-23,-9,8
12320930,-5342,-8094,49,-20,-29,-10,8
12320935,-5370,-8093,-84,-20,-33,-11,8
12320940,-5374,-8093,-184,-20,-35,-12,8
12320945,-5345,-8092,-275,-19,-34,-13,8
12320950,-5270,-8090,-384,-18,-32,-14,8
12320955,-5165,-8082,-513,-18,-28,-15,8
12320960,-5051,-8074,-684,-17,-23,-17,8
12320965,-4933,-8070,-866,-17,-19,-18,8
12320970,-4825,-8070,-1053,-16,-16,-19,8
12320975,-4737,-8069,-1226,-16,-13,-20,8
12320980,-4651,-8067,-1369,-16,-11,-22,8
12320985,-4550,-8066,-1469,-15,-8,-22,8
12320990,-4438,-8059,-1535,-15,-4,-23,8
12320995,-4271,-8051,-1559,-14,2,-24,8
12321000,-4045,-8038,-1563,-14,9,-25,8
12321005,-3763,-8028,-1559,-13,15,-25,8
12321010,-3408,-8015,-1548,-12,20,-26,8
12321015,-2999,-8006,-1504,-12,23,-26,8
12321020,-2552,-7999,-1448,-11,23,-26,8
12321025,-2084,-7990,-1416,-11,20,-26,8
12321030,-1614,-7984,-1395,-10,14,-26,8
12321035,-1169,-7979,-1356,-9,7,-26,8
12321040,-777,-7978,-1323,-9,0,-26,8
12321045,-436,-7978,-1294,-8,-6,-26,8
12321050,-138,-7979,-1274,-8,-9,-25,8
12321055,132,-7980,-1259,-8,-11,-25,8
12321060,386,-7985,-1256,-7,-12,-25,8
12321065,631,-7989,-1278,-6,-13,-24,8
12321070,883,-7994,-1331,-6,-14,-23,8
12321075,1170,-8001,-1424,-5,-13,-22,8
12321080,1476,-8007,-1537,-4,-11,-20,8
12321085,1801,-8018,-1633,-3,-10,-19,8
12321090,2116,-8032,-1727,-2,-10,-17,8
12321095,2419,-8049,-1821,-2,-10,-16,8
12321100,2709,-8064,-1901,-1,-10,-15,8
12321105,2972,-8083,-1936,-1,-10,-14,8
12321110,3190,-8100,-1920,-1,-10,-13,8
12321115,3367,-8113,-1860,-1,-11,-12,8
12321120,3504,-8127,-1752,-1,-10,-12,8
12321125,3585,-8138,-1614,-1,-10,-12,8
12321130,3592,-8147,-1463,0,-10,-11,8
12321135,3523,-8158,-1316,0,-11,-11,8
12321140,3383,-8172,-1189,1,-11,-10,8
12321145,3201,-8185,-1096,1,-12,-9,8
12321150,3010,-8199,-1029,1,-12,-8,8
12321155,2831,-8211,-976,1,-11,-7,8
12321160,2691,-8218,-940,2,-8,-6,8
12321165,2606,-8226,-908,2,-5,-5,8
12321170,2562,-8235,-869,2,-1,-5,8
12321175,2554,-8242,-821,2,2,-4,8
12321180,2558,-8247,-768,2,4,-4,8
12321185,2548,-8248,-711,2,4,-4,8
12321190,2516,-8250,-644,3,4,-3,8
12321195,2448,-8256,-573,3,3,-3,8
12321200,2345,-8263,-505,3,2,-2,8
12321205,2218,-8269,-440,3,0,-2,8
12321210,2077,-8273,-377,3,0,-2,8
12321215,1940,-8275,-307,3,0,-1,8
12321220,1813,-8278,-251,3,0,-1,8
12321225,1703,-8279,-197,3,0,0,8
12321230,1602,-8280,-146,4,0,0,8
12321235,1508,-8282,-107,4,1,0,8
12321240,1418,-8283,-67,4,1,0,8
12321245,1321,-8287,-23,3,3,0,8
12321250,1221,-8287,22,3,4,0,8
12321255,1128,-8290,81,3,6,0,8
12321260,1041,-8292,144,3,8,0,8
12321265,978,-8291,220,3,9,0,8
12321270,932,-8295,296,2,10,-1,8
12321275,898,-8294,378,2,10,-1,8
12321280,870,-8294,450,2,9,-1,8
12321285,838,-8293,506,2,8,-1,8
12321290,805,-8295,551,2,6,-1,8
12321295,732,-8297,611,1,4,-1,8
12321300,579,-8300,674,1,1,-1,8
12321305,409,-8304,761,1,-3,-1,8
12321310,253,-8302,847,1,-3,0,8
12321315,125,-8303,931,1,-2,0,8
12321320,44,-8307,994,1,-2,0,8
12321325,20,-8307,1017,1,-1,0,8
12321330,52,-8308,1016,1,0,0,8
12321335,108,-8309,993,1,0,0,8
12321340,179,-8309,948,1,-1,0,8
12321345,238,-8307,903,0,-2,-1,8
12321350,260,-8305,864,0,-3,-1,8
12321355,250,-8306,834,0,-4,-1,8
12321360,216,-8309,817,0,-4,-1,8
12321365,161,-8310,808,0,-4,-1,8
12321370,105,-8310,806,-1,-4,-1,8
12321375,73,-8311,799,-1,-4,-1,8
12321380,65,-8310,787,-1,-3,-1,8
12321385,88,-8304,762,-1,-2,-1,8
12321390,140,-8303,732,-1,-2,-1,8
12321395,201,-8303,695,-1,-2,-1,8
12321400,262,-8305,654,-1,-2,-1,8
12321405,308,-8306,616,-1,-2,-1,8
12321410,330,-8306,584,-1,-2,-2,8
12321415,332,-8302,560,-1,-2,-2,8
12321420,316,-8302,552,-1,-2,-2,8
12321425,297,-8302,566,-2,-2,-2,0
12321430,285,-8304,593,-2,-2,-1,0
12321435,279,-8304,620,-2,-2,-1,0
12321440,285,-8307,648,-2,-2,-1,0
12321445,297,-8306,670,-2,-3,-2,0
12321450,311,-8310,683,-2,-4,-2,0
12321455,323,-8310,684,-2,-5,-2,0
12321460,323,-8310,676,-2,-6,-2,0
12321465,310,-8308,665,-2,-7,-2,0
12321470,282,-8307,651,-2,-8,-2,0
12321475,236,-8307,636,-2,-9,-2,0
12321480,187,-8308,619,-3,-9,-2,0
12321485,132,-8306,607,-3,-9,-2,0
12321490,86,-8304,582,-3,-7,-2,0
12321495,55,-8301,550,-3,-6,-2,0
12321500,34,-8303,511,-3,-4,-2,0
12321505,26,-8304,465,-3,-2,-3,0
12321510,32,-8305,426,-3,-1,-3,0
12321515,48,-8306,389,-3,0,-3,0
12321520,74,-8306,355,-3,0,-3,0
12321525,104,-8306,333,-3,1,-3,0
12321530,141,-8307,314,-3,1,-3,0
12321535,186,-8306,305,-3,1,-3,0
12321540,237,-8304,296,-3,0,-3,0
12321545,293,-8303,287,-3,0,-3,0
12321550,351,-8302,281,-3,-1,-3,0
12321555,406,-8305,272,-3,-2,-3,0
12321560,446,-8304,262,-3,-2,-3,0
12321565,480,-8304,250,-3,-2,-3,0
12321570,506,-8305,239,-3,-3,-3,0
12321575,521,-8303,233,-3,-4,-3,0
12321580,535,-8302,219,-3,-4,-3,0
12321585,553,-8301,200,-2,-5,-3,0
12321590,571,-8302,173,-2,-6,-3,0
12321595,601,-8301,144,-2,-6,-2,0
12321600,632,-8300,110,-2,-6,-2,0
12321605,662,-8302,67,-2,-7,-2,0
12321610,690,-8299,26,-2,-6,-2,0
12321615,709,-8298,-8,-2,-6,-2,0
12321620,722,-8296,-41,-2,-5,-2,0
12321625,728,-8296,-63,-2,-4,-2,0
12321630,724,-8293,-77,-2,-3,-2,0
12321635,717,-8290,-84,-2,-2,-2,0
12321640,719,-8292,-87,-2,-2,-2,0
12321645,733,-8293,-92,-1,-1,-2,0
12321650,751,-8294,-97,-1,-2,-1,0
12321655,773,-8297,-102,-1,-2,-1,0
12321660,792,-8299,-102,-1,-3,-1,0
12321665,804,-8299,-103,-1,-3,-1,0
12321670,810,-8300,-101,-1,-3,-1,0
12321675,805,-8297,-100,-1,-3,-1,0
12321680,795,-8294,-96,-1,-3,-1,0
12321685,778,-8294,-92,-1,-4,-1,0
12321690,762,-8297,-84,-1,-4,-1,0
12321695,751,-8298,-78,-1,-4,-1,0
12321700,744,-8297,-70,0,-4,-1,0
12321705,743,-8299,-59,0,-4,-1,0
12321710,744,-8301,-54,0,-4,-1,0
12321715,741,-8298,-56,0,-4,-1,0
12321720,731,-8299,-59,0,-4,-1,0
12321725,713,-8300,-65,0,-4,-1,0
12321730,686,-8304,-77,0,-3,-1,0
12321735,653,-8306,-88,0,-2,-1,0
12321740,619,-8307,-89,0,-1,0,0
12321745,591,-8307,-79,0,0,0,0
12321750,573,-8309,-65,0,1,0,0
12321755,569,-8311,-33,0,2,0,0
12321760,570,-8312,2,0,2,0,0
12321765,580,-8315,39,0,3,0,0
12321770,594,-8311,71,0,3,0,0
12321775,606,-8311,112,0,2,0,0
12321780,614,-8311,147,0,1,0,0
12321785,611,-8311,192,0,1,0,0
12321790,597,-8310,234,0,0,0,0
12321795,576,-8309,270,0,-1,0,0
12321800,556,-8307,297,0,-1,0,0
12321805,541,-8306,313,0,-2,0,0
12321810,527,-8306,307,0,-2,0,0
12321815,515,-8306,296,0,-3,0,0
12321820,505,-8307,288,0,-3,0,0
12321825,487,-8311,293,0,-3,0,0
12321830,464,-8312,313,0,-4,-1,0
12321835,441,-8310,346,-1,-4,-1,0
12321840,425,-8305,386,-1,-4,-1,0
12321845,417,-8302,424,0,-6,-1,0
12321850,417,-8301,442,0,-8,0,0
12321855,429,-8301,441,0,-10,0,0
12321860,451,-8300,423,0,-11,0,0
12321865,488,-8299,394,0,-11,0,0
12321870,536,-8299,358,0,-11,0,0
12321875,583,-8298,321,0,-11,0,0
12321880,621,-8300,288,-1,-11,0,0
12321885,647,-8304,265,-1,-12,0,0
12321890,660,-8306,254,-1,-12,0,0
12321895,665,-8302,252,-1,-14,0,0
12321900,664,-8304,259,0,-16,0,0
12321905,655,-8303,270,0,-19,0,0
12321910,641,-8299,277,0,-21,0,0
12321915,617,-8300,283,0,-22,0,0
12321920,585,-8302,287,0,-22,0,0
12321925,543,-8303,288,0,-21,0,0
12321930,485,-8304,282,0,-19,0,0
12321935,415,-8306,277,0,-16,-1,0
12321940,340,-8309,260,-1,-12,-1,0
12321945,266,-8307,249,-1,-8,-1,0
12321950,210,-8308,242,-1,-4,-1,0
12321955,178,-8306,238,-1,-1,-1,0
12321960,181,-8308,239,-1,1,-1,0
12321965,215,-8310,235,-1,2,-1,0
12321970,269,-8314,224,-1,2,-1,0
12321975,331,-8312,223,-1,3,-1,0
12321980,395,-8313,223,-1,3,-1,0
12321985,447,-8310,225,-1,3,-1,0
12321990,480,-8306,228,-1,4,-1,0
12321995,492,-8302,227,-1,3,-1,0
12322000,490,-8302,224,-1,3,-1,0
12322005,483,-8304,216,-1,4,-1,0
12322010,480,-8307,204,-1,4,-1,0
12322015,491,-8309,193,-1,4,-1,0
12322020,519,-8310,189,-1,5,0,0
12322025,561,-8308,195,-1,5,0,0
12322030,605,-8307,213,-1,4,0,0
12322035,646,-8306,237,-1,4,-1,0
12322040,674,-8305,256,-1,2,-1,0
12322045,687,-8302,274,-1,1,-1,0
12322050,684,-8302,282,-1,-1,-1,0
12322055,665,-8300,290,-1,-2,0,0
12322060,638,-8299,288,-1,-2,0,0
12322065,612,-8298,274,-1,-2,0,0
12322070,584,-8298,256,-1,-2,0,0
12322075,564,-8299,222,-1,-2,0,0
12322081,546,-8300,200,-1,0,0,0
12322085,530,-8299,187,-1,0,0,0
12322090,527,-8302,173,-1,0,0,0
12322096,523,-8303,180,-1,0,0,0
12322100,511,-8304,178,-1,-1,0,0
12322105,497,-8304,183,-1,-1,0,0
12322110,484,-8302,192,-1,-1,0,0
12322115,462,-8303,191,-1,-1,0,0
12322121,444,-8307,191,-1,-1,0,0
12322125,432,-8310,183,-1,0,0,0
12322130,427,-8310,177,-1,0,0,0
12322135,427,-8308,178,-1,0,0,0
12322140,437,-8306,191,-1,0,0,0
12322146,451,-8303,207,-1,0,0,0
12322150,462,-8304,222,-1,-1,0,0
12322156,470,-8304,235,-1,-1,-1,0
12322160,469,-8302,245,-1,-1,-1,0
12322165,462,-8301,242,-1,-2,-1,0
12322170,451,-8298,238,-1,-2,-1,0
12322175,439,-8298,235,-1,-2,-1,0
12322180,429,-8298,238,-1,-3,-1,0
12322185,422,-8298,239,-1,-3,-1,0
12322190,409,-8299,242,-1,-3,-1,0
12322195,397,-8301,245,-1,-3,-1,0
12322200,383,-8300,241,-1,-2,-1,0
12322205,369,-8302,231,-1,-1,-1,0
12322210,357,-8304,213,-1,0,-1,0
12322215,347,-8307,193,-1,1,-1,0
12322220,346,-8309,174,-1,1,-1,0
12322226,357,-8307,160,-1,1,-1,0
12322231,378,-8304,148,-1,2,-1,0
12322236,412,-8304,140,-1,2,-1,0
12322240,453,-8304,133,-1,1,-1,0
12322245,493,-8305,126,-1,1,-1,0
12322250,528,-8305,127,-1,0,-1,0
12322256,560,-8301,123,-1,-1,-1,0
12322260,583,-8300,128,-1,-1,-1,0
12322265,591,-8297,137,-1,-2,-1,0
12322270,594,-8296,152,-1,-2,-1,0
12322275,595,-8297,161,-1,-3,-1,0
12322281,595,-8297,169,-1,-3,-1,0
12322285,589,-8297,167,0,-4,-1,0
12322290,585,-8297,164,0,-4,-1,0
12322296,587,-8300,155,0,-4,-1,0
12322301,593,-8300,144,0,-5,-1,0
12322305,598,-8298,129,0,-5,-1,0
12322311,596,-8296,108,0,-6,-1,0
12322316,586,-8297,96,0,-6,-1,0
12322320,568,-8297,79,0,-5,-1,0
12322325,542,-8296,70,0,-4,-1,0
12322331,515,-8295,67,0,-3,-1,0
12322335,495,-8295,76,0,-2,-1,0
12322341,476,-8299,96,0,-1,-1,0
12322345,464,-8301,120,0,-1,-1,0
12322351,459,-8302,137,0,0,-1,0
12322355,455,-8303,153,0,0,-1,0
12322360,456,-8303,165,0,1,-1,0
12322366,453,-8304,171,0,1,-1,0
12322370,455,-8306,176,0,2,-1,0
12322375,463,-8305,183,0,2,-1,0
12322381,476,-8301,191,0,3,-1,0
12322386,494,-8300,199,0,3,-1,0
12322391,519,-8303,203,0,4,-1,0
12322396,542,-8305,204,0,4,0,0
12322401,569,-8304,208,0,5,-1,0
12322406,600,-8304,214,0,5,-1,0
12322411,624,-8301,219,0,4,0,0
12322416,648,-8299,217,0,2,0,0
12322421,658,-8297,212,0,0,0,0
12322426,664,-8293,206,0,-1,0,0
12322431,665,-8293,203,0,-2,0,0
12322436,656,-8292,197,0,-3,0,0
12322441,640,-8290,186,0,-3,0,0
12322446,621,-8290,174,0,-3,0,0
12322451,604,-8291,158,0,-2,0,0
12322456,590,-8292,144,0,-2,0,0
12322461,580,-8294,129,0,-1,0,0
12322466,575,-8297,120,0,-1,0,0
12322471,575,-8301,124,0,0,0,0
12322476,576,-8301,128,0,0,0,0
12322481,579,-8300,143,0,0,0,0
12322486,582,-8299,163,0,1,0,0
12322491,585,-8297,197,0,1,0,0
12322496,582,-8299,238,0,1,0,0
12322501,579,-8303,276,0,2,0,0
12322506,576,-8304,311,0,2,0,0
12322511,571,-8304,344,0,2,0,0
12322516,562,-8303,354,0,3,0,0
12322521,555,-8304,346,0,4,0,0
12322526,546,-8305,326,0,4,0,0
12322531,539,-8303,298,0,4,0,0
12322536,538,-8301,274,0,4,0,0
12322541,531,-8301,251,0,4,0,0
12322546,525,-8300,235,0,3,0,0
12322551,514,-8302,232,0,2,0,0
12322556,502,-8300,242,0,2,0,0
12322561,486,-8297,265,-1,2,0,0
12322566,469,-8298,294,0,2,0,0
12322571,452,-8299,318,0,3,0,0
12322576,438,-8302,326,0,4,0,0
12322581,427,-8301,328,-1,5,0,0
12322586,420,-8301,328,-1,5,0,0
12322591,419,-8304,318,-1,6,0,0
12322596,425,-8308,309,-1,6,0,0
12322601,434,-8309,309,-1,5,0,0
12322606,442,-8311,323,-1,5,0,0
12322611,448,-8308,334,-1,4,0,0
12322616,451,-8306,346,-1,3,0,0
12322621,457,-8305,371,-1,2,-1,0
12322626,457,-8305,392,-1,1,-1,0
12322631,454,-8307,413,-1,1,-1,0
12322636,445,-8306,438,-1,0,-1,0
12322641,438,-8306,459,-1,0,-1,0
12322646,431,-8305,480,-1,0,-1,0
12322651,425,-8304,494,-1,0,-1,0
12322656,419,-8304,492,-1,0,-1,0
12322661,413,-8304,476,-1,0,-1,0
12322666,411,-8304,457,-2,1,-1,0
12322671,416,-8304,431,-2,1,-1,0
12322676,428,-8305,405,-2,1,-1,0
12322681,442,-8305,381,-2,1,-1,0
12322686,457,-8306,366,-2,1,-1,0
12322691,469,-8306,357,-2,1,-1,0
12322696,479,-8306,351,-2,0,-1,0
12322701,484,-8304,338,-2,0,-1,0
12322706,482,-8304,323,-2,0,-1,0
12322711,471,-8307,297,-2,0,-1,0
12322716,455,-8308,270,-2,-1,-1,0
12322721,437,-8308,242,-2,-1,-1,0
12322726,428,-8309,219,-2,0,-1,0
12322731,427,-8309,206,-2,0,-1,0
12322736,434,-8311,192,-2,0,-1,0
12322741,453,-8310,189,-2,1,-1,0
12322746,479,-8310,183,-2,1,-1,0
12322751,506,-8308,174,-2,1,-1,0
12322756,532,-8307,168,-2,1,-1,0
12322761,553,-8307,160,-2,0,-1,0
12322766,568,-8307,156,-2,-1,-1,0
12322771,570,-8307,151,-2,-2,-1,0
12322776,570,-8307,146,-2,-2,-1,0
12322781,560,-8307,138,-2,-2,-1,0
12322786,547,-8308,128,-2,-2,-1,0
12322791,536,-8309,112,-1,-2,-1,0
12322796,526,-8310,83,-1,-2,-1,0
12322801,517,-8310,52,-1,-1,-1,0
12322806,514,-8311,23,-1,-1,-1,0
12322811,519,-8311,-1,-1,-1,-1,0
12322816,527,-8309,-15,-1,0,-1,0
12322821,541,-8309,-18,-1,-1,-1,0
12322826,559,-8306,-17,-1,0,-1,0
12322831,579,-8303,-6,-1,0,-1,0
12322836,600,-8301,6,-1,-1,-1,0
12322841,619,-8303,11,-1,-1,-1,0
12322846,635,-8305,17,-1,-1,-1,0
12322851,648,-8306,19,-1,-1,-1,0
12322856,656,-8306,21,-1,-1,-1,0
12322861,660,-8306,24,-1,-1,-1,0
12322866,655,-8307,30,-1,-1,-1,0
12322871,643,-8311,40,-1,-2,-1,0
12322876,625,-8311,55,-1,-2,0,0
12322881,613,-8312,78,-1,-2,0,0
12322886,596,-8312,92,-1,-2,-1,0
12322891,582,-8311,106,-1,-2,0,0
12322896,569,-8307,112,-1,-2,0,0
12322901,559,-8306,104,-1,-2,0,0
12322906,550,-8304,97,-1,-2,0,0
12322911,539,-8305,87,-1,-2,0,0
12322916,529,-8303,77,-1,-1,-1,0
12322921,519,-8307,67,-1,-1,-1,0
12322926,509,-8306,67,-1,-1,-1,0
12322931,494,-8306,71,-1,-1,-1,0
12322936,475,-8306,80,-1,-1,-1,0
12322941,460,-8307,92,-1,0,-1,0
12322946,449,-8307,104,-1,0,-1,0
12322951,440,-8306,126,-1,0,-1,0
12322956,429,-8308,150,-1,0,-1,0
12322961,424,-8311,171,-1,0,-1,0
12322966,422,-8310,186,-1,0,-1,0
12322971,424,-8309,203,-1,0,-1,0
12322976,430,-8308,216,-1,-1,-1,0
12322981,436,-8308,216,-1,-1,-1,0
12322986,445,-8308,217,-1,-1,-1,0
12322991,450,-8310,213,-1,-1,-1,0
12322996,456,-8311,202,-1,-1,-1,0
12323001,457,-8310,191,-1,-1,-1,0
12323006,458,-8310,186,-1,0,-1,0
12323011,460,-8311,178,-1,0,-1,0
12323016,463,-8311,172,-1,0,-1,0
12323021,465,-8310,165,-1,0,-1,0
12323026,469,-8313,160,-1,0,-1,0
12323031,474,-8315,155,-1,0,-1,0
12323036,486,-8314,156,-1,0,-1,0
12323041,501,-8314,156,-1,0,-1,0
12323046,517,-8312,157,-1,0,-1,0
12323051,533,-8309,161,-1,0,-1,0
12323056,547,-8312,161,-1,-1,-1,0
12323061,558,-8311,156,-1,-1,-1,0
12323066,567,-8310,154,-1,-1,-1,0
12323071,573,-8309,148,-1,-1,-1,0
12323076,572,-8308,143,-1,-1,-1,0
12323081,565,-8308,132,-1,-1,-1,0
12323086,562,-8309,124,-1,-1,-1,0
12323091,559,-8311,118,-1,-1,-1,0
12323096,556,-8311,115,-1,-1,-1,0
12323101,553,-8308,108,-1,0,-1,0
12323106,548,-8305,102,-1,0,-1,0
12323111,548,-8302,97,-1,0,-1,0
12323116,550,-8301,100,-1,0,-1,0
12323121,551,-8300,101,-1,0,-1,0
12323126,553,-8301,97,0,0,-1,0
12323131,558,-8303,99,-1,0,-1,0
12323136,564,-8305,104,-1,0,-1,0
12323141,568,-8305,116,-1,0,-1,0
12323146,574,-8305,140,-1,0,-1,0
12323151,581,-8302,171,-1,0,-1,0
12323156,584,-8302,202,-1,0,-1,0
12323161,592,-8303,230,-1,-1,-1,0
12323166,601,-8303,253,-1,-1,-1,0
12323171,609,-8304,264,-1,-1,-1,0
12323176,615,-8303,266,-1,-1,-1,0
12323181,620,-8308,260,-1,-1,-1,0
12323186,619,-8307,249,-1,-1,-1,0
12323191,613,-8306,230,-1,-1,-1,0
12323196,600,-8308,210,-1,-1,-1,0
12323201,587,-8307,201,-1,-1,-1,0
12323206,576,-8303,194,-1,-1,-1,0
12323211,560,-8303,188,-1,-1,-1,0
12323216,554,-8300,183,-1,-1,-1,0
12323221,548,-8296,186,-1,-1,-1,0
12323226,545,-8295,178,-1,-1,-1,0
12323231,549,-8295,171,-1,-1,-1,0
12323236,556,-8296,161,-1,-1,-1,0
12323241,566,-8295,148,-1,-1,-1,0
12323246,573,-8296,134,-1,0,-1,0
12323251,581,-8299,125,-1,0,-1,0
12323256,583,-8303,114,-1,0,-1,0
12323261,583,-8304,108,-1,0,-1,0
12323266,588,-8305,107,-1,0,-1,0
12323271,592,-8304,110,-1,0,-1,0
12323276,590,-8301,113,-1,0,-1,0
12323281,588,-8298,115,-1,0,-1,0
12323286,586,-8297,120,-1,0,-1,0
12323291,586,-8299,116,-1,0,-1,0
12323296,584,-8299,108,-1,0,-1,0
12323301,582,-8301,102,-1,0,-1,0
12323306,579,-8298,88,-1,-1,-1,0
12323311,577,-8298,71,0,0,-1,0
12323316,571,-8300,57,0,0,-1,0
12323321,562,-8299,43,0,-1,-1,0
12323326,552,-8300,22,0,-1,-1,0
12323331,542,-8303,6,0,-1,-1,0
12323336,530,-8305,-7,0,-1,-1,0
12323341,522,-8307,-16,0,-1,-1,0
12323346,519,-8308,-16,0,-1,-1,0
12323351,522,-8308,-8,0,-1,-1,0
12323356,529,-8310,1,0,-1,-1,0
12323361,537,-8310,13,0,0,-1,0
12323366,543,-8307,24,0,0,-1,0
12323371,548,-8309,35,0,0,-1,0
12323376,549,-8308,37,0,0,-1,0
12323381,545,-8308,32,0,-1,-1,0
12323386,538,-8308,38,0,-1,-1,0
12323391,530,-8307,44,0,-1,-1,0
12323396,526,-8307,47,0,-1,-1,0
12323401,524,-8304,49,0,0,-1,0
12323406,525,-8305,53,0,0,-1,0
12323411,529,-8305,64,0,-1,-1,0
12323416,533,-8308,85,0,0,-1,0
12323421,537,-8308,113,0,0,-1,0
12323426,543,-8306,142,0,-1,-1,0
12323431,543,-8307,176,0,-1,-1,0
12323436,541,-8307,200,0,-1,-1,0
12323441,532,-8309,217,0,0,-1,0
12323446,526,-8311,224,0,0,-1,0
12323451,522,-8312,216,0,0,-1,0
12323456,526,-8314,199,0,0,-1,0
12323461,535,-8314,186,0,0,-1,0
12323466,550,-8313,177,0,0,-1,0
12323471,570,-8312,177,0,0,-1,0
12323476,589,-8311,184,0,0,-1,0
12323481,611,-8312,203,0,0,-1,0
12323486,629,-8310,228,0,-1,-1,0
12323491,642,-8309,252,0,-1,-1,0
12323496,653,-8309,274,0,-2,-1,0
12323501,656,-8311,290,0,-2,-1,0
12323506,654,-8311,300,0,-2,-1,0
12323511,646,-8310,301,0,-2,-1,0
12323516,638,-8311,304,0,-2,-1,0
12323521,632,-8307,303,0,-2,-1,0
12323526,629,-8309,297,-1,-2,-1,0
12323531,629,-8310,297,-1,-2,-1,0
12323536,624,-8309,300,-1,-2,-1,0
12323541,617,-8311,307,-1,-2,-1,0
12323546,600,-8311,313,-1,-1,-1,0
12323551,578,-8311,313,-1,-1,-1,0
12323556,548,-8311,310,-1,0,-1,0
12323561,508,-8311,296,-1,0,-1,0
12323566,469,-8311,280,-1,0,-1,0
12323571,442,-8312,262,-1,1,-1,0
12323576,431,-8313,239,-1,1,-1,0
12323581,436,-8313,218,-1,2,-1,0
12323586,456,-8312,202,-1,2,-1,0
12323591,489,-8314,197,-1,2,-1,0
12323596,523,-8314,210,-1,2,-1,0
12323601,553,-8312,234,-1,1,-1,0
12323606,577,-8309,273,-1,1,-1,0
12323611,595,-8307,311,-1,0,-1,0
12323616,603,-8303,339,-1,-2,-1,0
12323621,599,-8301,349,-1,-2,-1,0
12323626,587,-8302,338,-1,-2,-1,0
12323631,575,-8305,303,-1,-2,-1,0
12323636,562,-8308,256,-1,-2,-1,0
12323641,547,-8310,201,-1,-2,-1,0
12323646,537,-8312,153,-1,-1,-1,0
12323651,533,-8311,116,-1,-1,-1,0
12323656,530,-8311,87,-1,-1,-1,0
12323661,530,-8312,77,-1,-1,-1,0
12323666,536,-8313,70,-1,-1,-1,0
12323671,546,-8312,74,-1,-1,-1,0
12323676,555,-8310,81,-1,-1,-1,0
12323681,567,-8310,90,-1,-1,-1,0
12323686,575,-8310,97,-1,-2,-1,0
12323691,578,-8309,109,-1,-2,-1,0
12323696,579,-8309,116,-1,-2,-1,0
12323701,577,-8307,117,-1,-2,-1,0
12323706,569,-8307,109,-1,-2,-1,0
12323711,562,-8305,91,-1,-2,-1,0
12323716,557,-8306,64,-1,-2,-1,0
12323721,554,-8302,40,-1,-2,-1,0
12323726,552,-8303,14,-1,-2,-1,0
12323731,549,-8302,-9,-1,-1,-1,0
12323736,549,-8299,-25,0,-1,-1,0
12323741,549,-8298,-32,0,0,-1,0
12323746,550,-8302,-36,0,0,-1,0
12323751,552,-8304,-38,0,0,-1,0
12323756,551,-8304,-27,0,0,-1,0
12323761,552,-8303,-16,0,0,-1,0
12323766,555,-8303,3,0,0,-1,0
12323771,566,-8301,20,0,0,-1,0
12323776,576,-8299,41,0,0,-1,0
12323781,588,-8298,52,0,0,-1,0
12323786,602,-8299,60,0,0,-1,0
12323791,610,-8300,67,0,0,-1,0
12323796,614,-8302,68,0,0,-1,0
12323801,610,-8300,76,0,0,-1,0
12323806,609,-8300,90,0,0,-1,0
12323811,604,-8300,105,0,0,-1,0
12323816,598,-8304,126,0,0,-1,0
12323821,593,-8305,145,0,0,-1,0
12323826,592,-8305,165,0,0,-1,0
12323831,585,-8308,191,0,0,-1,0
12323836,585,-8313,204,0,2,-1,0
12323841,615,-8320,260,-1,6,0,0
12323846,619,-8318,314,-1,4,0,0
12323851,664,-8315,344,-1,3,-1,0
12323856,714,-8314,373,-1,5,-1,0
12323861,760,-8310,369,0,4,-1,0
12323866,777,-8307,333,0,1,-1,0
12323871,769,-8311,281,0,-1,-1,0
12323876,748,-8315,223,-1,-1,-1,0
12323881,717,-8314,182,-1,-1,-1,0
12323886,691,-8310,172,-1,-2,-1,0
12323891,666,-8307,175,-1,-1,-1,0
12323896,643,-8305,191,-1,-1,-1,0
12323901,645,-8308,204,-1,-1,0,0
12323906,656,-8309,211,-1,-1,0,0
12323911,665,-8310,210,0,-1,0,0
12323916,679,-8310,198,-1,-1,0,0
12323921,683,-8311,196,-1,0,0,0
12323926,674,-8313,194,-1,-1,0,0
12323931,668,-8312,189,-1,0,0,0
12323936,654,-8311,189,-1,0,0,0
12323941,646,-8310,195,-1,-1,0,0
12323946,644,-8311,205,-1,0,0,0
12323951,648,-8308,213,-1,0,0,0
12323956,654,-8306,213,-1,-1,0,0
12323961,667,-8303,216,-1,0,0,0
12323966,675,-8303,219,-1,-1,0,0
12323971,682,-8304,214,-1,-1,0,0
12323976,684,-8304,202,-1,-1,0,0
12323981,680,-8304,191,-1,-1,0,0
12323986,674,-8307,175,-1,-1,0,0
12323991,662,-8308,160,-1,-1,0,0
12323996,653,-8311,149,-1,-1,0,0
12324001,646,-8308,140,-1,-1,0,0
12324006,643,-8310,136,-1,-1,0,0
12324011,644,-8309,144,-1,-1,0,0
12324016,647,-8309,151,-1,-1,0,0
12324021,649,-8307,163,-1,-1,0,0
12324026,650,-8305,177,-1,-1,0,0
12324031,647,-8303,187,-1,-1,0,0
12324036,639,-8303,198,-1,-1,0,0
12324041,633,-8304,200,-1,-1,0,0
12324046,619,-8305,200,-1,-2,0,0
12324051,606,-8308,194,-1,-2,0,0
12324056,591,-8310,190,-1,-1,0,0
12324061,579,-8308,185,-1,-1,0,0
12324066,565,-8308,185,-1,-1,0,0
12324071,549,-8309,190,-1,0,0,0
12324076,531,-8307,204,-1,0,0,0
12324081,514,-8306,213,-1,1,-1,0
12324086,497,-8305,218,-1,1,-1,0
12324091,473,-8305,217,-1,0,-1,0
12324096,451,-8307,215,-1,0,-1,0
12324101,435,-8309,200,-1,0,-1,0
12324106,422,-8312,184,-1,-1,-1,0
12324111,421,-8313,164,-1,-1,-1,0
12324116,425,-8311,138,-1,-1,-1,0
12324121,439,-8312,119,-1,-1,-1,0
12324126,458,-8313,109,-1,-1,-1,0
12324131,472,-8309,112,-1,-1,-1,0
12324136,481,-8308,122,-1,-1,-1,0
12324141,490,-8304,136,-1,-1,-1,0
12324146,489,-8303,150,-1,-1,-1,0
12324151,481,-8304,156,-1,-1,-1,0
12324156,471,-8304,154,-1,-1,-1,0
12324161,462,-8305,140,-1,-1,-1,0
12324166,456,-8306,118,-1,-1,-1,0
12324171,454,-8306,90,-1,-1,-1,0
12324176,457,-8309,56,-1,-1,-1,0
12324181,464,-8309,23,-1,-1,-1,0
12324186,474,-8307,-10,-1,-1,-1,0
12324191,488,-8305,-37,-1,-1,-1,0
12324196,509,-8308,-58,-1,-1,-1,0
12324201,531,-8308,-77,-1,-1,-1,0
12324206,550,-8306,-97,0,-1,-1,0
12324211,566,-8307,-115,0,-1,-1,0
12324216,571,-8308,-126,0,-1,-1,0
12324221,567,-8311,-130,0,0,-1,0
12324226,573,-8312,-128,0,0,-1,0
12324231,582,-8311,-113,0,0,-1,0
12324236,595,-8309,-94,0,0,-1,0
12324241,628,-8308,-69,0,1,-1,0
12324246,666,-8304,-45,0,1,-1,0
12324251,701,-8301,-27,0,0,-1,0
12324256,733,-8300,-12,0,0,-1,0
12324261,754,-8301,5,0,0,-1,0
12324266,758,-8302,13,0,-1,-1,0
12324271,757,-8304,26,0,0,-1,0
12324276,741,-8305,42,0,-1,-1,0
12324281,717,-8305,62,0,-1,-1,0
12324286,692,-8304,85,0,0,-1,0
12324291,669,-8302,101,0,0,-1,0
12324296,651,-8302,112,0,-1,-1,0
12324301,638,-8303,116,0,0,-1,0
12324306,630,-8303,116,0,0,-1,0
12324311,628,-8304,113,0,0,-1,0
12324316,629,-8305,110,0,0,-1,0
12324321,629,-8303,112,0,0,-1,0
12324326,630,-8302,119,0,0,-1,0
12324331,629,-8302,127,0,0,-1,0
12324336,626,-8301,137,0,0,-1,0
12324341,622,-8299,148,0,0,-1,0
12324346,614,-8300,166,0,0,-1,0
12324351,606,-8302,187,0,0,-1,0
12324356,602,-8304,213,0,0,-1,0
12324361,598,-8303,240,0,0,-1,0
12324366,598,-8303,264,0,0,-1,0
12324371,604,-8302,283,0,0,-1,0
12324376,609,-8300,296,0,0,-1,0
12324381,609,-8302,299,0,-1,-1,0
12324386,606,-8303,295,0,-1,-1,0
12324391,598,-8303,285,0,-1,-1,0
12324396,590,-8304,272,0,-2,-1,0
12324401,580,-8305,259,-1,-1,-1,0
12324406,575,-8310,244,-1,-1,-1,0
12324411,576,-8311,233,-1,-1,-1,0
12324416,577,-8309,227,-1,-1,-1,0
12324421,578,-8308,219,-1,-1,-1,0
12324426,577,-8310,212,-1,-1,-1,0
12324431,575,-8311,206,-1,-1,-1,0
12324436,569,-8311,201,-1,-1,-1,0
12324441,560,-8309,192,-1,-1,-1,0
12324446,557,-8313,183,-1,-1,-1,0
12324451,556,-8314,176,-1,-1,-1,0
12324456,562,-8315,165,-1,-1,-1,0
12324461,573,-8313,156,-1,-1,-1,0
12324466,583,-8311,154,-1,-1,-1,0
12324471,597,-8311,148,-1,0,-1,0
12324476,616,-8310,141,-1,0,-1,0
12324481,649,-8310,136,-1,0,-1,0
12324486,688,-8307,136,-1,0,-1,0
12324491,723,-8306,140,-1,0,-1,0
12324496,753,-8302,144,-1,0,-1,0
12324501,776,-8299,144,-1,0,-1,0
12324506,777,-8297,138,-1,0,-1,0
12324511,756,-8297,135,-1,0,-1,0
12324516,723,-8298,126,-1,0,-1,0
12324521,683,-8298,122,-1,0,-1,0
12324526,643,-8301,119,-1,0,-1,0
12324531,610,-8304,118,-1,0,-1,0
12324536,590,-8306,133,-1,1,-1,0
12324541,584,-8305,142,-1,1,-1,0
12324546,597,-8305,142,-1,1,-1,0
12324551,619,-8305,132,0,2,-1,0
12324556,642,-8305,124,0,3,-1,0
12324561,665,-8307,111,0,4,-1,0
12324566,683,-8308,93,-1,4,-1,0
12324571,689,-8308,82,-1,4,-1,0
12324576,685,-8309,76,-1,4,-1,0
12324581,671,-8309,69,0,4,-1,0
12324586,660,-8307,66,0,3,-1,0
12324591,650,-8305,67,0,3,-1,0
12324596,647,-8305,67,0,4,-1,0
12324601,648,-8302,67,0,4,-1,0
12324606,657,-8301,74,0,5,-1,0
12324611,667,-8301,75,0,6,-1,0
12324616,675,-8303,76,0,7,-1,0
12324621,679,-8303,84,0,8,-1,0
12324626,677,-8302,92,0,9,-1,0
12324631,671,-8303,95,0,10,-1,0
12324636,660,-8305,108,0,10,-1,0
12324641,646,-8305,123,-1,10,-1,0
12324646,632,-8304,136,-1,10,-1,0
12324651,620,-8303,147,0,9,-1,0
12324656,615,-8306,156,0,9,-1,0
12324661,619,-8307,156,0,9,-1,0
12324666,630,-8307,154,0,9,-1,0
12324671,646,-8308,147,0,9,-1,0
12324676,662,-8308,137,0,9,-1,0
12324681,671,-8309,127,0,9,-1,0
12324686,672,-8308,126,0,8,-1,0
12324691,669,-8307,125,0,7,-1,0
12324696,660,-8306,126,0,6,-1,0
12324701,649,-8307,129,0,6,-1,0
12324706,640,-8308,122,0,6,-1,0
12324711,635,-8306,129,0,6,-1,0
12324716,634,-8306,129,0,6,0,0
12324721,641,-8304,130,0,7,-1,0
12324726,647,-8303,126,0,7,-1,0
12324731,644,-8303,124,0,7,-1,0
12324736,632,-8299,112,0,7,-1,0
12324741,615,-8299,97,0,7,-1,0
12324746,600,-8301,81,0,7,-1,0
12324751,592,-8300,66,0,7,-1,0
12324756,596,-8299,58,0,6,0,0
12324761,611,-8299,51,0,6,-1,0
12324766,635,-8300,53,0,6,-1,0
12324771,657,-8301,59,0,5,-1,0
12324776,671,-8301,73,0,4,-1,0
12324781,674,-8303,93,0,2,-1,0
12324786,671,-8304,116,0,1,-1,0
12324791,662,-8304,135,0,0,-1,0
12324796,652,-8303,150,0,-1,0,0
12324801,652,-8302,167,0,-1,0,0
12324806,659,-8303,179,0,-2,0,0
12324811,675,-8306,187,0,-2,0,0
12324816,697,-8309,184,0,-2,0,0
12324821,716,-8310,179,0,-2,0,0
12324826,730,-8307,174,0,-3,0,0
12324831,738,-8309,171,0,-3,0,0
12324836,733,-8309,171,0,-4,0,0
12324841,723,-8310,177,0,-4,0,0
12324846,707,-8309,182,0,-4,0,0
12324851,694,-8308,178,0,-4,0,0
12324856,684,-8304,169,0,-5,0,0
12324861,671,-8305,158,0,-5,0,0
12324866,657,-8306,143,0,-6,0,0
12324871,646,-8305,137,0,-6,0,0
12324876,638,-8304,143,0,-6,0,0
12324881,626,-8304,152,0,-6,-1,0
12324886,612,-8302,171,0,-6,-1,0
12324891,599,-8301,194,0,-6,-1,0
12324896,583,-8303,213,0,-6,-1,0
12324901,569,-8304,230,0,-5,-1,0
12324906,555,-8307,246,0,-5,-1,0
12324911,547,-8309,262,0,-6,-1,0
12324916,545,-8312,273,0,-6,-1,0
12324921,547,-8310,278,0,-6,-1,0
12324926,551,-8310,276,0,-7,-1,0
12324931,555,-8309,270,0,-7,-1,0
12324936,560,-8306,255,0,-7,-1,0
12324941,564,-8304,241,0,-6,-1,0
12324946,566,-8306,226,0,-6,-1,0
12324951,567,-8305,218,-1,-6,-1,0
12324956,567,-8299,216,-1,-5,-1,0
12324961,564,-8299,222,-1,-5,-1,0
12324966,566,-8300,221,-1,-4,-1,0
12324971,571,-8300,231,-1,-3,-1,0
12324976,576,-8300,238,-1,-3,-1,0
12324981,585,-8302,237,-1,-3,-1,0
12324986,593,-8305,229,-1,-4,-1,0
12324991,598,-8305,218,-1,-4,-1,0
12324996,599,-8303,200,-1,-4,-1,0
12325001,599,-8303,187,-1,-5,-1,0
12325006,594,-8304,173,-1,-4,-1,0
12325011,582,-8304,166,-1,-4,-1,0
12325016,566,-8306,161,-1,-4,-1,0
12325021,546,-8306,156,-1,-3,-1,0
12325026,529,-8310,156,-1,-2,-1,0
12325031,514,-8312,157,-1,-2,-1,0
12325036,506,-8312,157,-1,-2,-1,0
12325041,504,-8313,151,-1,-2,-1,0
12325046,510,-8310,145,-1,-2,-1,0
12325051,524,-8308,149,-1,-1,-1,0
12325056,542,-8306,154,-1,-1,-1,0
12325061,562,-8302,161,-1,-1,-1,0
12325066,586,-8302,170,-1,-1,-1,0
12325071,607,-8305,181,-1,-2,-1,0
12325076,625,-8306,192,-1,-2,-1,0
12325081,640,-8305,195,-1,-3,-1,0
12325086,657,-8307,198,-1,-4,-1,0
12325091,674,-8309,198,-1,-5,-1,0
12325096,689,-8310,195,-1,-6,-1,0
12325101,701,-8310,184,-1,-6,-1,0
12325106,711,-8307,172,-1,-7,-1,0
12325111,713,-8305,165,-1,-7,-1,0
12325116,709,-8305,155,-1,-7,-1,0
12325121,699,-8306,145,-1,-7,-1,0
12325126,684,-8307,137,-1,-7,-1,0
12325131,672,-8309,145,-1,-6,-1,0
12325136,663,-8309,155,-1,-6,-1,0
12325141,661,-8308,165,-1,-5,-1,0
12325146,671,-8308,171,-1,-3,-1,0
12325151,684,-8311,173,-1,-3,-1,0
12325156,696,-8312,169,-1,-2,-1,0
12325161,711,-8312,157,-1,-2,-1,0
12325166,722,-8314,145,-1,-2,-1,0
12325171,731,-8315,140,-1,-2,-1,0
12325176,734,-8314,135,-1,-2,-1,0
12325181,737,-8316,134,-1,-3,-1,0
12325186,741,-8315,135,-1,-3,-1,0
12325191,746,-8314,132,-1,-3,-1,0
12325196,753,-8315,128,-1,-4,-1,0
12325201,759,-8315,124,-1,-4,-1,0
12325206,766,-8315,124,-1,-5,-1,0
12325211,773,-8312,126,-1,-5,-1,0
12325216,781,-8309,130,-1,-5,-1,0
12325221,783,-8306,131,-1,-5,-1,0
12325226,781,-8305,137,-1,-5,-1,0
12325231,777,-8303,143,-1,-5,-1,0
12325236,769,-8302,151,-1,-5,0,0
12325241,760,-8302,157,-1,-5,-1,0
12325246,745,-8302,158,-1,-5,-1,0
12325251,726,-8301,161,-1,-5,-1,0
12325256,707,-8301,160,-1,-4,0,0
12325261,692,-8301,157,-1,-4,0,0
12325266,679,-8301,147,-1,-3,0,0
12325271,668,-8300,137,-1,-2,-1,0
12325276,663,-8300,127,-1,-2,-1,0
12325281,662,-8301,115,-1,-1,0,0
12325286,667,-8302,107,-1,-1,0,0
12325291,673,-8306,105,-1,-1,0,0
12325296,683,-8305,103,-1,-1,0,0
12325301,691,-8306,102,-1,-2,0,0
12325306,699,-8305,100,-1,-2,0,0
12325311,702,-8305,107,-1,-2,0,0
12325316,699,-8305,111,-1,-3,-1,0
12325321,693,-8306,115,-1,-3,0,0
12325326,687,-8306,114,-1,-3,0,0
12325331,680,-8304,112,-1,-3,0,0
12325336,672,-8303,116,-1,-3,0,0
12325341,669,-8303,123,-1,-3,0,0
12325346,671,-8302,126,-1,-3,0,0
12325351,677,-8303,128,0,-3,0,0
12325356,685,-8304,124,0,-3,0,0
12325361,686,-8303,125,0,-3,0,0
12325366,683,-8303,126,-1,-4,0,0
12325371,673,-8302,124,0,-3,0,0
12325376,660,-8301,124,-1,-3,0,0
12325381,645,-8301,131,-1,-3,-1,0
12325386,632,-8302,134,-1,-3,-1,0
12325391,617,-8304,134,0,-2,-1,0
12325396,607,-8306,130,0,-2,-1,0
12325401,602,-8306,125,0,-2,-1,0
12325406,601,-8306,119,0,-2,-1,0
12325411,602,-8305,109,0,-1,-1,0
12325416,607,-8304,103,0,-1,-1,0
12325421,616,-8306,100,0,-1,-1,0
12325426,625,-8304,100,0,-1,-1,0
12325431,631,-8309,101,0,-1,-1,0
12325436,636,-8309,104,0,-1,-1,0
12325441,642,-8310,109,0,-1,-1,0
12325446,646,-8307,111,0,-1,-1,0
12325451,649,-8303,113,0,-1,-1,0
12325456,657,-8302,114,0,-1,-1,0
12325461,666,-8301,112,0,-1,-1,0
12325466,675,-8302,107,0,-1,-1,0
12325471,682,-8304,106,0,-1,-1,0
12325476,686,-8303,103,0,-1,-1,0
12325481,686,-8302,100,0,-1,-1,0
12325486,688,-8304,98,0,-2,-1,0
12325491,687,-8304,101,0,-2,-1,0
12325496,685,-8305,107,0,-2,-1,0
12325501,683,-8306,111,0,-2,-1,0
12325506,684,-8303,112,0,-2,-1,0
12325511,684,-8302,107,0,-2,-1,0
12325516,679,-8301,106,0,-2,-1,0
12325521,677,-8300,104,0,-1,-1,0
12325526,676,-8300,105,0,-1,-1,0
12325531,678,-8299,103,0,-1,-1,0
12325536,683,-8296,101,0,-1,-1,0
12325541,688,-8294,99,0,-1,-1,0
12325546,695,-8295,92,0,-1,-1,0
12325551,697,-8296,87,0,-1,-1,0
12325556,696,-8296,83,0,-1,-1,0
12325561,693,-8294,84,0,-1,-1,0
12325566,687,-8296,83,0,-1,-1,0
12325571,678,-8298,85,0,-1,-1,0
12325576,669,-8299,85,0,-1,-1,0
12325581,660,-8301,86,0,-1,0,0
12325586,654,-8301,88,0,0,0,0
12325591,653,-8301,90,0,0,0,0
12325596,656,-8303,99,0,0,-1,0
12325601,659,-8302,105,0,0,0,0
12325606,663,-8301,115,0,0,-1,0
12325611,669,-8306,127,0,0,0,0
12325616,673,-8309,141,0,0,-1,0
12325621,675,-8310,151,0,0,0,0
12325626,677,-8308,158,0,0,-1,0
12325631,679,-8307,162,0,-1,-1,0
12325636,682,-8303,163,0,-1,0,0
12325641,684,-8302,157,0,-1,-1,0
12325646,689,-8306,151,0,-1,0,0
12325651,695,-8305,144,0,-1,0,0
12325656,701,-8302,148,0,-1,0,0
12325661,709,-8302,154,0,-1,0,0
12325666,713,-8303,165,0,-1,0,0
12325671,715,-8307,179,0,-1,0,0
12325676,715,-8308,187,0,-1,0,0
12325681,714,-8308,195,0,-1,0,0
12325686,709,-8306,203,0,-1,0,0
12325691,703,-8305,213,0,-1,0,0
12325696,692,-8306,217,0,-1,0,0
12325701,682,-8307,222,0,-1,0,0
12325706,677,-8308,216,0,-1,0,0
12325711,671,-8309,199,0,-1,0,0
12325716,668,-8311,186,0,-1,0,0
12325721,669,-8311,179,0,-1,0,0
12325726,670,-8310,173,0,-1,0,0
12325731,672,-8311,171,0,0,0,0
12325736,675,-8312,165,0,0,0,0
12325741,679,-8315,165,0,0,0,0
12325746,683,-8316,162,0,-1,0,0
12325751,686,-8318,160,0,-1,0,0
12325756,686,-8318,164,0,-1,0,0
12325761,683,-8314,171,0,-1,0,0
12325766,681,-8310,174,0,-1,0,0
12325771,679,-8307,180,0,-1,0,0
12325776,678,-8308,180,0,-1,0,0
12325781,672,-8307,185,0,-1,0,0
12325786,667,-8305,185,0,-1,0,0
12325791,657,-8306,178,0,-1,0,0
12325796,646,-8306,167,0,-1,0,0
12325801,634,-8304,158,0,-1,0,0
12325806,627,-8306,155,0,-1,0,0
12325811,625,-8309,153,0,-1,0,0
12325816,621,-8312,155,0,-1,-1,0
12325821,625,-8312,157,0,-1,-1,0
12325826,630,-8311,157,0,-1,-1,0
12325831,638,-8308,164,0,-1,0,0
12325836,643,-8307,168,0,-1,0,0
12325841,644,-8307,175,0,-1,0,0
12325846,644,-8308,178,0,-1,-1,0
12325851,645,-8307,182,0,-1,-1,0
12325856,646,-8306,189,0,-1,-1,0
12325861,648,-8308,191,0,-1,-1,0
12325866,647,-8310,193,0,-1,-1,0
12325871,647,-8308,194,0,-1,-1,0
12325876,647,-8309,190,0,-1,-1,0
12325881,645,-8309,180,0,-1,-1,0
12325886,645,-8311,168,0,-1,-1,0
12325891,643,-8309,158,0,-1,-1,0
12325896,644,-8309,146,0,-1,-1,0
12325901,645,-8308,145,0,-1,-1,0
12325906,645,-8307,144,0,0,-1,0
12325911,647,-8307,147,0,0,-1,0
12325916,647,-8307,153,0,0,-1,0
12325921,651,-8303,162,0,0,-1,0
12325926,655,-8301,176,0,0,-1,0
12325931,659,-8300,186,0,0,-1,0
12325936,662,-8299,194,0,-1,-1,0
12325941,662,-8301,198,0,-1,-1,0
12325946,662,-8301,200,0,-1,-1,0
12325951,665,-8301,196,0,-1,-1,0
12325956,664,-8299,189,0,-1,-1,0
12325961,663,-8302,178,0,-1,-1,0
12325966,660,-8302,166,0,-1,-1,0
12325971,661,-8299,157,0,-1,-1,0
12325976,662,-8299,152,0,-1,-1,0
12325981,664,-8301,152,-1,-1,-1,0
12325986,666,-8302,155,-1,-1,-1,0
12325991,668,-8302,157,-1,-1,-1,0
12325996,672,-8302,157,-1,-1,-1,0
12326001,674,-8305,161,-1,-1,-1,0
12326006,678,-8301,169,-1,-1,-1,0
12326011,686,-8301,177,-1,-1,-1,0
12326016,689,-8300,187,-1,-1,-1,0
12326021,689,-8298,191,-1,-1,-1,0
12326026,687,-8298,190,-1,-1,-1,0
12326031,685,-8298,188,-1,-1,-1,0
12326036,683,-8301,188,-1,-1,-1,0
12326041,681,-8302,186,-1,-1,-1,0
12326046,680,-8303,183,-1,-1,-1,0
12326051,682,-8300,187,-1,-1,-1,0
12326056,687,-8298,189,-1,-1,0,0
12326062,694,-8297,188,-1,-1,0,0
12326067,701,-8296,190,-1,-1,-1,0
12326071,706,-8297,187,-1,-1,-1,0
12326076,710,-8298,183,-1,-1,-1,0
12326082,712,-8298,180,-1,-1,0,0
12326086,709,-8299,176,-1,-1,-1,0
12326092,701,-8303,169,-1,-1,0,0
12326097,696,-8305,161,-1,-1,0,0
12326101,687,-8306,155,-1,-1,0,0
12326106,683,-8306,154,-1,-1,0,0
12326111,687,-8307,154,-1,-1,-1,0
12326117,691,-8312,155,-1,-1,0,0
12326121,694,-8310,152,-1,-1,0,0
12326127,695,-8309,145,-1,-1,0,0
12326131,694,-8310,138,-1,-1,-1,0
12326137,694,-8311,132,-1,-1,0,0
12326141,689,-8310,130,-1,-1,0,0
12326147,687,-8308,127,-1,-1,0,0
12326151,686,-8309,123,-1,-1,0,0
12326156,688,-8306,128,-1,-1,0,0
12326162,691,-8301,127,-1,-1,0,0
12326166,694,-8301,122,-1,-1,0,0
12326171,699,-8303,122,-1,-1,0,0
12326177,702,-8305,121,-1,-1,0,0
12326181,703,-8306,114,-1,-1,0,0
12326186,701,-8307,111,-1,-1,0,0
12326192,695,-8307,112,-1,-1,0,0
12326197,688,-8309,116,-1,-1,0,0
12326201,679,-8309,121,-1,-1,0,0
12326206,667,-8308,132,-1,-1,0,0
12326212,659,-8310,145,-1,-1,0,0
12326217,657,-8307,155,-1,-1,0,0
12326221,659,-8306,167,-1,-1,0,0
12326227,660,-8305,175,-1,-1,0,0
12326231,665,-8305,180,-1,-1,0,0
12326236,673,-8304,190,-1,-1,0,0
12326241,682,-8306,194,-1,-1,0,0
12326246,694,-8310,193,-1,-1,0,0
12326252,702,-8309,188,-1,-2,0,0
12326256,702,-8310,178,-1,-2,0,0
12326262,697,-8310,167,-1,-2,-1,0
12326267,688,-8310,159,-1,-3,0,0
12326271,681,-8312,155,-1,-3,0,0
12326277,670,-8312,150,-1,-3,0,0
12326281,660,-8312,152,-1,-2,0,0
12326286,655,-8311,157,-1,-2,0,0
12326292,654,-8311,166,-1,-1,0,0
12326297,657,-8310,168,-1,-1,0,0
12326301,660,-8308,173,-1,-1,0,0
12326307,664,-8307,171,-1,-1,0,0
12326312,673,-8308,163,-1,-1,0,0
12326316,680,-8310,158,-1,-1,0,0
12326322,687,-8309,149,-1,-1,0,0
12326327,693,-8308,141,-1,-1,0,0
12326332,692,-8309,137,-1,-1,0,0
12326336,686,-8309,132,-1,-1,0,0
12326341,678,-8308,129,-1,-1,0,0
12326346,672,-8307,131,-1,-1,0,0
12326352,666,-8308,132,-1,-1,0,0
12326356,656,-8309,133,0,-1,0,0
12326362,650,-8312,135,0,-1,0,0
12326367,648,-8311,137,0,-1,0,0
12326372,652,-8311,134,0,-1,0,0
12326377,656,-8314,127,0,-1,0,0
12326382,657,-8311,122,0,-1,0,0
12326386,658,-8310,123,0,-1,0,0
12326392,656,-8309,131,0,-1,-1,0
12326397,650,-8309,145,0,-1,-1,0
12326402,638,-8309,157,0,-1,-1,0
12326407,627,-8307,168,0,-1,-1,0
12326411,616,-8305,174,0,-1,-1,0
12326417,609,-8307,176,0,-1,0,0
12326422,604,-8309,173,-1,-1,-1,0
12326427,603,-8311,175,-1,-1,-1,0
12326432,607,-8313,177,0,-1,-1,0
12326437,611,-8314,172,0,-1,-1,0
12326442,615,-8312,174,0,-1,-1,0
12326447,617,-8309,176,-1,-1,-1,0
12326452,617,-8309,176,-1,0,-1,0
12326457,609,-8310,174,-1,0,-1,0
12326462,599,-8309,176,-1,0,-1,0
12326467,592,-8307,177,-1,0,-1,0
12326472,588,-8306,182,-1,0,-1,0
12326477,590,-8305,189,-1,0,-1,0
12326482,594,-8308,197,-1,0,-1,0
12326487,598,-8309,204,-1,0,-1,0
12326492,600,-8309,211,-1,-1,-1,0
12326497,600,-8306,220,-1,-1,-1,0
12326502,599,-8308,226,-1,-1,-1,0
12326507,593,-8309,229,-1,-1,-1,0
12326512,583,-8309,230,-1,-1,-1,0
12326517,572,-8307,230,-1,-1,-1,0
12326522,559,-8307,232,-1,-1,-1,0
12326527,545,-8309,231,-1,-1,-1,0
12326532,535,-8310,228,-1,-1,-1,0
12326537,526,-8313,223,-1,-1,-1,0
12326542,517,-8318,218,-1,-1,-1,0
12326547,510,-8322,211,-1,-1,-1,0
12326552,504,-8323,208,-1,-1,-1,0
12326557,502,-8321,211,-1,-1,-1,0
12326562,497,-8320,211,-1,-1,-2,0
12326567,490,-8317,209,-1,-1,-2,0
12326572,484,-8315,207,-1,-1,-2,0
12326577,479,-8316,200,-1,-1,-2,0
12326582,476,-8315,199,-1,-1,-2,0
12326587,478,-8312,198,-1,-1,-2,0
12326592,484,-8311,199,-1,-1,-2,0
12326597,489,-8308,203,-1,-1,-2,0
12326602,492,-8308,205,-1,-1,-2,0
12326607,500,-8309,203,-1,-1,-2,0
12326612,503,-8312,198,-1,-1,-2,0
12326617,508,-8313,191,-1,-1,-2,0
12326622,517,-8313,185,-1,-1,-2,0
12326627,526,-8309,172,-1,-1,-2,8
12326632,541,-8306,160,-1,-1,-2,8
12326637,556,-8304,151,-1,-1,-2,8
12326642,575,-8304,144,-1,-1,-2,8
12326647,597,-8304,141,-1,-1,-2,8
12326652,621,-8303,137,-1,-1,-2,8
12326657,643,-8304,127,-1,-1,-2,8
12326662,665,-8304,116,-1,-1,-2,8
12326667,682,-8306,97,-1,-1,-2,8
12326672,694,-8308,78,-1,-1,-2,8
12326677,701,-8307,55,-1,-1,-2,8
12326682,707,-8306,24,-1,-1,-2,8
12326687,714,-8305,-7,-1,-1,-2,8
12326692,724,-8303,-35,-1,-1,-2,8
12326697,735,-8299,-54,-1,-1,-2,8
12326702,745,-8300,-65,-1,-1,-2,8
12326707,756,-8303,-71,-1,-1,-2,8
12326712,764,-8303,-75,-1,-1,-2,8
12326717,772,-8304,-80,0,0,-2,8
12326722,774,-8302,-95,0,0,-2,8
12326727,780,-8302,-112,0,0,-2,8
12326732,790,-8304,-130,0,0,-2,8
12326737,808,-8303,-150,0,0,-2,8
12326742,839,-8302,-175,0,0,-2,8
12326747,875,-8301,-196,0,0,-2,8
12326752,920,-8300,-220,0,0,-2,8
12326757,965,-8300,-245,1,0,-1,8
12326762,1013,-8298,-266,1,0,-1,8
12326767,1060,-8294,-285,1,0,-1,8
12326772,1108,-8291,-298,1,0,-1,8
12326777,1153,-8291,-305,1,0,-1,8
12326782,1194,-8293,-309,1,0,-1,8
12326787,1242,-8293,-311,1,0,0,8
12326792,1289,-8292,-310,2,0,0,8
12326797,1333,-8290,-315,2,0,0,8
12326802,1372,-8287,-329,2,0,0,8
12326807,1399,-8285,-350,2,0,0,8
12326812,1416,-8283,-373,2,0,1,8
12326817,1422,-8282,-399,2,0,1,8
12326822,1423,-8284,-429,3,1,1,8
12326827,1426,-8287,-451,3,1,1,8
12326832,1436,-8286,-469,3,2,2,8
12326837,1455,-8285,-479,3,4,2,8
12326842,1490,-8282,-487,3,6,3,8
12326847,1540,-8281,-480,3,10,3,8
12326852,1612,-8281,-476,4,13,3,8
12326857,1706,-8278,-483,4,18,4,8
12326862,1823,-8278,-493,4,21,4,8
12326867,1960,-8277,-500,4,23,5,8
12326872,2109,-8274,-503,4,22,5,8
12326877,2264,-8265,-495,4,22,6,8
12326882,2422,-8256,-476,5,21,7,8
12326887,2572,-8250,-448,5,21,7,8
12326892,2713,-8247,-416,5,21,8,8
12326897,2831,-8240,-377,5,19,9,8
12326902,2922,-8233,-343,5,16,9,8
12326907,2979,-8225,-312,5,13,10,8
12326912,3006,-8217,-295,6,10,11,8
12326917,3008,-8209,-284,6,8,12,8
12326922,2991,-8204,-278,6,7,13,8
12326927,2962,-8200,-280,6,7,13,8
12326932,2928,-8197,-297,6,7,14,8
12326937,2899,-8192,-313,6,8,15,8
12326942,2880,-8186,-324,6,9,16,8
12326947,2866,-8177,-324,7,10,16,8
12326952,2861,-8168,-310,7,11,17,8
12326957,2867,-8161,-278,7,13,18,8
12326962,2883,-8151,-228,7,15,19,8
12326967,2902,-8139,-167,7,16,19,8
12326972,2921,-8128,-99,7,16,20,8
12326977,2931,-8114,-26,7,16,21,8
12326982,2928,-8105,51,7,16,21,8
12326987,2905,-8096,127,7,15,22,8
12326992,2858,-8085,201,7,13,23,8
12326997,2781,-8075,282,6,12,23,8
12327002,2679,-8067,371,6,11,24,8
12327007,2557,-8054,465,6,10,24,8
12327012,2426,-8043,561,6,11,25,8
12327017,2287,-8032,661,6,12,26,8
12327022,2151,-8022,747,5,14,26,8
12327027,2024,-8014,820,5,16,26,8
12327032,1907,-8008,884,5,19,27,8
12327037,1800,-7999,926,5,22,27,8
12327042,1699,-7992,955,4,25,27,8
12327047,1608,-7984,978,4,27,28,8
12327052,1528,-7975,999,4,29,28,8
12327057,1451,-7969,1027,3,29,28,8
12327062,1374,-7962,1074,3,28,29,8
12327067,1302,-7956,1140,2,27,29,8
12327072,1227,-7949,1226,2,25,29,8
12327077,1141,-7943,1335,1,22,29,8
12327082,1041,-7935,1454,1,18,29,8
12327087,919,-7929,1596,0,14,29,8
12327092,769,-7924,1751,0,10,29,8
12327097,601,-7919,1926,-1,7,29,8
12327102,426,-7915,2103,-2,4,29,8
12327107,259,-7911,2282,-3,2,29,8
12327112,98,-7908,2461,-3,-1,29,8
12327117,-56,-7905,2626,-4,-4,29,8
12327122,-204,-7905,2770,-4,-7,29,8
12327127,-345,-7905,2890,-5,-10,29,8
12327132,-482,-7905,2983,-6,-13,28,8
12327137,-628,-7905,3048,-7,-16,28,8
12327142,-788,-7903,3097,-7,-20,27,8
12327147,-981,-7905,3129,-8,-23,27,8
12327152,-1200,-7907,3156,-9,-26,26,8
12327157,-1436,-7908,3184,-10,-28,26,8
12327162,-1683,-7910,3218,-11,-29,25,8
12327167,-1926,-7917,3273,-12,-30,25,8
12327172,-2165,-7924,3343,-13,-30,24,8
12327177,-2390,-7930,3440,-14,-29,24,8
12327182,-2595,-7936,3566,-15,-28,23,8
12327187,-2774,-7938,3713,-16,-27,22,8
12327192,-2937,-7940,3893,-17,-27,21,8
12327197,-3094,-7940,4079,-18,-28,20,8
12327202,-3244,-7937,4261,-20,-29,19,8
12327207,-3391,-7932,4432,-21,-31,18,8
12327212,-3533,-7860,4574,-22,-35,17,8
12327217,-3561,-7793,4697,-23,-39,16,8
12327222,-3845,-7855,4699,-24,-42,16,8
12327227,-4001,-7876,4732,-25,-63,16,8
12327232,-4047,-7833,4697,-26,-75,15,8
12327237,-4044,-7686,4640,-27,-76,14,8
12327242,-4062,-7594,4565,-28,-74,13,8
12327247,-4214,-7570,4407,-29,-80,13,8
12327252,-4436,-7593,4256,-30,-95,13,8
12327257,-4788,-7594,4101,-31,-110,13,8
12327262,-4968,-7525,3970,-32,-122,13,8
12327267,-5120,-7461,3798,-33,-114,12,8
12327272,-5267,-7425,3670,-33,-102,11,8
12327277,-5463,-7385,3478,-34,-92,10,8
12327282,-5719,-7480,3256,-34,-91,10,8
12327287,-5943,-7528,3042,-35,-97,9,8
12327292,-6051,-7495,2771,-35,-98,8,8
12327297,-6140,-7514,2522,-36,-89,7,8
12327302,-6177,-7527,2305,-37,-80,5,8
12327307,-6255,-7646,2062,-37,-76,3,8
12327312,-6333,-7727,1823,-38,-79,2,8
12327317,-6439,-7718,1617,-38,-84,1,8
12327322,-6480,-7724,1446,-38,-86,0,8
12327327,-6574,-7660,1282,-39,-83,-1,8
12327332,-6552,-7675,1134,-39,-80,-3,8
12327337,-6531,-7728,950,-39,-73,-4,8
12327342,-6536,-7662,756,-39,-69,-6,8
12327347,-6509,-7676,616,-39,-68,-7,8
12327352,-6530,-7695,427,-39,-65,-8,8
12327357,-6536,-7721,286,-39,-62,-10,8
12327362,-6563,-7700,110,-40,-55,-11,8
12327367,-6568,-7697,-38,-40,-47,-13,8
12327372,-6634,-7683,-163,-40,-40,-15,8
12327377,-6696,-7698,-352,-40,-37,-16,8
12327382,-6739,-7754,-567,-40,-35,-18,8
12327387,-6739,-7738,-809,-39,-31,-20,8
12327392,-6658,-7774,-1015,-39,-25,-22,8
12327397,-6579,-7737,-1277,-38,-21,-24,8
12327402,-6459,-7718,-1486,-37,-20,-26,8
12327407,-6366,-7715,-1732,-37,-22,-28,8
12327412,-6249,-7714,-1997,-36,-28,-30,8
12327417,-6133,-7727,-2212,-35,-33,-31,8
12327422,-6036,-7735,-2439,-34,-36,-33,8
12327427,-5786,-7683,-2603,-34,-39,-35,8
12327432,-5578,-7628,-2770,-32,-34,-37,8
12327437,-5411,-7573,-2956,-31,-32,-38,8
12327442,-5257,-7523,-3167,-30,-32,-40,8
12327447,-5185,-7482,-3417,-30,-31,-40,8
12327452,-5050,-7446,-3627,-29,-31,-41,8
12327457,-4891,-7413,-3825,-29,-28,-41,8
12327462,-4675,-7386,-3960,-28,-26,-41,8
12327467,-4374,-7359,-4051,-27,-23,-42,8
12327472,-4082,-7334,-4128,-26,-19,-43,8
12327477,-3778,-7312,-4177,-25,-19,-44,8
12327482,-3506,-7295,-4272,-23,-19,-45,8
12327487,-3284,-7284,-4387,-22,-21,-46,8
12327492,-3081,-7273,-4514,-21,-25,-46,8
12327497,-2912,-7262,-4659,-20,-28,-46,8
12327502,-2731,-7253,-4795,-19,-31,-46,8
12327507,-2516,-7246,-4936,-18,-30,-46,8
12327512,-2259,-7241,-5094,-16,-28,-46,8
12327517,-1970,-7242,-5276,-14,-26,-46,8
12327522,-1688,-7249,-5451,-13,-23,-46,8
12327527,-1425,-7256,-5685,-11,-19,-46,8
12327532,-1162,-7259,-5985,-10,-14,-46,8
12327537,-894,-7264,-6255,-8,-8,-46,8
12327542,-654,-7271,-6514,-7,-3,-45,8
12327547,-399,-7282,-6748,-5,2,-45,8
12327552,-123,-7293,-6903,-4,8,-44,8
12327557,151,-7303,-7003,-2,15,-44,8
12327562,448,-7314,-7005,-1,24,-43,8
12327567,761,-7319,-6926,1,33,-43,8
12327572,1082,-7322,-6848,2,40,-42,8
12327577,1436,-7335,-6796,5,45,-41,8
12327582,1778,-7346,-6735,7,48,-40,8
12327587,2076,-7364,-6695,9,46,-39,8
12327592,2357,-7386,-6676,11,42,-38,8
12327597,2612,-7401,-6655,12,38,-37,8
12327602,2836,-7416,-6616,14,35,-36,8
12327607,3034,-7427,-6543,15,34,-35,8
12327612,3204,-7436,-6459,17,33,-34,8
12327617,3324,-7446,-6387,19,34,-34,8
12327622,3408,-7455,-6326,20,36,-33,8
12327627,3440,-7464,-6286,22,38,-32,8
12327632,3419,-7476,-6237,23,41,-31,8
12327637,3369,-7488,-6171,25,45,-30,8
12327642,3304,-7500,-6073,26,52,-29,8
12327647,3244,-7508,-5929,27,62,-28,8
12327652,3232,-7505,-5737,28,75,-26,8
12327657,3251,-7499,-5486,29,87,-25,8
12327662,3308,-7491,-5188,30,97,-24,8
12327667,3408,-7482,-4844,31,103,-23,8
12327672,3527,-7473,-4466,32,107,-21,8
12327677,3662,-7467,-4092,33,108,-20,8
12327682,3798,-7464,-3731,34,107,-19,8
12327687,3905,-7464,-3400,35,104,-17,8
12327692,3992,-7467,-3120,36,101,-16,8
12327697,4045,-7471,-2873,36,99,-15,8
12327702,4054,-7477,-2664,37,97,-14,8
12327707,4025,-7482,-2469,37,95,-13,8
12327712,3973,-7492,-2280,37,95,-11,8
12327717,3911,-7499,-2074,37,97,-10,8
12327722,3853,-7503,-1856,37,98,-9,8
12327727,3817,-7506,-1618,37,101,-8,8
12327732,3799,-7512,-1363,37,103,-6,8
12327737,3808,-7514,-1098,38,104,-5,8
12327742,3837,-7515,-846,38,104,-4,8
12327747,3873,-7519,-593,37,105,-2,8
12327752,3926,-7523,-341,37,105,-1,8
12327757,3994,-7527,-99,37,106,0,8
12327762,4065,-7533,144,37,106,2,8
12327767,4153,-7541,400,36,105,3,8
12327772,4233,-7551,652,36,103,5,8
12327777,4304,-7563,926,35,100,6,8
12327782,4364,-7576,1170,34,98,8,8
12327787,4417,-7586,1397,33,94,9,8
12327792,4461,-7597,1606,32,88,11,8
12327797,4488,-7606,1785,31,81,12,8
12327802,4504,-7615,1940,30,76,14,8
12327807,4505,-7625,2066,28,71,15,8
12327812,4563,-7628,2233,27,67,16,8
12327817,4629,-7620,2447,27,66,17,8
12327822,4664,-7610,2697,27,67,17,8
12327827,4644,-7608,2896,28,66,18,8
12327832,4555,-7614,3019,28,63,19,8
12327837,4412,-7627,3066,28,59,20,8
12327842,4286,-7643,3041,27,54,21,8
12327847,4170,-7659,2976,26,51,22,8
12327852,4061,-7670,2907,25,48,23,8
12327857,3960,-7679,2853,24,47,24,8
12327862,3838,-7683,2840,23,48,25,8
12327867,3703,-7685,2875,22,49,26,8
12327872,3572,-7685,2943,21,49,27,8
12327877,3444,-7690,3042,20,50,28,8
12327882,3326,-7697,3164,19,49,28,8
12327887,3221,-7699,3303,18,47,29,8
12327892,3116,-7700,3443,17,45,30,8
12327897,3021,-7699,3577,17,43,30,8
12327902,2929,-7702,3699,16,39,31,8
12327907,2823,-7698,3790,15,34,31,8
12327912,2706,-7697,3862,14,29,32,8
12327917,2571,-7697,3909,13,25,32,8
12327922,2425,-7699,3918,12,22,32,8
12327927,2283,-7697,3917,12,19,33,8
12327932,2140,-7699,3909,11,18,33,8
12327937,1995,-7703,3892,10,17,33,8
12327942,1853,-7706,3867,9,17,33,8
12327947,1713,-7705,3847,8,18,33,8
12327952,1577,-7705,3828,8,19,33,8
12327957,1442,-7706,3821,7,21,33,8
12327962,1297,-7707,3818,6,22,33,8
12327967,1140,-7708,3835,5,23,32,8
12327972,982,-7714,3868,4,23,32,8
12327977,756,-7717,3944,3,20,32,8
12327982,494,-7729,4052,2,15,32,8
12327987,227,-7738,4185,1,9,32,8
12327992,-32,-7747,4339,0,4,33,8
12327997,-247,-7756,4499,-1,-2,33,8
12328002,-400,-7762,4650,-2,-6,33,8
12328007,-490,-7767,4774,-3,-10,33,8
12328012,-537,-7769,4868,-4,-14,32,8
12328017,-569,-7770,4928,-5,-19,31,8
12328022,-625,-7773,4955,-6,-25,31,8
12328027,-733,-7775,4956,-7,-32,30,8
12328032,-882,-7775,4942,-8,-38,29,8
12328037,-1065,-7774,4928,-8,-42,29,8
12328042,-1264,-7776,4903,-9,-44,28,8
12328047,-1466,-7784,4856,-10,-43,28,8
12328052,-1680,-7799,4770,-10,-40,27,8
12328057,-1896,-7817,4665,-11,-38,27,8
12328062,-2094,-7833,4554,-13,-37,26,8
12328067,-2265,-7842,4476,-14,-36,26,8
12328072,-2400,-7848,4442,-15,-34,25,8
12328077,-2499,-7853,4446,-16,-33,24,8
12328082,-2575,-7855,4466,-17,-31,23,8
12328087,-2638,-7855,4477,-17,-31,22,8
12328092,-2705,-7863,4466,-18,-31,22,8
12328097,-2789,-7874,4433,-18,-33,21,8
12328102,-2893,-7881,4392,-19,-37,20,8
12328107,-3018,-7886,4382,-21,-41,19,8
12328112,-3161,-7891,4391,-22,-45,18,8
12328117,-3309,-7891,4413,-22,-48,17,8
12328122,-3467,-7890,4432,-23,-50,16,8
12328127,-3623,-7889,4422,-24,-51,15,8
12328132,-3771,-7891,4352,-24,-51,14,8
12328137,-3907,-7897,4206,-24,-50,13,8
12328142,-4021,-7902,4009,-25,-47,12,8
12328147,-4101,-7909,3782,-26,-43,11,8
12328152,-4155,-7915,3542,-27,-38,11,8
12328157,-4181,-7916,3321,-27,-34,10,8
12328162,-4182,-7913,3122,-28,-30,8,8
12328167,-4167,-7907,2957,-29,-28,7,8
12328172,-4148,-7903,2822,-29,-28,6,8
12328177,-4125,-7899,2683,-29,-30,5,8
12328182,-4115,-7893,2539,-29,-33,4,8
12328187,-4113,-7893,2359,-29,-37,3,8
12328192,-4132,-7893,2144,-29,-41,2,8
12328197,-4172,-7894,1911,-29,-44,1,8
12328202,-4234,-7899,1655,-28,-47,0,8
12328207,-4314,-7902,1390,-28,-47,-1,8
12328212,-4407,-7911,1115,-28,-45,-2,8
12328217,-4484,-7917,843,-28,-41,-3,8
12328222,-4535,-7925,584,-28,-37,-4,8
12328227,-4554,-7934,351,-28,-34,-5,8
12328232,-4526,-7942,158,-27,-31,-6,8
12328237,-4466,-7949,11,-27,-28,-6,8
12328242,-4382,-7954,-86,-27,-25,-8,8
12328247,-4282,-7952,-136,-27,-24,-9,8
12328252,-4191,-7950,-152,-27,-25,-10,8
12328257,-4114,-7952,-170,-26,-27,-11,8
12328262,-4055,-7949,-207,-26,-29,-12,8
12328267,-4013,-7952,-283,-25,-32,-13,8
12328272,-3984,-7955,-405,-25,-35,-13,8
12328277,-3958,-7959,-564,-24,-36,-14,8
12328282,-3935,-7964,-745,-24,-36,-15,8
12328287,-3906,-7966,-925,-23,-35,-16,8
12328292,-3871,-7974,-1096,-23,-33,-17,8
12328297,-3833,-7977,-1247,-23,-30,-18,8
12328302,-3802,-7978,-1371,-22,-28,-19,8
12328307,-3771,-7981,-1461,-22,-26,-20,8
12328312,-3735,-7981,-1521,-21,-24,-21,8
12328317,-3687,-7979,-1564,-21,-22,-21,8
12328322,-3615,-7976,-1598,-20,-20,-22,8
12328327,-3520,-7973,-1648,-19,-19,-23,8
12328332,-3395,-7969,-1716,-19,-17,-23,8
12328337,-3246,-7969,-1802,-18,-16,-24,8
12328342,-3088,-7966,-1901,-17,-15,-25,8
12328347,-2924,-7962,-2011,-16,-15,-25,8
12328352,-2767,-7961,-2118,-16,-13,-26,8
12328357,-2613,-7958,-2213,-15,-12,-26,8
12328362,-2456,-7958,-2281,-15,-10,-27,8
12328367,-2292,-7952,-2327,-14,-7,-27,8
12328372,-2111,-7950,-2348,-14,-3,-27,8
12328377,-1899,-7947,-2334,-13,1,-27,8
12328382,-1670,-7947,-2286,-13,3,-27,8
12328387,-1427,-7944,-2220,-12,4,-28,8
12328392,-1187,-7942,-2140,-11,4,-28,8
12328397,-959,-7937,-2057,-11,3,-28,8
12328402,-755,-7932,-1993,-10,0,-28,8
12328407,-580,-7934,-1955,-9,-3,-28,8
12328412,-441,-7934,-1952,-9,-7,-28,8
12328417,-328,-7936,-1982,-8,-9,-28,8
12328422,-225,-7940,-2040,-7,-11,-28,8
12328427,-123,-7942,-2118,-7,-10,-28,8
12328432,-11,-7945,-2215,-6,-9,-27,8
12328437,121,-7954,-2317,-5,-6,-27,8
12328442,277,-7958,-2411,-5,-1,-27,8
12328447,456,-7964,-2473,-4,6,-26,8
12328452,659,-7971,-2489,-4,14,-26,8
12328457,876,-7976,-2445,-4,22,-25,8
12328462,1112,-7983,-2338,-4,29,-25,8
12328467,1357,-7991,-2173,-3,33,-24,8
12328472,1593,-7997,-1957,-3,34,-24,8
12328477,1815,-8003,-1732,-2,33,-23,8
12328482,2032,-8012,-1522,-2,31,-22,8
12328487,2241,-8022,-1340,-1,27,-22,8
12328492,2438,-8033,-1216,0,21,-21,8
12328497,2611,-8043,-1151,0,14,-20,8
12328502,2763,-8055,-1136,0,8,-19,8
12328507,2886,-8067,-1160,1,3,-19,8
12328512,2981,-8079,-1204,1,0,-18,8
12328517,3048,-8090,-1254,1,-2,-17,8
12328522,3101,-8102,-1309,2,-1,-16,8
12328527,3141,-8112,-1358,2,1,-15,8
12328532,3175,-8120,-1392,2,3,-14,8
12328537,3195,-8129,-1409,2,5,-14,8
12328542,3202,-8139,-1400,3,9,-13,8
12328547,3214,-8148,-1368,3,13,-12,8
12328552,3227,-8154,-1316,3,17,-11,8
12328557,3238,-8158,-1241,3,19,-10,8
12328562,3255,-8165,-1155,4,20,-10,8
12328567,3276,-8167,-1067,4,21,-9,8
12328572,3299,-8173,-978,4,20,-8,8
12328577,3312,-8177,-902,4,18,-8,8
12328582,3305,-8183,-829,5,16,-7,8
12328587,3272,-8188,-759,5,13,-6,8
12328592,3217,-8194,-693,5,11,-6,8
12328597,3141,-8199,-628,5,10,-5,8
12328602,3050,-8204,-564,5,9,-5,8
12328607,2953,-8211,-501,5,8,-4,8
12328612,2852,-8219,-436,5,8,-3,8
12328617,2746,-8224,-376,5,8,-3,8
12328622,2644,-8230,-317,5,8,-3,8
12328627,2540,-8234,-266,5,8,-2,0
12328632,2437,-8237,-228,5,7,-2,0
12328637,2333,-8241,-197,5,7,-2,0
12328642,2224,-8244,-170,5,7,-1,0
12328647,2110,-8249,-149,5,7,-1,0
12328652,1994,-8253,-129,5,7,-1,0
12328657,1876,-8259,-108,5,8,-1,0
12328662,1761,-8260,-80,5,9,-1,0
12328667,1653,-8263,-45,5,10,-1,0
12328672,1553,-8268,4,5,12,0,0
12328677,1465,-8272,66,5,14,0,0
12328682,1394,-8274,133,5,15,0,0
12328687,1339,-8276,209,4,17,0,0
12328692,1299,-8277,297,4,17,0,0
12328697,1277,-8277,384,4,17,0,0
12328702,1265,-8277,473,4,15,0,0
12328707,1260,-8280,560,4,13,0,0
12328712,1255,-8278,628,4,11,0,0
12328717,1244,-8277,681,4,8,0,0
12328722,1223,-8275,717,4,5,0,0
12328727,1190,-8277,737,3,3,0,0
12328732,1140,-8278,743,3,1,0,0
12328737,1081,-8283,738,3,0,0,0
12328742,1016,-8284,726,3,-1,0,0
12328747,947,-8289,709,3,-1,0,0
12328752,882,-8293,686,2,0,0,0
12328757,827,-8294,662,2,0,0,0
12328762,781,-8298,636,2,1,0,0
12328767,747,-8299,620,2,2,0,0
12328772,723,-8301,609,2,3,0,0
12328777,709,-8301,612,2,4,0,0
12328782,701,-8302,620,1,5,-1,0
12328787,696,-8301,633,1,5,-1,0
12328792,690,-8302,646,1,5,-1,0
12328797,686,-8300,659,1,5,-1,0
12328802,683,-8301,675,1,4,-1,0
12328807,683,-8299,685,1,3,-1,0
12328812,684,-8300,691,1,2,-1,0
12328817,691,-8302,686,0,1,-1,0
12328822,699,-8303,674,0,0,-1,0
12328827,705,-8302,660,0,0,-1,0
12328832,702,-8300,634,0,-1,-1,0
12328837,699,-8301,610,0,-1,-1,0
12328842,696,-8300,581,0,-1,-1,0
12328847,695,-8299,550,0,-1,-1,0
12328852,699,-8301,523,0,-1,-1,0
12328857,715,-8300,501,0,0,-1,0
12328862,735,-8300,480,0,0,-1,0
12328867,761,-8299,460,0,0,-1,0
12328872,788,-8299,442,0,0,-1,0
12328877,813,-8297,421,-1,-1,-1,0
12328882,833,-8298,393,-1,-1,-1,0
12328887,846,-8299,365,-1,0,-2,0
12328892,853,-8297,338,-1,0,-2,0
12328897,856,-8297,316,-1,0,-2,0
12328902,857,-8298,293,-1,0,-1,0
12328907,866,-8299,275,-1,0,-1,0
12328912,885,-8296,265,-1,0,-1,0
12328917,912,-8296,252,-1,0,-1,0
12328922,946,-8297,242,-1,0,-1,0
12328927,982,-8297,231,-1,0,-1,0
12328932,1012,-8296,218,-1,-1,-1,0
12328937,1028,-8292,200,-1,-1,-1,0
12328942,1033,-8292,177,-1,-1,-1,0
12328947,1025,-8292,154,-1,-1,-1,0
12328952,1015,-8292,126,-1,-1,-1,0
12328957,1011,-8292,98,0,-1,-1,0
12328962,1011,-8290,67,0,0,-1,0
12328967,1027,-8293,42,0,0,-1,0
12328972,1048,-8291,23,0,0,-1,0
12328977,1068,-8292,14,0,0,-1,0
12328982,1083,-8291,23,0,1,-1,0
12328987,1085,-8291,51,-1,1,-1,0
12328992,1068,-8291,89,-1,1,-1,0
12328997,1039,-8292,124,0,2,-1,0
12329002,1007,-8295,153,0,1,-1,0
12329007,976,-8296,165,0,0,-1,0
12329012,953,-8297,168,0,-1,0,0
12329017,938,-8297,150,0,-1,0,0
12329022,933,-8297,126,0,0,0,0
12329027,933,-8292,99,0,0,0,0
12329032,933,-8292,78,0,0,0,0
12329037,927,-8293,67,0,1,-1,0
12329042,917,-8294,67,0,1,0,0
12329047,904,-8294,71,0,2,-1,0
12329052,890,-8294,70,0,2,-1,0
12329057,878,-8292,63,0,3,-1,0
12329062,868,-8292,64,0,3,-1,0
12329067,864,-8294,67,0,3,-1,0
12329072,861,-8296,78,0,3,-1,0
12329077,864,-8297,101,0,3,-1,0
12329082,866,-8294,136,0,4,-1,0
12329087,870,-8294,177,0,5,-1,0
12329092,881,-8294,210,0,5,-1,0
12329097,896,-8294,231,0,4,-1,0
12329102,910,-8296,235,0,2,-1,0
12329107,918,-8296,228,0,0,-1,0
12329112,918,-8296,212,0,-1,-1,0
12329117,911,-8296,187,0,-1,-1,0
12329122,896,-8299,162,0,-1,-1,0
12329127,871,-8300,145,0,-1,-1,0
12329132,843,-8303,128,0,0,-1,0
12329137,814,-8307,112,0,0,-1,0
12329142,792,-8308,105,0,0,-1,0
12329147,781,-8307,105,0,1,-1,0
12329152,781,-8305,118,0,2,-1,0
12329157,789,-8302,132,0,3,-1,0
12329162,802,-8301,151,0,4,-1,0
12329167,810,-8298,166,0,5,-1,0
12329172,822,-8297,162,0,5,-1,0
12329177,826,-8299,148,0,4,-1,0
12329182,827,-8301,139,0,4,-1,0
12329187,832,-8303,134,0,4,-1,0
12329192,844,-8304,148,0,4,-1,0
12329197,860,-8300,174,0,3,-1,0
12329202,880,-8296,211,0,2,-1,0
12329207,899,-8293,250,0,2,-1,0
12329212,926,-8293,283,0,1,-1,0
12329217,952,-8293,308,0,0,-1,0
12329222,968,-8291,318,0,-2,-1,0
12329227,971,-8293,320,0,-3,-1,0
12329232,968,-8294,316,0,-3,-1,0
12329237,955,-8294,305,0,-2,-1,0
12329242,938,-8294,290,-1,-1,-1,0
12329247,925,-8297,272,-1,0,-1,0
12329252,912,-8299,249,-1,0,-1,0
12329257,907,-8301,222,-1,0,-1,0
12329262,907,-8303,200,-1,0,-1,0
12329267,918,-8304,183,-1,0,-1,0
12329272,927,-8303,186,-1,0,-1,0
12329277,937,-8300,194,-1,0,-1,0
12329282,946,-8296,218,-1,0,-1,0
12329287,951,-8297,240,-1,-1,-1,0
12329292,947,-8297,256,-1,-2,-1,0
12329297,944,-8297,276,-1,-3,-1,0
12329302,941,-8297,281,-1,-3,-1,0
12329307,941,-8299,279,-1,-4,-1,0
12329312,941,-8299,272,-1,-4,-1,0
12329317,946,-8301,250,-1,-4,-1,0
12329322,950,-8305,220,-1,-4,-1,0
12329327,957,-8306,181,-1,-3,-1,0
12329332,962,-8302,141,0,-2,-1,0
12329337,968,-8301,96,0,-1,-1,0
12329342,970,-8301,54,0,-1,-1,0
12329347,965,-8301,24,-1,0,-1,0
12329352,960,-8301,13,-1,1,-1,0
12329357,955,-8300,23,-1,2,-1,0
12329362,951,-8299,53,-1,2,-1,0
12329367,950,-8297,96,-1,2,0,0
12329372,965,-8296,145,-1,2,0,0
12329377,989,-8296,191,0,1,0,0
12329382,1015,-8297,230,0,0,0,0
12329387,1045,-8295,248,0,-1,0,0
12329392,1077,-8290,253,0,-2,0,0
12329397,1099,-8289,245,0,-3,0,0
12329402,1111,-8289,233,0,-4,0,0
12329407,1111,-8289,221,0,-4,0,0
12329412,1107,-8288,213,-1,-5,0,0
12329417,1092,-8284,206,-1,-5,0,0
12329422,1072,-8283,192,0,-5,0,0
12329427,1052,-8284,174,0,-4,0,0
12329432,1036,-8288,155,0,-3,0,0
12329437,1024,-8291,136,0,-2,0,0
12329442,1013,-8291,127,-1,-1,0,0
12329447,1000,-8289,129,-1,-1,0,0
12329452,983,-8287,142,-1,-1,0,0
12329457,962,-8290,164,-1,0,0,0
12329462,939,-8292,191,-1,0,0,0
12329467,917,-8293,218,-1,0,0,0
12329472,908,-8294,239,-1,0,0,0
12329477,910,-8295,251,-1,-1,0,0
12329482,915,-8295,250,-1,-2,0,0
12329487,929,-8292,238,-1,-2,0,0
12329492,941,-8289,218,-1,-2,0,0
12329497,945,-8290,195,-1,-1,0,0
12329502,939,-8292,173,-1,-1,0,0
12329507,924,-8291,161,-1,-1,0,0
12329512,902,-8291,159,-1,-1,0,0
12329517,878,-8289,163,-1,0,0,0
12329522,859,-8292,172,-1,0,0,0
12329527,852,-8294,185,-1,0,0,0
12329532,862,-8295,201,-1,1,0,0
12329537,884,-8295,210,-1,0,0,0
12329542,911,-8297,220,-1,-1,0,0
12329547,930,-8294,229,-1,-1,0,0
12329552,937,-8299,230,-1,-1,0,0
12329557,936,-8299,223,-1,-1,0,0
12329562,932,-8302,209,-1,-1,0,0
12329567,921,-8305,190,-1,-1,0,0
12329572,904,-8308,166,-1,-1,0,0
12329577,894,-8308,151,-1,-1,0,0
12329582,890,-8308,140,-1,-1,0,0
12329587,893,-8306,146,-1,0,0,0
12329592,900,-8303,163,-1,0,0,0
12329597,908,-8303,186,-1,0,0,0
12329602,918,-8303,210,-1,0,0,0
12329607,921,-8303,230,-1,0,0,0
12329612,920,-8303,250,-1,0,0,0
12329617,917,-8302,262,-1,0,0,0
12329622,918,-8302,273,-1,0,0,0
12329627,922,-8302,281,-1,0,0,0
12329632,926,-8302,281,-1,0,0,0
12329637,929,-8305,266,-1,0,0,0
12329642,930,-8305,249,-1,0,0,0
12329647,928,-8305,232,-1,0,0,0
12329652,921,-8307,217,-1,0,0,0
12329657,912,-8304,206,-1,0,0,0
12329662,901,-8304,204,-1,0,0,0
12329667,888,-8300,207,-1,0,0,0
12329672,882,-8302,209,-1,1,0,0
12329677,878,-8305,213,-1,1,0,0
12329682,875,-8305,216,-1,2,0,0
12329687,875,-8306,213,-1,2,0,0
12329692,878,-8310,212,-1,2,0,0
12329697,876,-8312,212,-1,2,0,0
12329702,873,-8310,205,-1,1,0,0
12329707,871,-8308,194,-1,1,0,0
12329712,867,-8309,173,-1,0,0,0
12329717,862,-8306,149,-1,0,0,0
12329722,856,-8306,126,-1,0,0,0
12329727,856,-8304,107,-1,0,0,0
12329732,858,-8303,96,-1,-1,0,0
12329737,855,-8300,88,-1,-1,0,0
12329742,854,-8298,83,-1,-1,0,0
12329747,856,-8297,86,-1,-1,0,0
12329752,856,-8297,90,-1,0,0,0
12329757,859,-8298,102,-1,-1,0,0
12329762,860,-8301,117,-1,-1,0,0
12329767,862,-8303,130,-1,-1,0,0
12329772,864,-8300,145,-1,-1,0,0
12329777,869,-8297,164,-1,-1,0,0
12329782,876,-8297,181,-1,-1,0,0
12329787,883,-8297,186,-1,-2,0,0
12329792,886,-8296,187,-1,-2,0,0
12329797,887,-8297,181,-1,-2,0,0
12329802,883,-8299,168,-1,-3,0,0
12329807,877,-8302,153,-1,-4,0,0
12329812,871,-8305,147,-1,-5,0,0
12329817,858,-8305,138,-1,-5,0,0
12329822,841,-8303,124,-1,-5,0,0
12329827,829,-8302,114,-1,-4,0,0
12329832,824,-8303,102,-1,-4,0,0
12329837,824,-8305,93,-1,-4,0,0
12329842,827,-8306,88,-1,-4,0,0
12329847,835,-8302,92,-1,-5,0,0
12329852,848,-8300,99,-1,-4,0,0
12329857,857,-8298,111,-1,-4,0,0
12329862,863,-8298,125,-1,-4,0,0
12329867,864,-8299,131,-1,-3,0,0
12329872,858,-8298,137,-1,-3,0,0
12329877,846,-8298,135,-1,-3,0,0
12329882,831,-8297,125,-1,-3,0,0
12329887,818,-8297,112,-1,-3,0,0
12329892,809,-8298,96,-1,-2,0,0
12329897,800,-8300,83,-1,-2,0,0
12329902,798,-8303,76,-1,-2,0,0
12329907,802,-8304,69,-1,-2,0,0
12329912,810,-8306,63,-1,-2,0,0
12329918,820,-8306,68,-1,-2,0,0
12329922,830,-8306,74,-1,-2,0,0
12329927,834,-8303,79,-1,-3,0,0
12329932,835,-8303,93,-1,-3,0,0
12329937,831,-8302,103,-1,-2,0,0
12329942,823,-8304,107,-1,-2,0,0
12329947,813,-8306,111,-1,-2,0,0
12329952,797,-8309,106,-1,-2,0,0
12329957,780,-8312,97,-1,-1,0,0
12329962,771,-8308,78,-1,0,0,0
12329967,770,-8304,59,-1,0,0,0
12329972,776,-8304,53,-1,1,0,0
12329977,788,-8302,50,-1,1,0,0
12329983,803,-8302,58,-1,1,0,0
12329987,817,-8300,70,-1,1,0,0
12329992,831,-8300,83,-1,0,0,0
12329997,848,-8299,97,-1,0,0,0
12330002,860,-8297,113,-1,-1,0,0
12330008,872,-8296,126,-1,-2,0,0
12330012,878,-8294,136,-1,-2,0,0
12330017,877,-8294,135,-1,-3,0,0
12330022,871,-8296,127,-1,-3,0,0
12330027,865,-8299,113,-1,-2,0,0
12330032,854,-8300,96,-1,-2,0,0
12330037,838,-8299,81,-1,-2,0,0
12330043,823,-8295,75,-1,-1,0,0
12330047,810,-8297,71,-1,-1,0,0
12330052,803,-8298,72,-1,-1,0,0
12330058,800,-8299,79,-1,-1,0,0
12330062,800,-8301,90,-1,-1,0,0
12330067,806,-8301,97,-1,-1,0,0
12330072,819,-8300,108,-1,-2,0,0
12330077,832,-8300,115,-1,-2,0,0
12330082,844,-8301,119,-1,-2,0,0
12330087,848,-8307,118,-1,-3,0,0
12330092,851,-8305,125,-1,-3,0,0
12330097,853,-8290,142,-1,-3,0,0
12330102,874,-8274,167,-1,-1,0,0
12330108,958,-8284,226,-1,1,0,0
12330112,976,-8285,215,0,1,-1,0
12330118,969,-8272,214,0,-1,-1,0
12330122,936,-8282,202,0,-1,-1,0
12330127,903,-8303,200,0,-1,-1,0
12330133,880,-8273,209,0,0,-1,0
12330137,871,-8308,198,0,2,-1,0
12330142,999,-8320,257,0,3,-2,0
12330148,944,-8294,161,0,2,-1,0
12330153,970,-8285,202,0,-2,-2,0
12330157,988,-8280,206,0,1,-2,0
12330163,1069,-8292,288,1,1,-2,0
12330167,1123,-8321,312,1,2,-2,0
12330173,1147,-8349,314,2,0,-3,0
12330178,1139,-8365,284,2,-2,-3,0
12330182,1092,-8365,270,2,-3,-3,0
12330188,1058,-8346,264,2,-3,-3,0
12330192,1034,-8323,281,2,0,-3,0
12330198,1038,-8312,289,3,3,-4,0
12330203,1054,-8319,276,3,5,-4,0
12330208,1073,-8342,272,3,4,-4,0
12330212,1089,-8374,276,3,2,-4,0
12330217,1099,-8406,306,3,0,-4,0
12330223,1101,-8435,335,3,-1,-5,0
12330227,1096,-8457,350,3,-1,-5,0
12330232,1085,-8476,332,4,-1,-5,0
12330238,1067,-8481,309,4,-1,-5,0
12330243,1053,-8477,282,4,-1,-6,0
12330247,1043,-8465,276,4,-1,-6,0
12330253,1027,-8453,282,4,0,-6,0
12330258,1013,-8444,285,4,1,-6,0
12330263,1005,-8444,289,4,2,-6,0
12330268,999,-8450,282,4,2,-7,0
12330273,1003,-8463,274,4,1,-7,0
12330278,1022,-8478,278,4,1,-7,0
12330283,1041,-8496,298,5,0,-7,0
12330288,1056,-8516,304,5,0,-7,0
12330293,1059,-8536,301,5,-1,-7,0
12330297,1047,-8552,283,5,-2,-7,0
12330303,1030,-8568,256,5,-2,-7,0
12330308,1014,-8576,241,5,-1,-7,0
12330313,997,-8575,229,5,1,-8,0
12330317,984,-8569,229,5,2,-8,0
12330323,972,-8558,231,5,3,-8,0
12330327,964,-8540,231,5,3,-8,0
12330332,963,-8510,226,5,4,-8,0
12330337,971,-8474,230,5,4,-8,0
12330343,982,-8440,239,5,4,-8,0
12330348,997,-8409,255,5,4,-8,0
12330353,1015,-8382,280,5,4,-8,0
12330358,1033,-8357,297,5,4,-8,0
12330363,1048,-8335,309,5,3,-8,0
12330368,1060,-8316,328,5,3,-8,0
12330373,1068,-8302,341,5,3,-8,0
12330378,1074,-8289,350,5,3,-7,0
12330382,1075,-8276,360,4,2,-7,0
12330388,1069,-8263,355,4,2,-7,0
12330393,1064,-8250,340,4,1,-7,0
12330397,1060,-8236,326,4,1,-7,0
12330402,1056,-8223,309,4,2,-7,0
12330408,1054,-8213,302,4,2,-7,0
12330413,1054,-8207,312,4,2,-7,0
12330417,1051,-8206,323,4,2,-7,0
12330423,1052,-8206,336,4,2,-6,0
12330428,1058,-8204,344,4,1,-6,0
12330432,1062,-8197,346,3,1,-6,0
12330437,1063,-8187,359,3,0,-6,0
12330443,1057,-8171,366,3,-1,-6,0
12330448,1043,-8149,362,3,-1,-6,0
12330452,1031,-8126,350,3,-1,-6,0
12330458,1016,-8105,334,3,0,-5,0
12330463,1003,-8092,318,3,0,-5,0
12330468,994,-8091,309,3,1,-5,0
12330473,985,-8101,294,3,3,-5,0
12330477,980,-8115,282,2,4,-5,0
12330483,981,-8127,280,2,5,-5,0
12330487,982,-8136,281,2,5,-5,0
12330493,986,-8142,284,2,6,-5,0
12330498,991,-8143,288,2,6,-4,0
12330503,995,-8139,289,2,6,-4,0
12330508,1004,-8129,289,2,6,-4,0
12330513,1014,-8120,289,2,6,-4,0
12330518,1021,-8109,290,2,5,-4,0
12330523,1026,-8094,292,2,5,-4,0
12330527,1027,-8091,298,2,5,-4,0
12330533,1020,-8091,299,1,5,-4,0
12330538,1022,-8093,298,1,6,-4,0
12330543,1028,-8099,292,1,6,-3,0
12330548,1037,-8100,283,1,6,-3,0
12330553,1049,-8093,286,1,6,-3,0
12330558,1060,-8087,292,1,6,-3,0
12330563,1070,-8072,295,1,6,-3,0
12330568,1080,-8057,297,1,6,-3,0
12330573,1090,-8040,296,1,6,-3,0
12330578,1105,-8026,292,0,6,-3,0
12330583,1121,-8015,282,0,6,-3,0
12330588,1140,-8006,277,0,5,-3,0
12330593,1155,-7994,268,0,5,-3,0
12330598,1164,-7977,270,0,4,-2,0
12330603,1170,-7956,276,0,3,-2,0
12330608,1169,-7937,285,0,2,-2,0
12330613,1167,-7921,293,0,2,-2,0
12330618,1170,-7906,303,-1,2,-2,0
12330623,1179,-7896,301,-1,2,-2,0
12330628,1198,-7892,292,-1,1,-2,0
12330633,1213,-7893,269,-1,0,-2,0
12330638,1225,-7901,232,-1,-1,-2,0
12330643,1231,-7909,189,-1,-2,-2,0
12330648,1227,-7920,133,-1,-2,-2,0
12330653,1212,-7938,87,-1,-2,-2,0
12330658,1193,-7960,69,-1,0,-2,0
12330663,1173,-7989,68,-1,2,-2,0
12330668,1160,-8026,78,-1,3,-2,0
12330673,1154,-8068,90,-1,4,-2,0
12330678,1153,-8113,96,-1,4,-2,0
12330683,1159,-8157,107,-1,3,-1,0
12330688,1162,-8198,125,-1,3,-1,0
12330693,1162,-8233,146,-1,2,-1,0
12330698,1159,-8260,171,-1,1,-1,0
12330703,1150,-8284,192,-1,2,-1,0
12330708,1143,-8295,205,-1,2,-1,0
12330713,1138,-8304,220,-1,2,-1,0
12330718,1136,-8316,233,-1,2,-1,0
12330723,1138,-8323,241,-2,2,-1,0
12330728,1133,-8330,244,-2,2,-1,0
12330733,1124,-8340,231,-2,2,-1,0
12330738,1109,-8345,216,-2,3,-1,0
12330743,1094,-8351,210,-2,4,-1,0
12330748,1082,-8363,221,-2,5,0,0
12330753,1076,-8378,239,-2,6,0,0
12330758,1084,-8394,259,-2,6,0,0
12330763,1099,-8415,277,-2,6,0,0
12330768,1114,-8439,288,-2,6,0,0
12330773,1128,-8462,303,-2,5,0,0
12330778,1138,-8477,320,-2,4,0,0
12330783,1145,-8481,326,-2,3,0,0
12330788,1146,-8473,328,-2,2,1,0
12330793,1144,-8459,317,-2,2,1,0
12330798,1142,-8436,308,-3,2,1,0
12330803,1139,-8406,295,-3,2,1,0
12330808,1135,-8376,290,-3,3,1,0
12330813,1134,-8347,290,-3,3,1,0
12330818,1134,-8323,295,-3,4,2,0
12330823,1137,-8304,301,-3,5,2,0
12330828,1138,-8304,309,-3,5,2,0
12330833,1147,-8310,318,-3,4,2,0
12330838,1154,-8325,333,-3,3,2,0
12330843,1161,-8343,344,-3,2,3,0
12330848,1163,-8357,348,-3,0,3,0
12330853,1157,-8371,338,-3,-1,3,0
12330858,1141,-8381,329,-3,-2,3,0
12330863,1122,-8384,314,-3,-2,3,0
12330868,1099,-8384,303,-3,-2,3,0
12330873,1074,-8384,301,-3,-1,3,0
12330878,1061,-8383,295,-3,0,3,0
12330883,1064,-8381,298,-3,1,3,0
12330888,1073,-8376,310,-3,1,3,0
12330893,1089,-8369,320,-3,1,3,0
12330898,1098,-8358,335,-3,1,4,0
12330903,1099,-8341,342,-4,0,4,0
12330908,1094,-8321,347,-4,0,4,0
12330913,1085,-8302,347,-4,0,4,0
12330918,1079,-8291,346,-4,1,4,0
12330923,1077,-8284,339,-4,1,4,0
12330928,1081,-8281,326,-4,2,4,0
12330933,1082,-8278,311,-4,2,4,0
12330938,1078,-8283,309,-4,2,4,0
12330943,1071,-8283,317,-4,3,4,0
12330948,1065,-8280,331,-4,3,4,0
12330953,1063,-8276,343,-4,4,4,0
12330958,1066,-8271,344,-4,3,4,0
12330963,1075,-8262,346,-4,3,4,0
12330968,1086,-8246,339,-4,2,5,0
12330973,1105,-8661,342,-4,1,5,0
12330978,936,-8742,121,-4,-4,5,0
12330983,1153,-8518,385,-4,-17,4,0
12330988,1148,-8630,404,-3,1,3,0
12330993,1161,-8490,388,-3,12,3,0
12330998,1317,-8469,509,-1,11,2,0
12331003,1379,-8425,465,-1,10,1,0
12331008,1518,-8394,592,0,7,0,0
12331013,1544,-8372,618,0,7,0,0
12331018,1579,-8366,586,0,0,-1,0
12331023,1507,-8351,604,0,-2,-1,0
12331028,1359,-8333,550,0,-6,0,0
12331033,1295,-8342,510,0,-6,-1,0
12331038,1173,-8342,510,0,-1,0,0
12331043,1097,-8326,435,0,-2,0,0
12331048,1104,-8327,379,0,0,0,0
12331053,1065,-8328,342,0,3,0,0
12331058,1078,-8315,278,0,0,0,0
12331063,1103,-8309,245,0,2,0,0
12331068,1083,-8307,231,0,3,0,0
12331073,1083,-8300,229,0,2,0,0
12331078,1090,-8293,263,0,4,0,0
12331083,1075,-8290,301,0,4,0,0
12331088,1069,-8290,324,0,3,0,0
12331093,1077,-8285,366,0,2,0,0
12331098,1062,-8281,397,0,2,0,0
12331103,1058,-8286,401,0,0,0,0
12331108,1074,-8290,415,0,1,0,0
12331113,1058,-8289,415,0,3,0,0
12331118,1061,-8288,401,0,4,0,0
12331123,1065,-8290,399,0,6,0,0
12331128,1048,-8287,377,0,7,0,0
12331133,1054,-8288,362,0,8,0,0
12331138,1047,-8290,362,0,11,0,0
12331143,1045,-8288,353,0,13,0,0
12331148,1057,-8288,351,0,15,0,0
12331153,1068,-8292,350,-1,17,0,0
12331158,1100,-8292,357,-1,16,0,0
12331163,1126,-8290,375,-1,16,0,0
12331168,1168,-8288,393,-1,14,1,0
12331173,1227,-8286,426,-1,13,1,0
12331178,1268,-8282,463,-1,11,1,0
12331183,1319,-8282,491,-1,7,1,0
12331188,1349,-8279,518,-1,5,1,0
12331193,1338,-8275,526,-1,1,1,0
12331198,1321,-8273,517,-1,-1,1,0
12331203,1266,-8278,492,-1,-2,1,0
12331208,1196,-8281,444,-1,-2,1,0
12331213,1135,-8286,389,-1,-1,1,0
12331218,1073,-8289,334,-1,1,1,0
12331223,1036,-8291,277,-1,3,1,0
12331228,1014,-8292,232,-1,5,1,0
12331233,1009,-8297,219,-1,7,1,0
12331238,1014,-8299,223,-1,9,1,0
12331243,1028,-8297,239,-1,11,1,0
12331248,1065,-8296,270,-1,12,1,0
12331253,1094,-8293,305,-1,10,1,0
12331258,1129,-8291,339,-1,6,1,0
12331263,1156,-8290,387,-1,2,1,0
12331268,1162,-8286,429,-1,-2,1,0
12331273,1178,-8283,460,-1,-5,1,0
12331278,1180,-8284,502,-1,-6,1,0
12331283,1174,-8284,528,-1,-8,1,0
12331288,1179,-8282,562,-1,-10,1,0
12331293,1163,-8280,590,-1,-11,1,0
12331298,1146,-8285,604,-1,-13,1,0
12331303,1126,-8285,608,-1,-15,1,0
12331308,1093,-8286,598,-1,-15,1,0
12331313,1067,-8285,573,-1,-16,1,0
12331318,1042,-8285,539,-1,-16,1,0
12331323,1016,-8285,493,-1,-15,1,0
12331328,994,-8286,444,-1,-14,1,0
12331333,980,-8288,396,-1,-13,1,0
12331338,968,-8287,352,-1,-11,1,0
12331343,953,-8289,308,-1,-9,1,0
12331348,931,-8290,277,-1,-7,0,0
12331353,899,-8292,258,-1,-4,0,0
12331358,850,-8290,253,-1,-1,0,0
12331363,807,-8292,271,-1,1,0,0
12331368,756,-8292,297,-1,4,0,0
12331373,714,-8293,319,-1,5,0,0
12331378,697,-8297,348,-1,6,0,0
12331383,688,-8295,376,-2,6,0,0
12331388,713,-8295,398,-2,5,0,0
12331393,759,-8294,422,-2,3,0,0
12331398,811,-8291,424,-1,1,0,0
12331403,879,-8289,413,-1,-2,0,0
12331408,930,-8287,392,-1,-4,0,0
12331413,965,-8289,359,-1,-6,0,0
12331418,986,-8290,322,-1,-7,0,0
12331423,986,-8289,287,-1,-8,0,0
12331428,975,-8288,265,-1,-9,0,0
12331433,962,-8289,251,-1,-9,0,0
12331438,952,-8286,252,-1,-10,0,0
12331443,950,-8285,259,-1,-10,0,0
12331448,966,-8284,280,-1,-11,0,0
12331453,996,-8284,301,-1,-11,0,0
12331458,1028,-8283,320,-1,-10,0,0
12331463,1066,-8280,332,-1,-9,0,0
12331468,1099,-8277,327,-1,-8,0,0
12331473,1129,-8278,314,-1,-6,0,0
12331478,1161,-8279,291,-1,-4,0,0
12331483,1182,-8280,266,-1,-3,0,0
12331488,1201,-8278,239,-1,-3,0,0
12331493,1224,-8280,218,-1,-2,0,0
12331498,1248,-8278,194,-1,-1,1,0
12331503,1283,-8277,168,-1,-1,1,0
12331508,1325,-8277,145,-1,-4,1,0
12331513,1359,-8274,133,-1,-7,1,0
12331518,1385,-8273,124,-1,-11,1,0
12331523,1397,-8276,129,-1,-14,1,0
12331528,1407,-8274,137,0,-18,1,0
12331533,1416,-8274,159,0,-23,1,0
12331538,1403,-8274,194,0,-29,1,0
12331543,1375,-8273,233,0,-35,1,0
12331548,1336,-8276,268,0,-38,1,0
12331553,1282,-8277,282,0,-38,2,0
12331558,1244,-8282,297,0,-37,2,0
12331563,1214,-8284,314,0,-35,2,0
12331568,1176,-8279,339,-1,-33,2,0
12331573,1082,-8276,371,-1,-28,2,0
12331578,991,-8279,424,-1,-19,1,0
12331583,910,-8284,479,-1,-10,1,0
12331588,806,-8286,530,-2,-2,1,0
12331593,734,-8287,563,-2,1,1,0
12331598,684,-8289,577,-2,1,1,0
12331603,678,-8287,568,-2,0,2,0
12331608,712,-8285,537,-1,-2,2,0
12331613,771,-8285,488,-1,-2,2,0
12331618,859,-8285,431,-2,-2,1,0
12331623,932,-8287,376,-2,-1,1,0
12331628,989,-8288,332,-2,-1,1,0
12331633,1014,-8288,287,-2,-1,1,0
12331638,1000,-8289,224,-2,-3,1,0
12331643,951,-8288,187,-2,-2,1,0
12331648,905,-8290,137,-2,0,1,0
12331653,891,-8292,107,-2,2,1,0
12331658,887,-8288,78,-2,1,1,0
12331663,885,-8289,74,-2,0,1,0
12331668,883,-8293,135,-2,-1,1,0
12331673,828,-8290,226,-2,-1,1,0
12331678,750,-8285,258,-2,4,0,0
12331683,672,-8286,320,-2,9,0,0
12331688,588,-8291,362,-2,9,0,0
12331693,508,-8299,350,-2,8,0,0
12331698,479,-8302,334,-2,9,1,0
12331703,523,-8304,284,-2,9,1,0
12331708,627,-8302,259,-2,8,1,0
12331713,765,-8297,238,-2,7,1,0
12331718,906,-8292,198,-2,5,0,0
12331723,1021,-8288,167,-2,3,0,0
12331728,1082,-8288,117,-1,0,0,0
12331733,1082,-8289,57,-1,-3,0,0
12331738,1034,-8294,2,-1,-4,0,0
12331743,958,-8297,-59,-1,-4,0,0
12331748,885,-8300,-91,-1,-3,0,0
12331753,838,-8298,-104,-1,-2,0,0
12331758,833,-8296,-106,-1,0,0,0
12331763,872,-8292,-84,-1,1,1,0
12331768,947,-8288,-57,-1,2,1,0
12331773,1038,-8285,-17,-1,1,1,0
12331778,1122,-8282,20,-1,0,0,0
12331783,1190,-8278,49,-1,-1,0,0
12331788,1222,-8278,74,0,-2,0,0
12331793,1222,-8278,83,0,-3,0,0
12331798,1205,-8281,81,0,-4,0,0
12331803,1169,-8281,67,0,-5,1,0
12331808,1134,-8282,56,0,-7,1,0
12331813,1107,-8283,49,0,-7,1,0
12331818,1080,-8284,51,0,-8,1,0
12331823,1055,-8287,60,0,-8,1,0
12331828,1028,-8287,59,0,-7,1,0
12331833,993,-8289,55,0,-7,1,0
12331838,950,-8294,36,0,-7,1,0
12331843,897,-8296,17,0,-6,1,0
12331848,842,-8296,0,0,-5,1,0
12331853,792,-8297,-9,0,-4,1,0
12331858,754,-8296,-6,0,-2,1,0
12331863,731,-8298,4,0,0,1,0
12331868,727,-8299,20,0,1,1,0
12331873,742,-8299,32,0,2,1,0
12331878,760,-8298,45,0,2,1,0
12331883,785,-8298,62,0,3,0,0
12331888,806,-8300,81,0,3,0,0
12331893,816,-8301,101,0,3,0,0
12331898,818,-8300,128,0,3,0,0
12331903,812,-8302,168,0,3,0,0
12331908,802,-8300,213,0,3,0,0
12331913,794,-8299,260,0,3,0,0
12331918,784,-8300,305,0,2,0,0
12331923,777,-8301,346,0,2,0,0
12331928,774,-8300,377,0,1,0,0
12331933,771,-8299,401,0,0,0,0
12331938,770,-8298,412,0,0,0,0
12331943,768,-8298,426,0,-1,0,0
12331948,759,-8300,437,0,-1,0,0
12331953,745,-8301,457,0,-1,0,0
12331958,730,-8304,476,0,-1,0,0
12331963,715,-8306,502,-1,-1,-1,0
12331968,709,-8308,527,-1,0,0,0
12331973,706,-8308,543,-1,0,0,0
12331978,712,-8306,551,-1,0,0,0
12331983,716,-8305,551,-1,0,-1,0
12331988,725,-8303,544,-1,0,-1,0
12331993,731,-8302,530,-1,1,-1,0
12331998,738,-8302,518,-1,1,-1,0
12332003,739,-8301,506,-1,1,-1,0
12332008,738,-8300,494,-1,1,-1,0
12332013,738,-8303,484,-1,1,-1,0
12332018,735,-8305,476,-1,2,-1,0
12332023,733,-8306,468,-2,2,-1,0
12332028,733,-8307,456,-2,3,-1,0
12332033,731,-8308,449,-2,3,-1,0
12332038,736,-8308,448,-2,3,-1,0
12332043,751,-8309,450,-2,2,-1,0
12332048,767,-8307,452,-2,2,-1,0
12332053,790,-8307,445,-2,1,-1,0
12332058,819,-8304,437,-2,1,-1,0
12332063,846,-8303,428,-2,0,-1,0
12332068,872,-8302,421,-2,-1,-1,0
12332073,893,-8300,407,-2,-1,-1,0
12332078,903,-8299,389,-2,-2,-1,0
12332083,911,-8301,373,-2,-2,-1,0
12332088,923,-8302,352,-2,-2,-1,0
12332093,942,-8298,327,-2,-2,-1,0
12332098,972,-8299,299,-2,-3,-1,0
12332103,1007,-8297,273,-2,-3,-1,0
12332108,1043,-8293,250,-2,-4,-1,0
12332113,1075,-8293,229,-2,-4,-1,0
12332118,1087,-8290,211,-2,-3,-1,0
12332123,1086,-8287,187,-2,-1,-1,0
12332128,1090,-8289,150,-2,1,-1,0
12332133,1103,-8294,103,-2,2,-1,0
12332138,1115,-8294,54,-2,2,0,0
12332143,1122,-8292,2,-2,2,0,0
12332148,1135,-8292,-38,-1,3,0,0
12332153,1139,-8292,-57,-1,3,0,0
12332158,1128,-8292,-59,-1,4,0,0
12332163,1100,-8292,-58,-1,4,0,0
12332168,1069,-8292,-54,-1,4,0,0
12332173,1032,-8293,-48,-1,5,0,0
12332178,978,-8293,-54,-1,6,0,0
12332183,971,-8294,-70,-1,7,0,0
12332188,986,-8294,-80,-1,6,0,0
12332193,1022,-8293,-96,-1,2,0,0
12332198,1056,-8292,-98,-1,-1,0,0
12332203,1079,-8290,-96,0,-2,0,0
12332208,1101,-8286,-94,0,-1,0,0
12332213,1098,-8284,-107,0,-1,0,0
12332218,1071,-8286,-133,0,-2,0,0
12332223,1013,-8290,-159,0,-2,0,0
12332228,952,-8293,-173,0,-2,0,0
12332233,903,-8297,-166,0,-2,0,0
12332238,861,-8293,-145,0,-2,0,0
12332243,838,-8291,-124,0,-1,0,0
12332248,831,-8292,-94,1,0,0,0
12332253,830,-8293,-66,1,0,0,0
12332258,819,-8294,-36,1,-1,0,0
12332263,799,-8294,0,1,-2,-1,0
12332268,779,-8295,37,1,-1,-1,0
12332273,768,-8297,74,1,-1,-1,0
12332278,762,-8298,113,1,-1,-1,0
12332283,761,-8298,149,1,-1,-1,0
12332288,768,-8296,179,1,-1,-1,0
12332293,781,-8292,198,1,-1,-1,0
12332298,791,-8292,210,1,-1,-1,0
12332303,804,-8294,213,1,-1,-1,0
12332308,816,-8298,209,1,-1,-1,0
12332313,833,-8301,204,1,0,-1,0
12332318,853,-8298,200,0,1,-1,0
12332323,871,-8295,214,0,1,-1,0
12332328,892,-8290,239,0,1,-1,0
12332333,913,-8289,278,0,1,-1,0
12332338,931,-8292,324,0,1,-1,0
12332343,941,-8292,368,0,1,-1,0
12332348,944,-8292,404,0,0,-1,0
12332353,933,-8291,435,0,-1,-1,0
12332358,916,-8291,462,0,-2,-1,0
12332363,894,-8291,481,0,-2,-1,0
12332368,870,-8292,501,0,-2,-1,0
12332373,852,-8294,522,0,-3,-1,0
12332378,842,-8295,537,0,-3,-1,0
12332383,832,-8294,550,0,-3,-1,0
12332388,827,-8293,556,0,-4,-1,0
12332393,830,-8292,543,-1,-4,-1,0
12332398,838,-8293,518,-1,-4,-1,0
12332403,849,-8295,485,-1,-5,-1,0
12332408,859,-8294,448,-1,-6,-1,0
12332413,862,-8294,407,-1,-7,-1,0
12332418,859,-8294,368,-1,-7,-1,0
12332423,848,-8296,342,-1,-7,-1,0
12332428,831,-8293,325,-1,-6,-1,0
12332433,811,-8294,309,-1,-4,-1,0
12332438,795,-8295,301,-1,-3,-1,0
12332443,787,-8296,297,-1,-1,-1,0
12332448,787,-8296,284,-1,0,-1,0
12332453,798,-8295,274,-1,0,-1,0
12332458,821,-8294,276,-1,0,-1,0
12332463,855,-8291,281,-1,-1,-1,0
12332468,892,-8291,287,-1,-1,-1,0
12332473,930,-8293,295,-1,-2,-1,0
12332478,960,-8292,301,-1,-2,-1,0
12332483,981,-8290,309,-1,-3,-1,0
12332488,991,-8286,314,-1,-5,-1,0
12332493,992,-8283,318,-1,-6,-1,0
12332498,989,-8284,325,-1,-8,-1,0
12332503,981,-8286,332,-1,-8,-1,0
12332508,980,-8287,340,-1,-8,-1,0
12332513,986,-8288,344,-1,-8,-1,0
12332518,1003,-8289,342,-1,-8,-1,0
12332523,1027,-8290,333,-1,-8,-1,0
12332528,1050,-8288,315,-1,-8,-1,0
12332533,1062,-8288,292,-1,-9,-1,0
12332538,1062,-8289,271,-1,-10,-1,0
12332543,1045,-8289,244,-1,-11,-1,0
12332548,1023,-8290,218,-1,-11,-1,0
12332553,1002,-8289,190,-1,-10,-1,0
12332558,988,-8288,165,-1,-9,-1,0
12332563,984,-8290,148,-1,-8,-1,0
12332568,986,-8292,139,-1,-6,-1,0
12332573,998,-8291,139,-1,-5,-1,0
12332578,1008,-8292,145,-1,-4,-1,0
12332583,1013,-8292,163,-1,-3,-1,0
12332588,1013,-8289,182,-1,-3,-1,0
12332593,1012,-8290,198,-1,-3,-1,0
12332598,1009,-8291,219,-1,-4,-1,0
12332603,1008,-8293,239,-1,-5,-1,0
12332608,1012,-8291,251,-1,-6,-1,0
12332613,1016,-8291,257,-1,-6,-1,0
12332618,1024,-8292,252,-1,-7,-1,0
12332623,1038,-8292,240,-1,-7,-1,0
12332628,1050,-8294,221,-1,-8,-1,0
12332633,1055,-8292,195,-1,-9,-1,0
12332638,1056,-8291,171,-1,-10,-1,0
12332643,1051,-8288,154,-1,-10,-1,0
12332648,1038,-8287,138,-1,-10,-1,0
12332653,1020,-8286,124,-1,-8,-1,0
12332658,1006,-8289,118,-1,-7,-1,0
12332663,995,-8287,113,-1,-5,-1,0
12332668,981,-8290,108,-1,-5,-1,0
12332673,972,-8291,101,-1,-4,-1,0
12332678,964,-8291,107,-1,-3,-1,0
12332683,954,-8290,107,-1,-1,-1,0
12332688,949,-8288,97,-1,0,-1,0
12332693,949,-8291,89,-1,1,-1,0
12332698,957,-8293,76,-1,0,-1,0
12332703,967,-8292,57,-1,0,-1,0
12332708,978,-8292,46,-1,0,-1,0
12332713,991,-8293,43,-1,0,-1,0
12332718,1002,-8293,42,-1,0,-1,0
12332723,1011,-8293,44,-1,0,-1,0
12332728,1009,-8294,52,-1,0,-1,0
12332733,999,-8292,62,0,-1,-1,0
12332738,985,-8293,67,0,-1,-1,0
12332743,968,-8294,63,0,-2,-1,0
12332748,954,-8295,51,0,-2,-1,0
12332753,941,-8299,38,0,-1,-1,0
12332758,931,-8299,19,0,-1,-1,0
12332763,926,-8299,0,0,-1,-1,0
12332768,926,-8297,-17,0,-1,-1,0
12332773,927,-8295,-27,0,-1,-1,0
12332778,930,-8296,-34,0,-1,-1,0
12332783,932,-8297,-33,0,-1,-1,0
12332788,935,-8295,-31,0,-1,-1,0
12332793,942,-8298,-24,0,-1,-1,0
12332798,945,-8299,-13,0,0,-1,0
12332803,949,-8299,-2,0,0,-1,0
12332808,954,-8296,12,0,0,-1,0
12332813,955,-8292,28,0,0,-1,0
12332818,957,-8290,44,0,0,-1,0
12332823,961,-8292,61,0,0,-1,0
12332828,960,-8292,83,0,0,-1,0
12332833,960,-8290,102,0,0,-1,0
12332838,960,-8291,111,0,0,-1,0
12332843,956,-8293,127,1,-1,-1,0
12332848,948,-8293,143,1,-1,-1,0
12332853,939,-8296,153,1,-1,-1,0
12332858,930,-8296,164,1,0,-1,0
12332863,920,-8296,175,0,0,-1,0
12332868,912,-8294,180,0,0,-1,0
12332873,903,-8292,193,0,0,-1,0
12332878,898,-8293,204,0,0,-1,0
12332883,895,-8292,214,0,0,-1,0
12332888,895,-8290,224,0,0,-1,0
12332893,897,-8289,232,0,-1,-1,0
12332898,899,-8290,243,0,-1,-1,0
12332903,900,-8290,252,0,-1,-1,0
12332908,896,-8289,271,0,-1,-1,0
12332913,887,-8289,290,0,-2,-1,0
12332918,878,-8292,312,0,-2,-1,0
12332923,868,-8293,337,0,-2,-1,0
12332928,862,-8292,358,0,-2,-1,0
12332933,863,-8288,372,0,-2,-1,0
12332938,878,-8288,379,0,-1,-1,0
12332943,898,-8288,376,0,-1,-1,0
12332948,927,-8288,364,0,-1,-1,0
12332953,961,-8285,338,0,-1,-1,0
12332958,993,-8285,315,0,-1,-1,0
12332963,1017,-8286,297,0,-2,-1,0
12332968,1037,-8286,282,0,-2,-1,0
12332973,1045,-8285,271,0,-2,-1,0
12332978,1048,-8282,266,0,-2,-1,0
12332983,1045,-8284,262,0,-2,-1,0
12332988,1030,-8281,252,0,-2,-1,0
12332993,1018,-8282,237,0,-2,-1,0
12332998,1012,-8284,214,0,-3,-1,0
12333003,1003,-8283,198,0,-3,-1,0
12333008,999,-8286,186,0,-3,-1,0
12333013,992,-8286,175,0,-3,-1,0
12333018,983,-8284,169,0,-3,-1,0
12333023,976,-8286,170,0,-3,-1,0
12333028,965,-8287,176,0,-3,-1,0
12333033,953,-8287,184,0,-4,-1,0
12333038,936,-8287,193,0,-3,-1,0
12333043,917,-8287,205,0,-3,-1,0
12333048,900,-8289,215,0,-3,-1,0
12333053,890,-8290,221,0,-2,-1,0
12333058,885,-8290,225,0,-2,-1,0
12333063,888,-8289,223,0,-2,-1,0
12333068,902,-8289,215,0,-2,-1,0
12333073,917,-8286,197,0,-2,-1,0
12333078,937,-8286,187,0,-1,-1,0
12333083,955,-8286,177,0,-1,-1,0
12333088,964,-8288,166,0,-1,-1,0
12333093,974,-8290,157,0,-1,-1,0
12333098,977,-8291,154,0,-1,-1,0
12333103,979,-8290,161,0,0,-1,0
12333108,989,-8288,172,0,0,-1,0
12333113,1003,-8283,182,0,0,-1,0
12333118,1015,-8280,191,0,0,-1,0
12333123,1028,-8279,194,0,0,-1,0
12333128,1042,-8279,205,0,0,-1,0
12333133,1048,-8280,225,0,0,-1,0
12333138,1047,-8280,253,0,0,-1,0
12333143,1040,-8283,281,0,0,-1,0
12333148,1025,-8285,308,0,0,-1,0
12333153,1013,-8287,329,0,0,-1,0
12333158,1007,-8288,346,0,0,-1,0
12333163,1003,-8289,353,0,-1,-1,0
12333168,1002,-8289,356,0,-1,-1,0
12333173,1002,-8289,354,0,0,-1,0
12333178,1005,-8291,349,0,0,-1,0
12333183,1002,-8293,345,0,0,-1,0
12333188,992,-8295,332,0,-1,-1,0
12333193,976,-8294,329,0,0,-1,0
12333198,969,-8290,324,0,0,-1,0
12333203,963,-8288,319,0,0,-1,0
12333208,959,-8288,320,0,0,-1,0
12333213,968,-8289,314,0,0,-1,0
12333218,980,-8291,304,0,1,-1,0
12333223,999,-8293,300,0,1,-1,0
12333228,1019,-8293,294,0,1,-1,0
12333233,1038,-8290,288,-1,1,-1,0
12333238,1052,-8289,289,0,1,-1,0
12333243,1063,-8288,294,0,1,-1,0
12333248,1071,-8288,294,0,1,-1,0
12333253,1075,-8290,297,0,0,-1,0
12333258,1075,-8289,299,0,0,-1,0
12333263,1072,-8288,296,0,0,-1,0
12333268,1070,-8286,279,0,0,-1,0
12333273,1071,-8286,260,0,0,-1,0
12333278,1074,-8286,244,0,0,-1,0
12333283,1077,-8286,226,0,0,-1,0
12333288,1076,-8289,215,0,0,-1,0
12333293,1075,-8288,211,0,0,-1,0
12333298,1076,-8290,212,0,0,-1,0
12333303,1072,-8289,215,0,0,-1,0
12333308,1067,-8289,217,0,0,0,0
12333313,1067,-8291,220,0,0,0,0
12333318,1065,-8293,222,0,0,0,0
12333323,1063,-8295,222,0,0,0,0
12333328,1065,-8293,213,0,0,0,0
12333333,1060,-8293,207,0,0,0,0
12333338,1055,-8293,208,0,0,0,0
12333343,1048,-8291,200,0,0,0,0
12333348,1041,-8293,193,0,0,0,0
12333353,1034,-8293,187,0,0,0,0
12333358,1027,-8292,183,0,0,0,0
12333363,1022,-8290,182,0,0,0,0
12333368,1022,-8288,193,0,0,0,0
12333373,1026,-8288,209,0,0,0,0
12333378,1028,-8287,230,0,0,0,0
12333383,1031,-8283,249,0,0,0,0
12333388,1032,-8282,273,0,0,0,0
12333393,1024,-8284,287,0,-1,0,0
12333398,1016,-8284,297,0,-1,0,0
12333403,1001,-8286,306,0,-1,0,0
12333408,985,-8286,306,0,-1,-1,0
12333413,972,-8286,303,0,-1,0,0
12333418,968,-8286,303,0,-1,0,0
12333423,966,-8286,299,0,-1,-1,0
12333428,968,-8286,291,0,-1,-1,0
12333433,970,-8287,287,0,-2,-1,0
12333438,968,-8286,282,0,-2,-1,0
12333443,963,-8285,278,0,-1,-1,0
12333448,957,-8284,272,0,-1,-1,0
12333453,948,-8286,269,0,-1,-1,0
12333458,936,-8287,272,0,-1,-1,0
12333463,922,-8289,282,-1,-1,-1,0
12333468,916,-8289,298,-1,-1,-1,0
12333473,923,-8287,313,-1,-1,-1,0
12333478,937,-8287,326,-1,-1,-1,0
12333483,956,-8285,333,-1,-1,-1,0
12333488,974,-8284,334,-1,-1,-1,0
12333493,987,-8284,334,-1,-1,-1,0
12333498,995,-8286,329,-1,-1,-1,0
12333503,1000,-8285,320,-1,-1,-1,0
12333508,998,-8285,313,-1,-1,-1,0
12333513,1000,-8283,306,-1,-1,-1,0
12333518,1003,-8283,294,-1,-1,-1,0
12333523,1009,-8282,287,-1,-1,-1,0
12333528,1013,-8283,279,-1,-1,-1,0
12333533,1009,-8287,278,-1,-1,-1,0
12333538,1000,-8289,280,-1,-1,-1,0
12333543,985,-8290,283,-1,0,-1,0
12333548,973,-8290,286,-1,0,-1,0
12333553,958,-8293,289,-1,0,-1,0
12333558,953,-8289,287,-1,0,-1,0
12333563,959,-8287,282,-1,0,-1,0
12333568,974,-8285,266,-1,0,-1,0
12333573,990,-8286,253,-1,0,-1,0
12333578,1005,-8286,237,-1,0,-1,0
12333583,1019,-8287,230,-1,0,-1,0
12333588,1023,-8288,226,-1,0,-1,0
12333593,1023,-8288,224,-1,-1,-1,0
12333598,1020,-8289,219,-1,-1,-1,0
12333603,1016,-8287,213,-1,-1,-1,0
12333608,1018,-8291,211,-1,-1,-1,0
12333613,1028,-8292,200,-1,-1,-1,0
12333618,1045,-8294,187,-1,-1,-1,0
12333623,1059,-8295,179,-1,-1,-1,0
12333628,1069,-8292,170,-1,-1,-1,0
12333633,1070,-8290,166,-1,-1,-1,0
12333638,1064,-8287,161,-1,-1,-1,0
12333643,1052,-8287,157,-1,-1,-1,0
12333648,1036,-8288,146,0,-1,-1,0
12333653,1024,-8290,135,0,-1,-1,0
12333658,1015,-8289,121,0,0,-1,0
12333663,1010,-8290,108,0,0,-1,0
12333668,1010,-8293,100,0,0,-1,0
12333673,1012,-8294,104,0,0,-1,0
12333678,1017,-8292,114,0,0,-1,0
12333683,1023,-8288,128,0,0,-1,0
12333688,1030,-8287,147,0,0,-1,0
12333693,1033,-8289,163,0,0,-1,0
12333698,1033,-8290,176,0,0,-1,0
12333703,1036,-8288,181,0,0,-1,0
12333708,1041,-8287,184,0,0,0,0
12333713,1047,-8288,187,0,-1,0,0
12333718,1054,-8290,193,0,-1,0,0
12333723,1061,-8291,208,0,-1,0,0
12333728,1067,-8292,215,0,-1,-1,0
12333733,1069,-8293,223,0,-1,-1,0
12333738,1067,-8294,221,0,-1,-1,0
12333743,1059,-8291,219,0,-1,-1,0
12333748,1049,-8290,215,0,-1,-1,0
12333753,1034,-8291,210,0,-1,-1,0
12333758,1018,-8291,209,0,-1,-1,0
12333763,1006,-8291,209,0,0,-1,0
12333768,993,-8294,211,0,0,-1,0
12333773,981,-8294,218,0,0,-1,0
12333778,974,-8295,229,0,0,-1,0
12333783,973,-8294,243,0,0,-1,0
12333788,978,-8292,256,0,0,0,0
12333793,988,-8291,274,0,0,0,0
12333798,1000,-8291,286,0,0,-1,0
12333803,1015,-8292,299,0,0,-1,0
12333808,1025,-8293,303,0,-1,-1,0
12333813,1034,-8288,301,0,-1,-1,0
12333818,1037,-8285,298,0,-1,-1,0
12333823,1039,-8285,297,0,-1,-1,0
12333828,1032,-8286,291,0,-1,-1,0
12333833,1022,-8287,278,0,-1,-1,0
12333838,1008,-8288,275,0,-1,-1,0
12333843,993,-8289,272,0,-1,-1,0
12333848,980,-8287,266,0,-1,-1,0
