millis,ax,ay,az,gx,gy,gz,label
635737,576,-8178,-366,0,-6,-1,0
635742,586,-8176,-382,0,-6,-1,0
635747,599,-8176,-404,0,-6,-1,0
635752,617,-8178,-428,0,-7,-1,0
635757,637,-8177,-453,0,-7,-1,0
635762,655,-8175,-472,0,-7,-1,0
635767,672,-8176,-489,0,-8,-1,0
635772,686,-8178,-499,0,-9,-1,0
635777,697,-8176,-502,0,-10,-1,0
635782,705,-8175,-499,0,-11,-1,0
635787,712,-8175,-490,0,-12,-1,0
635792,727,-8174,-484,0,-13,-1,0
635798,745,-8175,-487,1,-13,-1,0
635802,763,-8175,-499,1,-14,-1,0
635807,784,-8170,-518,1,-14,-1,0
635812,807,-8167,-536,1,-14,-1,0
635817,834,-8166,-555,1,-14,-1,0
635822,852,-8165,-569,1,-14,-1,0
635827,863,-8164,-577,1,-14,-1,0
635832,861,-8168,-579,1,-14,-1,0
635837,847,-8171,-570,1,-13,-1,0
635842,826,-8170,-551,1,-13,-1,0
635847,805,-8170,-526,1,-12,-1,0
635852,782,-8171,-501,1,-12,-1,0
635857,754,-8172,-477,1,-13,-1,0
635862,731,-8175,-454,1,-13,-1,0
635867,707,-8176,-436,1,-14,-1,0
635872,683,-8179,-421,2,-14,-1,0
635877,662,-8179,-410,1,-15,-1,0
635882,643,-8180,-399,1,-14,-1,0
635887,628,-8179,-392,1,-14,-1,0
635892,618,-8179,-382,1,-13,-1,0
635897,612,-8182,-369,1,-13,-1,0
635902,603,-8182,-355,1,-13,-1,0
635907,601,-8182,-335,1,-14,-1,0
635912,605,-8182,-307,1,-15,-1,0
635917,611,-8184,-273,1,-16,-1,0
635922,621,-8185,-233,1,-18,-1,0
635927,638,-8184,-199,1,-20,-1,0
635932,656,-8184,-168,1,-23,-1,0
635937,676,-8183,-135,1,-27,-2,0
635942,698,-8183,-104,1,-31,-2,0
635947,722,-8183,-82,1,-34,-2,0
635952,747,-8184,-66,1,-38,-2,0
635957,772,-8182,-54,1,-40,-2,0
635962,795,-8183,-46,1,-42,-2,0
635967,809,-8182,-37,1,-43,-2,0
635972,809,-8185,-27,1,-42,-2,0
635977,799,-8184,-16,1,-41,-2,0
635982,780,-8184,-3,1,-38,-2,0
635987,751,-8184,6,1,-35,-2,0
635992,717,-8184,18,0,-31,-2,0
635997,678,-8189,35,0,-27,-2,0
636002,635,-8188,52,0,-22,-2,0
636007,595,-8188,71,0,-16,-1,0
636012,565,-8192,86,0,-10,-1,0
636017,548,-8197,93,-1,-3,-1,0
636022,559,-8194,88,-1,3,-1,0
636027,581,-8190,68,-1,6,-1,0
636032,594,-8189,40,-1,10,-1,0
636037,614,-8189,17,-1,14,-1,0
636042,644,-8189,-26,-1,19,-1,0
636047,703,-8189,-12,-2,21,-1,0
636053,774,-8190,16,-2,17,-1,0
636058,848,-8190,64,-2,8,-1,0
636063,900,-8191,116,-3,-4,-1,0
636069,945,-8188,146,-3,-15,-1,0
636073,999,-8186,213,-2,-25,-1,0
636079,1048,-8183,289,-2,-35,-1,0
636084,1077,-8179,315,-2,-43,-1,0
636089,1092,-8177,318,-2,-47,-1,0
636095,1100,-8179,315,-2,-48,-1,0
636100,1107,-8180,270,-1,-47,-1,0
636106,1111,-8182,205,-2,-45,-1,0
636111,1114,-8181,119,-2,-43,-1,0
636117,1114,-8174,19,-2,-41,-1,0
636122,1116,-8171,-74,-2,-38,0,0
636127,1114,-8169,-152,-2,-34,0,0
636132,1101,-8170,-217,-2,-29,0,0
636136,1106,-8162,-288,-2,-23,0,0
636141,1074,-8155,-346,-2,-12,1,0
636146,1090,-8152,-426,-2,0,1,0
636150,1105,-8153,-474,-2,9,1,0
636155,1085,-8154,-498,-3,12,1,0
636159,1099,-8154,-511,-3,8,0,0
636165,1074,-8155,-473,-3,-1,0,0
636170,953,-8157,-412,-2,-9,1,0
636174,801,-8160,-368,-2,-15,1,0
636179,737,-8164,-352,-2,-17,1,0
636184,675,-8171,-364,-1,-16,1,0
636188,613,-8174,-376,-2,-14,1,0
636192,612,-8174,-410,-2,-14,1,0
636198,612,-8174,-437,-2,-12,1,0
636203,598,-8173,-460,-2,-8,1,0
636207,618,-8175,-484,-2,-5,0,0
636212,638,-8173,-504,-2,-2,0,0
636218,640,-8177,-532,-2,-1,0,0
636223,662,-8178,-563,-2,-1,0,0
636228,675,-8178,-597,-2,-1,1,0
636233,679,-8173,-630,-1,-1,1,0
636238,703,-8170,-665,-1,0,1,0
636242,734,-8171,-700,-1,1,1,0
636247,752,-8173,-723,-1,2,1,0
636252,779,-8174,-733,-1,2,1,0
636257,790,-8175,-731,-1,2,1,0
636262,779,-8176,-713,-1,2,1,0
636267,772,-8178,-680,-1,2,1,0
636272,747,-8179,-651,-1,2,1,0
636277,703,-8177,-615,-1,2,1,0
636282,678,-8177,-594,-1,2,1,0
636287,644,-8178,-578,0,2,1,0
636292,608,-8178,-565,0,2,1,0
636297,596,-8176,-559,0,2,1,0
636302,581,-8172,-555,-1,4,1,0
636307,570,-8175,-549,0,4,0,0
636312,570,-8179,-536,0,5,0,0
636317,558,-8181,-529,0,6,0,0
636322,543,-8183,-509,-1,8,0,0
636327,532,-8183,-488,-1,11,0,0
636332,525,-8181,-468,-1,14,0,0
636337,515,-8181,-445,-1,16,0,0
636342,512,-8181,-423,-1,17,0,0
636347,507,-8180,-390,-1,16,0,0
636352,491,-8184,-356,-1,14,0,0
636357,485,-8183,-321,-1,12,0,0
636362,469,-8183,-289,-1,10,0,0
636367,451,-8184,-269,-1,8,0,0
636372,445,-8187,-258,-1,8,0,0
636377,440,-8189,-256,-1,8,0,0
636382,443,-8189,-276,-1,8,0,0
636387,462,-8188,-282,-1,8,-1,0
636392,472,-8186,-308,-1,8,-1,0
636398,488,-8187,-323,-1,9,-1,0
636402,505,-8186,-349,-1,10,-1,0
636407,508,-8182,-364,-1,12,-1,0
636412,517,-8182,-379,-1,15,-1,0
636417,525,-8181,-390,-1,18,-1,0
636422,532,-8182,-388,-1,21,-1,0
636427,546,-8181,-389,-1,24,-1,0
636433,561,-8181,-384,-1,26,-1,0
636438,581,-8184,-386,-1,27,-1,0
636443,598,-8183,-389,-1,27,-1,0
636448,616,-8183,-392,-1,26,-1,0
636453,634,-8183,-405,-1,25,-1,0
636458,650,-8181,-413,-1,24,-1,0
636463,670,-8182,-426,-1,23,-1,0
636468,694,-8183,-439,-1,21,-1,0
636473,719,-8181,-454,-1,19,-1,0
636477,753,-8180,-468,0,15,-1,0
636482,785,-8179,-477,0,9,-1,0
636487,814,-8178,-485,0,2,-1,0
636492,827,-8178,-488,0,-5,-1,0
636497,829,-8176,-481,0,-10,-1,0
636502,827,-8175,-473,0,-14,-1,0
636507,820,-8175,-457,0,-19,-2,0
636512,802,-8174,-445,1,-23,-2,0
636517,786,-8175,-431,1,-27,-2,0
636522,762,-8175,-412,1,-30,-2,0
636527,732,-8175,-395,1,-33,-2,0
636533,698,-8178,-375,1,-36,-2,0
636539,659,-8181,-355,1,-39,-2,0
636545,615,-8183,-330,1,-40,-2,0
636551,576,-8186,-305,1,-42,-3,0
636556,545,-8186,-292,1,-41,-2,0
636562,526,-8188,-288,1,-38,-2,0
636568,520,-8185,-287,1,-34,-2,0
636573,525,-8185,-282,0,-28,-2,0
636579,537,-8181,-279,0,-21,-2,0
636585,551,-8180,-272,0,-15,-2,0
636591,563,-8181,-267,0,-10,-2,0
636597,576,-8181,-257,0,-7,-2,0
636603,599,-8180,-241,0,-7,-2,0
636609,627,-8182,-233,0,-9,-2,0
636614,663,-8181,-210,0,-11,-2,0
636620,703,-8177,-200,0,-13,-2,0
636626,739,-8178,-182,0,-16,-2,0
636632,771,-8183,-160,0,-18,-2,0
636637,800,-8181,-147,0,-21,-2,0
636642,829,-8180,-140,0,-25,-2,0
636648,840,-8178,-136,0,-28,-2,0
636654,848,-8178,-132,0,-31,-2,0
636659,843,-8173,-142,0,-32,-2,0
636665,810,-8166,-227,0,-30,-2,0
636671,731,-8169,-394,1,-25,-3,0
636676,725,-8178,-410,1,-22,-3,0
636682,679,-8184,-540,0,-18,-2,0
636688,617,-8179,-602,-1,-13,-2,0
636694,612,-8175,-611,-1,-6,-1,0
636700,632,-8174,-655,0,5,-1,0
636706,675,-8173,-618,0,13,-1,0
636712,717,-8173,-626,0,18,-2,0
636717,762,-8172,-603,0,22,-2,0
636723,777,-8171,-576,0,23,-2,0
636728,777,-8172,-552,0,23,-1,0
636734,779,-8177,-496,0,23,-1,0
636739,760,-8179,-449,-1,24,-1,0
636745,766,-8179,-382,-1,25,-1,0
636750,781,-8178,-334,-1,25,-1,0
636754,800,-8178,-311,0,23,-1,0
636758,840,-8176,-295,0,18,-1,0
636763,882,-8177,-315,0,11,-1,0
636768,916,-8177,-336,0,3,-1,0
636773,948,-8174,-369,0,-4,-1,0
636778,967,-8174,-415,0,-8,-2,0
636784,971,-8171,-449,0,-11,-2,0
636789,975,-8169,-481,1,-12,-2,0
636795,966,-8168,-502,1,-14,-2,0
636799,935,-8166,-524,1,-15,-2,0
636803,910,-8169,-533,1,-15,-2,0
636807,882,-8170,-532,1,-14,-1,0
636811,852,-8169,-523,1,-12,-1,0
636815,848,-8168,-508,1,-9,-1,0
636819,855,-8168,-502,1,-7,-1,0
636823,870,-8170,-499,1,-6,-1,0
636827,907,-8168,-498,1,-8,-1,0
636831,940,-8167,-496,1,-11,-1,0
636835,963,-8170,-483,1,-15,-1,0
636841,979,-8173,-462,1,-20,-2,0
636847,967,-8172,-433,1,-23,-2,0
636852,940,-8176,-402,1,-27,-2,0
636857,910,-8177,-371,1,-29,-2,0
636861,882,-8177,-353,2,-28,-1,0
636867,854,-8175,-349,2,-26,-1,0
636873,866,-8173,-358,1,-27,-2,0
636878,854,-8172,-361,1,-28,-2,0
636884,827,-8173,-351,1,-31,-2,0
636888,781,-8175,-335,1,-31,-2,0
636893,715,-8176,-317,1,-28,-2,0
636899,654,-8176,-308,1,-22,-2,0
636903,611,-8176,-310,1,-15,-2,0
636907,582,-8175,-333,1,-8,-2,0
636912,565,-8177,-360,1,-4,-2,0
636917,563,-8179,-388,1,-1,-2,0
636922,567,-8181,-402,1,1,-2,0
636927,571,-8180,-399,1,2,-2,0
636932,590,-8179,-386,1,4,-2,0
636936,616,-8178,-364,1,6,-2,0
636941,639,-8178,-337,1,8,-2,0
636946,680,-8176,-306,1,10,-2,0
636950,722,-8177,-276,1,11,-2,0
636954,761,-8176,-250,1,10,-2,0
636959,802,-8176,-225,0,8,-2,0
636964,841,-8175,-202,0,6,-2,0
636968,876,-8176,-181,0,4,-2,0
636973,915,-8173,-168,0,2,-2,0
636978,946,-8173,-164,0,0,-2,0
636983,978,-8173,-167,0,-1,-1,0
636988,1021,-8175,-177,0,-3,-1,0
636992,1058,-8174,-182,0,-3,-1,0
636997,1085,-8171,-194,0,-4,-1,0
637002,1117,-8170,-213,0,-5,-1,0
637006,1144,-8173,-233,0,-6,-1,0
637011,1157,-8175,-249,1,-8,-1,0
637015,1166,-8175,-259,1,-13,-1,0
637019,1162,-8174,-267,1,-18,-1,0
637023,1142,-8169,-264,1,-23,-1,0
637027,1117,-8169,-257,1,-26,-1,0
637031,1086,-8167,-241,1,-28,-1,0
637035,1058,-8166,-228,1,-28,-1,0
637039,1036,-8166,-229,1,-27,-1,0
637044,1005,-8170,-243,1,-25,-1,0
637048,987,-8173,-256,1,-24,-1,0
637052,971,-8175,-270,1,-23,-1,0
637056,948,-8179,-281,1,-22,-1,0
637060,930,-8179,-283,0,-20,-1,0
637064,913,-8177,-280,0,-16,-1,0
637069,897,-8178,-266,0,-12,-1,0
637073,885,-8179,-253,0,-7,-1,0
637077,880,-8179,-240,0,-2,-1,0
637081,873,-8179,-225,0,1,0,0
637086,869,-8179,-211,0,2,0,0
637091,882,-8177,-190,0,2,0,0
637096,893,-8176,-166,0,2,0,0
637101,907,-8172,-146,0,1,0,0
637106,932,-8168,-133,0,1,0,0
637111,956,-8166,-138,0,1,0,0
637116,974,-8165,-150,0,-1,0,0
637121,980,-8166,-173,0,-3,0,0
637126,967,-8169,-201,0,-4,0,0
637131,951,-8172,-223,0,-5,0,0
637136,936,-8175,-243,0,-5,0,0
637141,927,-8174,-256,0,-5,0,0
637146,918,-8172,-261,0,-4,0,0
637151,910,-8172,-256,0,-3,0,0
637156,907,-8173,-247,0,-1,0,0
637161,904,-8172,-236,0,0,0,0
637166,905,-8170,-219,0,-1,0,0
637171,904,-8170,-204,0,-2,0,0
637176,905,-8171,-195,0,-3,0,0
637181,916,-8173,-184,0,-5,0,0
637186,926,-8171,-177,0,-7,0,0
637191,935,-8171,-172,0,-9,0,0
637196,948,-8171,-172,0,-11,0,0
637201,948,-8170,-175,0,-11,0,0
637206,937,-8171,-175,0,-12,0,0
637211,914,-8175,-181,-1,-11,0,0
637216,874,-8175,-184,-1,-10,0,0
637221,816,-8175,-185,-1,-8,0,0
637226,751,-8176,-187,-1,-5,0,0
637231,676,-8177,-185,-1,0,0,0
637236,600,-8180,-183,-1,6,0,0
637241,536,-8183,-178,-1,11,0,0
637246,475,-8184,-180,-1,17,0,0
637251,427,-8185,-196,-1,22,0,0
637256,403,-8184,-203,-2,27,0,0
637261,383,-8184,-223,-2,30,0,0
637266,385,-8186,-263,-2,34,0,0
637271,409,-8186,-269,-2,37,0,0
637276,434,-8184,-310,-2,38,0,0
637282,472,-8182,-322,-2,39,-1,0
637287,517,-8178,-327,-2,39,-1,0
637292,576,-8175,-351,-2,37,-1,0
637298,646,-8173,-345,-1,34,-1,0
637303,722,-8172,-360,-1,29,-1,0
637308,805,-8170,-375,-1,22,-1,0
637314,879,-8167,-372,-1,14,-1,0
637319,938,-8166,-375,-1,8,-1,0
637325,980,-8164,-365,-1,3,-1,0
637331,1002,-8166,-357,-1,0,-1,0
637336,1008,-8166,-347,-1,-2,-1,0
637341,996,-8164,-338,-1,-1,-1,0
637346,972,-8163,-330,-1,-1,-1,0
637352,953,-8163,-320,-1,0,-1,0
637356,934,-8163,-311,-1,1,-1,0
637361,928,-8163,-301,-1,0,-1,0
637366,936,-8163,-295,-1,-1,-1,0
637372,938,-8163,-291,-1,-2,-1,0
637377,946,-8161,-284,-1,-2,-1,0
637382,957,-8163,-286,-1,-2,-1,0
637386,960,-8163,-291,-1,-3,-1,0
637392,962,-8164,-296,-1,-5,-1,0
637397,963,-8165,-294,-1,-7,-1,0
637402,972,-8168,-285,-1,-10,-1,0
637407,988,-8172,-272,-1,-12,-1,0
637413,1003,-8171,-253,-1,-14,-1,0
637417,1013,-8170,-237,-1,-16,-1,0
637421,1025,-8171,-217,-1,-17,-1,0
637426,1031,-8172,-200,-1,-19,-1,0
637430,1036,-8173,-190,-1,-21,-1,0
637435,1045,-8173,-177,0,-24,-1,0
637440,1035,-8172,-161,0,-30,-1,0
637444,1024,-8173,-162,0,-34,-1,0
637449,1003,-8170,-149,0,-34,-1,0
637454,970,-8169,-162,0,-33,-1,0
637459,946,-8168,-177,0,-31,-1,0
637464,919,-8168,-191,0,-28,-1,0
637469,888,-8169,-229,-1,-25,-1,0
637473,851,-8171,-268,-1,-22,-1,0
637479,820,-8175,-305,-1,-19,-1,0
637483,795,-8175,-347,-1,-16,-1,0
637488,779,-8175,-371,-1,-14,-1,0
637493,780,-8173,-385,-1,-13,-1,0
637498,784,-8174,-378,-1,-12,0,0
637502,800,-8173,-348,-1,-12,0,0
637507,822,-8172,-313,-1,-13,0,0
637512,842,-8173,-285,-1,-14,-1,0
637517,861,-8171,-265,-1,-16,-1,0
637523,875,-8170,-258,-1,-20,-1,0
637528,877,-8173,-259,-1,-25,-1,0
637533,876,-8173,-264,-1,-31,-1,0
637538,869,-8171,-268,-1,-36,-1,0
637543,859,-8169,-275,0,-39,-1,0
637548,857,-8168,-282,0,-39,-1,0
637553,859,-8168,-289,0,-38,-1,0
637558,862,-8168,-294,0,-34,-1,0
637562,870,-8171,-301,-1,-30,-1,0
637568,882,-8173,-316,-1,-26,-1,0
637573,889,-8171,-332,-1,-23,-1,0
637577,898,-8170,-350,-1,-21,-1,0
637582,911,-8170,-366,-1,-19,-1,0
637588,914,-8169,-380,-1,-18,0,0
637592,912,-8168,-396,-1,-17,0,0
637597,903,-8168,-404,-1,-15,0,0
637601,878,-8170,-408,-1,-11,0,0
637606,890,-8169,-431,-1,-8,0,0
637611,881,-8171,-441,-1,-3,0,0
637616,863,-8171,-467,-1,2,0,0
637621,877,-8170,-488,-1,6,0,0
637627,864,-8170,-485,-1,9,0,0
637631,848,-8170,-484,-1,10,0,0
637636,841,-8171,-472,-1,11,0,0
637641,830,-8173,-458,-1,13,1,0
637646,831,-8170,-467,-1,16,1,0
637651,843,-8172,-470,-1,18,1,0
637656,858,-8171,-491,-1,18,1,0
637661,866,-8171,-511,-1,18,0,0
637666,864,-8168,-523,-1,16,0,0
637671,856,-8167,-535,-1,13,0,0
637676,830,-8167,-535,-1,9,0,0
637681,798,-8169,-524,-1,6,0,0
637686,770,-8171,-505,0,3,0,0
637691,727,-8173,-477,0,1,0,0
637696,700,-8173,-457,0,0,0,0
637701,677,-8174,-432,0,0,0,0
637706,658,-8174,-418,0,0,0,0
637711,668,-8174,-415,0,0,0,0
637716,685,-8174,-419,0,1,0,0
637721,702,-8174,-433,0,2,0,0
637726,731,-8174,-450,0,4,0,0
637731,748,-8175,-471,0,7,0,0
637736,760,-8176,-482,0,10,0,0
637741,775,-8175,-488,0,14,0,0
637747,778,-8173,-489,0,18,0,0
637752,784,-8173,-481,0,22,0,0
637758,790,-8172,-471,0,24,0,0
637763,800,-8174,-451,0,26,0,0
637769,820,-8172,-441,0,26,0,0
637774,848,-8171,-430,0,27,0,0
637780,863,-8169,-411,0,27,0,0
637785,891,-8169,-409,0,26,0,0
637791,921,-8169,-395,0,25,0,0
637796,939,-8166,-384,0,23,0,0
637801,964,-8165,-372,0,21,0,0
637806,991,-8163,-358,0,19,1,0
637812,1020,-8161,-353,0,17,1,0
637816,1049,-8165,-348,0,15,1,0
637821,1070,-8170,-347,0,13,1,0
637827,1074,-8173,-341,0,9,0,0
637832,1057,-8175,-336,0,6,0,0
637837,1027,-8174,-330,0,2,0,0
637842,976,-8173,-316,0,-2,0,0
637847,914,-8174,-308,0,-5,0,0
637853,858,-8176,-305,0,-8,0,0
637858,812,-8179,-289,0,-9,0,0
637864,768,-8178,-267,0,-9,0,0
637869,741,-8180,-228,0,-7,0,0
637874,726,-8178,-160,0,-2,0,0
637880,722,-8173,-100,-1,2,0,0
637885,730,-8173,-51,-1,5,0,0
637891,736,-8173,-19,0,5,0,0
637896,739,-8178,0,0,1,0,0
637901,731,-8180,-4,0,-4,0,0
637906,711,-8184,-4,-1,-9,0,0
637912,690,-8190,14,-1,-13,0,0
637917,673,-8190,43,-1,-17,-1,0
637923,642,-8188,49,-1,-19,-1,0
637929,599,-8190,-1,0,-17,-1,0
637934,600,-8196,13,0,-16,-1,0
637940,612,-8198,-30,-1,-17,-1,0
637945,625,-8196,-67,-1,-20,-1,0
637951,654,-8190,-74,-1,-23,-1,0
637957,685,-8182,-101,-1,-24,-1,0
637963,727,-8179,-104,-1,-22,-1,0
637969,774,-8178,-143,-1,-20,-1,0
637975,826,-8176,-186,-1,-19,-1,0
637981,865,-8177,-239,-1,-19,-1,0
637987,890,-8175,-305,-1,-22,-1,0
637992,915,-8175,-353,-1,-25,-1,0
637997,920,-8177,-387,-1,-27,-1,0
638003,920,-8173,-404,-1,-29,-1,0
638009,924,-8170,-419,-1,-28,-1,0
638015,912,-8168,-438,-1,-26,-1,0
638021,895,-8167,-448,-1,-24,-1,0
638027,875,-8170,-458,-1,-22,-1,0
638033,836,-8173,-466,-1,-19,-1,0
638038,801,-8176,-479,-1,-17,-1,0
638043,781,-8178,-494,-1,-14,0,0
638049,773,-8178,-497,-1,-11,0,0
638054,788,-8176,-495,-1,-9,0,0
638060,809,-8172,-495,-1,-8,0,0
638066,838,-8170,-490,-1,-7,0,0
638072,870,-8168,-494,0,-8,0,0
638077,902,-8167,-499,0,-10,0,0
638082,925,-8166,-508,0,-15,-1,0
638088,942,-8165,-516,0,-21,-1,0
638093,948,-8165,-520,0,-29,-1,0
638099,941,-8166,-514,0,-37,-1,0
638104,916,-8166,-498,0,-44,-1,0
638110,883,-8168,-476,0,-49,-1,0
638115,844,-8168,-453,1,-50,-1,0
638121,802,-8168,-441,1,-50,-1,0
638127,768,-8165,-436,1,-49,-1,0
638132,728,-8169,-438,1,-49,-1,0
638138,692,-8172,-435,1,-48,-2,0
638143,656,-8177,-440,1,-45,-1,0
638149,621,-8179,-446,0,-40,-1,0
638154,602,-8181,-446,0,-34,-1,0
638159,592,-8179,-446,0,-27,-1,0
638165,598,-8175,-450,0,-20,-1,0
638171,619,-8174,-455,0,-14,-1,0
638176,646,-8172,-464,0,-9,-1,0
638182,680,-8173,-466,0,-5,-1,0
638187,712,-8171,-461,0,-3,-1,0
638193,749,-8172,-449,0,-1,-1,0
638199,783,-8173,-429,0,0,-1,0
638204,805,-8174,-405,0,0,-1,0
638209,828,-8174,-379,0,0,-1,0
638215,843,-8175,-358,0,-1,-1,0
638220,852,-8178,-338,0,-3,-1,0
638226,862,-8180,-323,0,-5,-1,0
638232,867,-8181,-312,0,-8,-1,0
638237,873,-8181,-304,0,-10,-1,0
638243,882,-8182,-300,0,-13,-1,0
638247,891,-8183,-301,0,-15,-1,0
638253,892,-8181,-303,0,-16,-1,0
638258,891,-8181,-314,0,-18,-1,0
638263,887,-8181,-324,0,-19,-1,0
638269,875,-8181,-332,0,-19,-1,0
638274,857,-8178,-333,0,-19,-1,0
638280,837,-8176,-334,0,-18,-1,0
638284,821,-8174,-334,0,-16,-1,0
638290,810,-8178,-343,0,-13,-1,0
638295,807,-8178,-352,0,-10,0,0
638301,816,-8177,-354,0,-8,0,0
638306,831,-8176,-352,0,-8,-1,0
638312,845,-8173,-360,0,-9,-1,0
638318,857,-8172,-355,0,-11,-1,0
638323,866,-8174,-354,0,-13,-1,0
638327,874,-8176,-358,0,-16,-1,0
638331,884,-8175,-364,0,-19,-1,0
638335,890,-8174,-377,0,-22,-1,0
638340,885,-8171,-387,0,-25,-1,0
638344,868,-8167,-399,0,-27,-1,0
638348,839,-8167,-407,0,-27,-1,0
638352,816,-8170,-408,0,-26,-1,0
638356,786,-8171,-408,0,-25,-1,0
638361,758,-8171,-415,0,-23,-1,0
638365,749,-8174,-421,0,-21,-1,0
638369,743,-8177,-429,0,-19,-1,0
638373,747,-8176,-437,0,-19,-1,0
638377,752,-8178,-440,0,-19,-1,0
638381,762,-8176,-448,0,-20,-1,0
638385,767,-8176,-451,0,-20,-1,0
638389,778,-8176,-453,0,-21,-1,0
638393,787,-8176,-455,0,-22,-1,0
638397,786,-8176,-453,0,-23,-1,0
638401,785,-8174,-450,0,-25,-1,0
638405,776,-8173,-441,0,-26,-1,0
638409,754,-8173,-431,0,-27,-1,0
638413,729,-8173,-420,0,-27,-1,0
638417,706,-8172,-412,0,-26,-1,0
638421,675,-8172,-408,0,-24,-1,0
638425,649,-8174,-406,0,-22,-1,0
638429,619,-8173,-405,0,-19,-1,0
638433,571,-8173,-396,0,-15,-1,0
638437,508,-8176,-391,0,-10,-1,0
638441,423,-8177,-388,0,-2,-2,0
638445,312,-8179,-379,-1,9,-2,0
638449,208,-8184,-371,-1,21,-2,0
638453,143,-8190,-360,-1,33,-1,0
638457,107,-8193,-341,-1,45,-1,0
638461,108,-8191,-330,-2,57,0,0
638465,160,-8186,-316,-2,68,0,0
638469,237,-8183,-313,-2,78,0,0
638473,318,-8180,-322,-2,87,-1,0
638477,393,-8177,-336,-2,92,-1,0
638481,462,-8174,-361,-2,94,-1,0
638485,522,-8170,-383,-2,92,-1,0
638489,589,-8170,-403,-2,86,-1,0
638493,670,-8168,-417,-2,79,-1,0
638497,759,-8166,-440,-2,71,-1,0
638501,859,-8160,-467,-1,62,-1,0
638505,964,-8157,-499,-1,52,-1,0
638509,1057,-8157,-534,-1,42,-1,0
638513,1138,-8155,-576,0,29,-2,0
638517,1209,-8155,-613,0,15,-2,0
638521,1242,-8154,-628,0,0,-2,0
638525,1241,-8157,-623,1,-12,-2,0
638529,1225,-8157,-599,1,-20,-2,0
638533,1190,-8155,-562,1,-24,-2,0
638537,1145,-8156,-520,1,-25,-2,0
638541,1096,-8156,-482,1,-24,-2,0
638546,1043,-8160,-451,1,-22,-2,0
638551,984,-8164,-414,1,-20,-2,0
638556,928,-8167,-365,1,-17,-2,0
638561,880,-8171,-312,0,-13,-2,0
638566,838,-8172,-253,0,-9,-2,0
638571,809,-8171,-195,0,-4,-2,0
638576,811,-8170,-161,0,-1,-2,0
638582,837,-8172,-149,0,0,-2,0
638587,877,-8175,-160,0,-1,-2,0
638593,923,-8176,-184,0,-4,-2,0
638598,970,-8175,-215,0,-8,-2,0
638603,1010,-8177,-238,0,-10,-2,0
638608,1040,-8174,-246,0,-13,-2,0
638612,1059,-8171,-245,0,-14,-2,0
638617,1067,-8171,-237,0,-15,-2,0
638622,1064,-8170,-230,0,-15,-2,0
638627,1056,-8171,-229,0,-16,-2,0
638632,1042,-8172,-235,0,-17,-2,0
638636,1027,-8174,-248,0,-18,-2,0
638642,1018,-8174,-266,0,-18,-1,0
638647,1011,-8174,-291,0,-19,-1,0
638652,1002,-8174,-315,0,-18,-1,0
638656,996,-8172,-337,0,-17,-1,0
638661,982,-8171,-347,0,-16,-1,0
638666,969,-8173,-351,0,-14,-1,0
638671,951,-8174,-352,0,-12,-1,0
638676,933,-8176,-350,0,-10,-1,0
638681,916,-8176,-342,0,-9,-1,0
638686,905,-8175,-332,0,-7,-1,0
638691,906,-8174,-322,0,-5,-1,0
638696,920,-8174,-319,0,-2,-1,0
638701,939,-8172,-318,0,0,-1,0
638706,971,-8171,-324,0,2,-1,0
638711,1004,-8171,-329,0,3,-1,0
638716,1032,-8171,-332,-1,3,-1,0
638721,1055,-8171,-326,-1,2,-1,0
638726,1069,-8172,-310,-1,1,-1,0
638731,1074,-8173,-293,-1,0,-1,0
638736,1073,-8173,-276,0,-1,-1,0
638740,1061,-8174,-251,-1,-2,-1,0
638746,1043,-8171,-231,-1,-3,0,0
638751,1027,-8167,-216,-1,-3,0,0
638756,1015,-8166,-214,-1,-3,0,0
638761,1007,-8166,-217,-1,-4,0,0
638766,1010,-8166,-232,-1,-4,0,0
638771,1018,-8163,-247,-1,-5,0,0
638776,1031,-8164,-263,-1,-6,0,0
638781,1041,-8164,-280,-1,-7,0,0
638785,1048,-8163,-295,-1,-9,0,0
638790,1048,-8160,-301,-1,-10,0,0
638795,1044,-8160,-305,-1,-12,0,0
638800,1028,-8163,-308,-1,-13,0,0
638806,1008,-8164,-309,-1,-14,0,0
638810,987,-8163,-310,-1,-14,0,0
638815,966,-8166,-319,-1,-14,0,0
638821,946,-8167,-332,0,-15,0,0
638825,927,-8168,-349,0,-15,0,0
638831,909,-8171,-366,0,-15,0,0
638835,895,-8168,-382,0,-15,0,0
638840,888,-8169,-401,0,-15,0,0
638845,883,-8169,-413,0,-15,0,0
638851,880,-8167,-420,-1,-14,0,0
638855,878,-8168,-422,-1,-14,0,0
638860,880,-8167,-413,-1,-13,0,0
638865,884,-8168,-403,0,-12,0,0
638871,890,-8167,-392,-1,-12,0,0
638875,898,-8165,-376,-1,-11,0,0
638880,910,-8161,-367,-1,-11,0,0
638886,920,-8162,-356,0,-10,0,0
638890,930,-8162,-345,-1,-10,0,0
638896,941,-8163,-333,-1,-10,0,0
638901,952,-8164,-319,-1,-10,0,0
638906,960,-8166,-306,-1,-10,0,0
638910,966,-8167,-298,-1,-11,0,0
638915,967,-8168,-286,-1,-11,0,0
638920,964,-8169,-272,-1,-11,0,0
638925,962,-8172,-256,-1,-12,0,0
638931,955,-8175,-240,-1,-12,0,0
638936,946,-8173,-227,-1,-12,0,0
638940,937,-8171,-211,-1,-13,0,0
638945,930,-8171,-193,-1,-13,0,0
638950,921,-8171,-178,-1,-12,0,0
638955,915,-8172,-162,-1,-12,0,0
638960,915,-8175,-146,-1,-12,0,0
638965,921,-8176,-136,-1,-12,0,0
638970,932,-8178,-134,-1,-13,0,0
638975,941,-8176,-138,-1,-15,0,0
638980,945,-8172,-155,-1,-17,0,0
638985,942,-8170,-178,-1,-18,0,0
638991,933,-8172,-210,-1,-19,0,0
638996,918,-8172,-259,-1,-20,0,0
639000,901,-8172,-311,-1,-21,0,0
639005,885,-8174,-368,-1,-22,0,0
639010,869,-8175,-424,-1,-22,0,0
639015,857,-8176,-475,-1,-22,0,0
639020,844,-8175,-517,-1,-22,0,0
639025,826,-8173,-546,-1,-20,0,0
639031,803,-8173,-569,-1,-17,0,0
639035,776,-8174,-581,-1,-13,0,0
639040,751,-8173,-590,-1,-10,0,0
639045,722,-8173,-592,-1,-7,0,0
639050,701,-8174,-594,-1,-5,0,0
639055,685,-8173,-596,-1,-3,0,0
639060,674,-8172,-591,-1,-1,0,0
639066,676,-8172,-588,-1,1,0,0
639071,685,-8169,-586,-1,2,0,0
639075,698,-8168,-585,-1,2,0,0
639080,713,-8170,-576,-1,2,0,0
639085,723,-8170,-570,-1,1,0,0
639090,723,-8170,-558,-1,0,0,0
639095,718,-8170,-545,-1,-1,0,0
639100,710,-8169,-537,-1,0,0,0
639105,706,-8168,-533,-1,1,0,0
639111,708,-8170,-535,-1,1,0,0
639115,717,-8171,-541,-1,2,0,0
639120,739,-8171,-552,-1,2,0,0
639126,761,-8169,-561,-1,1,0,0
639131,782,-8170,-571,-1,0,0,0
639136,799,-8169,-576,-1,0,0,0
639140,814,-8166,-577,-1,0,0,0
639145,822,-8166,-570,-1,0,0,0
639150,825,-8170,-556,-1,0,0,0
639155,826,-8172,-537,-1,1,0,0
639160,824,-8172,-514,-1,1,0,0
639166,824,-8172,-491,-1,1,0,0
639171,821,-8173,-472,0,1,0,0
639175,822,-8173,-461,-1,2,0,0
639181,826,-8173,-455,0,2,0,0
639186,832,-8174,-453,0,2,0,0
639190,834,-8175,-451,0,1,0,0
639195,833,-8174,-452,0,1,0,0
639200,829,-8171,-453,0,1,0,0
639205,822,-8168,-457,0,1,0,0
639210,814,-8167,-452,-1,2,0,0
639215,803,-8169,-448,-1,2,0,0
639220,796,-8170,-446,-1,3,0,0
639225,796,-8172,-445,-1,4,0,0
639230,802,-8171,-435,-1,4,0,0
639236,807,-8170,-428,-1,5,0,1
639241,817,-8171,-422,-1,5,0,1
639245,835,-8172,-417,-1,5,0,1
639250,854,-8172,-413,-1,4,0,1
639255,870,-8170,-408,-1,2,0,1
639260,882,-8169,-400,-1,0,0,1
639265,887,-8169,-390,-1,-2,0,1
639270,881,-8170,-380,-1,-2,-1,1
639276,868,-8169,-374,-1,-2,-1,1
639281,849,-8169,-371,-1,-2,-1,1
639286,836,-8170,-369,-1,-2,-1,1
639291,825,-8171,-367,-1,-2,0,1
639297,815,-8172,-371,-1,-2,0,1
639302,809,-8175,-373,-1,-1,0,1
639307,809,-8175,-374,-1,-1,0,1
639313,811,-8178,-374,-1,-1,-1,1
639318,815,-8179,-376,-1,-1,-1,1
639323,818,-8179,-379,-1,-1,-1,1
639329,821,-8178,-372,-1,-1,-1,1
639334,826,-8179,-360,-1,-2,-1,1
639339,827,-8176,-350,-1,-4,-1,1
639343,825,-8176,-333,-1,-5,-1,1
639347,816,-8176,-325,-1,-6,-1,1
639352,805,-8176,-312,-1,-5,-1,1
639358,799,-8174,-306,-1,-4,-1,1
639363,794,-8175,-312,-1,-3,-1,1
639368,795,-8174,-324,-1,-2,-1,1
639373,799,-8170,-342,-1,-1,-1,1
639378,809,-8170,-357,-1,0,-1,1
639383,821,-8171,-373,-1,1,-1,1
639387,833,-8173,-383,-1,2,-1,1
639392,845,-8174,-382,-1,2,-1,1
639397,855,-8176,-380,-1,2,-1,1
639402,860,-8174,-377,-1,2,-1,1
639407,864,-8172,-377,-1,1,-1,1
639412,860,-8170,-375,-1,0,-1,1
639417,848,-8169,-378,-1,-1,-1,1
639422,832,-8166,-387,-1,-2,-1,1
639427,813,-8168,-394,-1,-3,-1,1
639432,793,-8168,-405,-1,-3,-1,1
639437,769,-8169,-418,-1,-3,-1,1
639442,747,-8173,-429,-1,-2,-1,1
639447,731,-8173,-432,-1,-1,-1,1
639452,716,-8173,-434,-1,-1,-1,1
639457,707,-8171,-435,-1,0,-1,1
639462,706,-8170,-435,-1,1,-1,1
639467,713,-8169,-434,-1,1,-1,1
639471,731,-8171,-439,-1,1,-1,1
639476,752,-8172,-450,-1,0,-1,1
639481,782,-8173,-469,-1,-1,-1,1
639486,816,-8172,-489,-1,-2,-1,1
639492,847,-8171,-513,-1,-3,-1,1
639497,873,-8167,-531,-1,-3,-1,1
639502,890,-8164,-543,-1,-4,-1,1
639507,899,-8165,-549,-1,-5,-1,1
639512,896,-8164,-548,-1,-5,-1,1
639517,887,-8165,-541,-1,-5,-1,1
639522,876,-8164,-536,-1,-5,-1,1
639527,866,-8165,-530,-1,-4,-1,1
639532,856,-8165,-524,-1,-4,-1,1
639538,850,-8167,-518,-1,-3,-1,1
639542,849,-8166,-511,-1,-3,-1,1
639547,850,-8166,-503,-1,-3,-1,1
639551,851,-8168,-496,-1,-4,-1,1
639555,852,-8170,-486,-1,-5,-1,1
639560,848,-8171,-477,-1,-5,-1,1
639565,843,-8171,-469,-1,-5,-1,1
639570,838,-8167,-463,-1,-4,-1,1
639575,835,-8166,-460,-1,-4,-1,1
639580,836,-8167,-459,-1,-4,-1,1
639585,838,-8168,-458,-1,-4,-1,1
639590,844,-8169,-463,-1,-4,-1,1
639595,857,-8169,-468,-1,-5,-1,1
639600,871,-8171,-474,-1,-6,-1,1
639605,887,-8167,-484,0,-7,-1,1
639610,905,-8168,-490,0,-8,-1,1
639615,915,-8171,-491,0,-9,-1,1
639620,917,-8170,-494,0,-10,-1,1
639625,912,-8169,-496,0,-11,-1,1
639630,907,-8168,-495,0,-10,-1,1
639635,900,-8167,-490,0,-10,-1,1
639640,893,-8169,-483,0,-9,-1,1
639645,895,-8169,-477,0,-8,-1,1
639650,903,-8169,-477,0,-7,-1,1
639655,915,-8173,-476,0,-6,-1,1
639660,932,-8173,-475,0,-6,-1,1
639665,946,-8170,-479,0,-6,-1,1
639670,954,-8167,-481,0,-6,-1,1
639675,957,-8165,-478,0,-6,-1,1
639680,951,-8164,-475,0,-6,-1,1
639685,943,-8164,-470,0,-6,-1,1
639690,931,-8165,-463,0,-6,-1,1
639695,925,-8163,-460,0,-6,-1,1
639700,923,-8164,-458,0,-5,-1,1
639705,928,-8163,-461,0,-4,-1,1
639710,941,-8164,-471,0,-3,-1,1
639715,959,-8162,-489,0,-3,-1,1
639720,977,-8162,-504,0,-4,-1,1
639725,993,-8162,-515,0,-6,-1,1
639730,1005,-8160,-519,0,-8,-1,1
639735,1006,-8160,-512,0,-9,-1,1
639740,995,-8164,-497,0,-9,-1,1
639745,975,-8167,-475,0,-8,-1,1
639750,951,-8169,-452,0,-7,-1,1
639755,926,-8168,-431,0,-7,-1,1
639760,902,-8169,-413,0,-6,-1,1
639765,883,-8169,-399,0,-6,0,1
639770,868,-8170,-394,0,-5,-1,1
639775,864,-8172,-392,0,-5,0,1
639780,863,-8174,-400,0,-5,-1,1
639785,863,-8176,-414,0,-6,-1,1
639790,865,-8178,-430,0,-7,-1,1
639796,864,-8176,-449,0,-8,-1,1
639801,869,-8174,-463,0,-9,-1,1
639806,873,-8171,-471,0,-10,-1,1
639811,876,-8171,-479,0,-12,-1,1
639817,881,-8172,-488,0,-13,-1,1
639821,885,-8171,-494,0,-14,-1,1
639827,892,-8170,-500,0,-14,-1,1
639833,900,-8169,-506,0,-15,-1,1
639838,907,-8167,-508,0,-17,-1,1
639844,916,-8167,-507,0,-18,-1,1
639850,923,-8167,-505,0,-20,-1,1
639856,923,-8168,-498,0,-21,-1,1
639860,924,-8167,-493,0,-23,-1,1
639865,925,-8167,-486,0,-24,-1,1
639870,930,-8167,-478,0,-25,-1,1
639875,939,-8171,-482,0,-27,-1,1
639880,950,-8172,-483,0,-28,-1,1
639885,966,-8170,-491,0,-30,-1,1
639890,979,-8168,-496,0,-32,-1,1
639895,994,-8165,-502,0,-34,-1,1
639900,1005,-8164,-505,0,-37,-1,1
639905,1015,-8167,-500,0,-40,-1,1
639910,1014,-8168,-499,0,-42,-1,1
639915,1010,-8168,-487,0,-44,-1,1
639919,1002,-8166,-471,0,-45,-1,1
639924,990,-8164,-454,0,-46,-1,1
639929,974,-8165,-440,0,-47,-1,1
639934,956,-8168,-421,0,-48,-1,1
639939,944,-8170,-404,0,-49,-1,1
639944,929,-8172,-391,0,-50,-1,1
639949,917,-8172,-373,0,-51,-1,1
639954,902,-8174,-358,0,-51,-1,1
639958,889,-8172,-334,0,-50,-1,1
639963,871,-8171,-318,0,-49,-1,1
639968,850,-8170,-303,0,-48,-1,1
639973,825,-8171,-291,0,-47,-1,1
639977,798,-8170,-279,0,-45,-1,1
639981,764,-8172,-272,0,-42,-1,1
639987,741,-8172,-289,0,-39,-1,1
639991,711,-8169,-317,0,-32,-1,1
639996,658,-8169,-380,0,-21,0,1
640000,596,-8168,-477,-1,-4,0,1
640005,516,-8165,-600,-1,18,0,1
640010,393,-8161,-774,-1,46,1,1
640015,212,-8161,-939,-1,85,1,1
640020,-16,-8146,-1092,-1,138,2,1
640025,-245,-8150,-1213,-1,206,3,1
640030,-459,-8160,-1303,-1,285,6,1
640035,-708,-8186,-1355,-2,363,8,1
640040,-1005,-8209,-1329,-5,433,8,1
640045,-1215,-8223,-1303,-8,503,8,1
640050,-1249,-8217,-1282,-11,578,8,1
640055,-1201,-8218,-1112,-12,661,11,1
640060,-1183,-8219,-795,-12,750,14,1
640065,-1150,-8222,-394,-14,841,16,1
640070,-1103,-8236,123,-15,930,16,1
640075,-1033,-8233,747,-17,1013,16,1
640080,-922,-8217,1230,-18,1081,15,1
640085,-739,-8208,1723,-18,1133,15,1
640090,-451,-8213,2112,-18,1164,16,1
640095,-49,-8191,2263,-18,1164,17,1
640100,-443,-8203,2377,-17,1120,15,1
640105,-679,-8180,2385,-17,1006,4,1
640110,-291,-8164,2599,-16,874,0,1
640115,-546,-8234,2564,-15,739,2,1
640120,-57,-8250,2817,-13,586,0,1
640125,381,-8275,2855,-10,436,-1,1
640130,1188,-8269,2700,-6,277,-3,1
640136,1546,-8243,2934,-4,128,-2,1
640141,1860,-8231,2872,-3,-3,-2,1
640147,1835,-8218,2824,-3,-87,-1,1
640153,1640,-8205,2765,-2,-132,-1,1
640158,1503,-8191,2601,-1,-142,-3,1
640164,1442,-8188,2453,-1,-127,-3,1
640170,1462,-8186,2253,-2,-105,-3,1
640176,1530,-8183,2025,-2,-89,-3,1
640181,1697,-8182,1786,-2,-82,-3,1
640187,1874,-8176,1508,-2,-85,-2,1
640193,1993,-8172,1286,-2,-99,-2,1
640199,2093,-8168,1052,-2,-121,-3,1
640205,2080,-8162,834,-2,-145,-3,1
640211,1991,-8159,658,-1,-168,-3,1
640217,1856,-8157,452,0,-185,-3,1
640222,1623,-8157,282,0,-193,-2,1
640227,1399,-8158,105,1,-195,-2,1
640233,1217,-8158,-81,1,-189,-2,1
640239,1025,-8159,-213,2,-177,-2,1
640244,879,-8164,-354,2,-165,-2,1
640251,736,-8168,-472,2,-150,-2,1
640256,576,-8174,-553,2,-135,-1,1
640262,444,-8180,-640,1,-118,-1,1
640268,327,-8184,-701,1,-100,-1,1
640274,218,-8186,-729,0,-82,0,1
640279,160,-8186,-725,0,-65,0,1
640285,127,-8185,-673,0,-50,0,1
640291,133,-8183,-593,0,-37,0,1
640297,172,-8179,-512,0,-28,0,1
640302,210,-8177,-429,0,-23,0,1
640306,271,-8173,-371,0,-20,0,1
640312,314,-8171,-347,0,-19,0,1
640318,326,-8173,-340,0,-20,0,1
640323,335,-8175,-357,0,-20,0,1
640327,317,-8177,-383,0,-19,0,1
640332,279,-8179,-394,0,-17,0,1
640337,245,-8181,-402,0,-15,0,1
640342,216,-8182,-394,0,-11,0,1
640346,211,-8184,-372,0,-8,0,1
640349,243,-8186,-348,0,-6,0,1
640353,289,-8185,-319,0,-6,0,1
640358,374,-8184,-281,0,-10,0,1
640363,477,-8183,-247,0,-16,0,1
640368,556,-8181,-202,0,-24,0,1
640372,630,-8178,-153,1,-31,-1,1
640377,672,-8177,-117,1,-36,-1,1
640382,675,-8177,-82,1,-38,-1,1
640387,671,-8181,-70,1,-39,-1,1
640392,638,-8182,-67,1,-38,-1,1
640397,596,-8183,-67,1,-36,-1,1
640402,560,-8186,-78,1,-34,-1,1
640406,510,-8188,-78,0,-31,0,1
640411,461,-8188,-75,0,-28,0,1
640416,433,-8189,-70,0,-23,0,1
640420,406,-8189,-63,0,-17,0,1
640425,402,-8187,-57,0,-13,0,1
640430,411,-8190,-57,0,-10,0,1
640435,405,-8193,-61,0,-8,0,1
640440,402,-8194,-66,0,-7,-1,1
640445,392,-8193,-61,0,-5,-1,1
640450,373,-8193,-54,0,-3,-1,1
640455,362,-8192,-51,0,-2,-1,1
640459,348,-8192,-50,0,-2,-1,1
640465,335,-8190,-54,0,-2,-1,1
640470,336,-8188,-64,0,-2,-1,1
640475,340,-8188,-75,0,0,-1,1
640479,354,-8189,-96,0,0,-1,1
640484,390,-8188,-113,0,0,-1,1
640490,416,-8186,-130,0,1,-1,1
640494,447,-8183,-149,0,1,-1,1
640499,486,-8182,-161,0,2,-1,1
640503,516,-8184,-165,0,2,-1,1
640508,546,-8182,-164,0,3,-1,1
640513,569,-8180,-155,0,4,-1,1
640517,577,-8180,-145,0,5,-1,1
640521,594,-8179,-134,0,7,-1,1
640526,608,-8181,-122,0,8,-1,1
640532,614,-8181,-105,0,7,-1,1
640538,623,-8180,-93,0,4,-1,1
640542,612,-8180,-82,0,1,-1,1
640548,590,-8181,-74,0,-1,-1,1
640554,570,-8180,-72,0,-2,-1,1
640560,546,-8182,-74,0,-1,-1,1
640565,537,-8184,-76,0,-1,-1,1
640571,537,-8184,-78,0,-2,-1,1
640577,541,-8185,-75,0,-2,-1,1
640583,552,-8185,-71,0,-3,-1,1
640589,562,-8186,-61,0,-3,-1,1
640595,566,-8186,-52,0,-2,-1,1
640601,578,-8183,-39,0,-2,-1,1
640606,586,-8179,-24,0,-1,-1,1
640612,594,-8175,-11,0,0,-1,1
640618,605,-8176,-1,0,0,-1,1
640623,610,-8178,6,0,-1,-1,1
640628,612,-8182,16,0,-1,-1,1
640634,613,-8181,25,0,-2,-1,1
640640,609,-8180,33,0,-2,-1,1
640645,610,-8178,46,0,-2,-1,1
640651,607,-8177,52,0,-2,-1,1
640657,600,-8175,47,0,-2,-1,1
640662,605,-8175,39,0,-2,-1,1
640668,610,-8174,26,-1,-2,-1,1
640674,608,-8173,2,-1,-2,-1,1
640680,614,-8173,-19,-1,-2,-1,1
640686,616,-8176,-44,-1,-1,-1,1
640692,615,-8181,-60,-1,-1,-1,1
640698,608,-8182,-72,-1,-1,-1,1
640704,598,-8184,-79,-1,0,-1,1
640710,585,-8185,-89,-1,0,-1,1
640716,577,-8184,-98,-1,1,-1,1
640721,571,-8186,-110,-1,2,-1,1
640726,571,-8187,-116,-1,1,-1,1
640731,575,-8188,-111,-1,1,-1,1
640736,575,-8186,-106,-1,0,-1,1
640741,582,-8184,-97,-1,0,-1,1
640746,594,-8182,-85,-1,0,-1,1
640751,606,-8179,-75,-1,-1,-1,1
640757,620,-8177,-63,-1,-1,-1,1
640761,633,-8178,-60,-1,-1,-1,1
640765,640,-8178,-62,0,-1,-1,1
640770,650,-8180,-65,0,-1,-1,1
640774,658,-8181,-66,-1,-1,-1,1
640778,660,-8178,-63,-1,-1,-1,1
640782,662,-8179,-61,-1,-1,-1,1
640786,655,-8178,-55,-1,-1,-1,1
640791,641,-8181,-51,-1,0,-1,1
640795,630,-8184,-45,-1,0,-1,1
640799,621,-8184,-40,-1,0,-1,1
640803,610,-8186,-37,-1,0,-1,1
640807,605,-8184,-36,-1,-1,-1,1
640811,602,-8180,-37,-1,-1,-1,1
640816,599,-8181,-40,-1,-2,-1,1
640820,595,-8179,-50,-1,-2,-1,1
640824,595,-8179,-54,-1,-2,-1,1
640828,592,-8179,-62,-1,-2,-1,1
640832,595,-8179,-69,-1,-2,-1,1
640836,595,-8182,-74,-1,-3,-1,1
640841,589,-8182,-78,-1,-3,-1,1
640845,587,-8185,-94,-1,-3,-1,1
640849,579,-8187,-109,-1,-2,-1,1
640853,574,-8187,-124,-1,-1,-1,1
640857,588,-8187,-138,-1,1,-1,1
640861,601,-8186,-147,-1,1,-1,1
640865,620,-8183,-153,-1,0,-1,1
640869,635,-8181,-157,-1,0,-1,1
640873,640,-8180,-161,0,-1,-1,1
640877,645,-8181,-163,0,-1,-1,1
640881,650,-8180,-172,0,-1,-1,1
640885,640,-8181,-187,0,-1,-1,1
640889,632,-8183,-208,0,-2,-1,1
640893,625,-8184,-229,0,-1,-1,1
640897,612,-8186,-244,0,-1,-1,1
640901,607,-8186,-256,0,-1,0,1
640905,606,-8187,-261,0,-1,-1,1
640909,601,-8186,-260,0,-1,0,1
640913,606,-8184,-254,0,-1,0,1
640917,611,-8181,-251,0,0,-1,1
640921,611,-8181,-248,0,-1,-1,1
640925,612,-8183,-239,0,-1,-1,1
640929,603,-8184,-222,0,-1,-1,1
640934,591,-8185,-204,0,-2,-1,1
640939,578,-8188,-186,0,-3,-1,1
640944,555,-8188,-160,0,-3,-1,1
640949,536,-8187,-130,0,-3,-1,1
640954,530,-8185,-100,0,-2,-1,1
640959,526,-8182,-74,0,-1,-1,1
640964,534,-8181,-57,0,-1,-1,1
640969,550,-8181,-43,0,-2,-1,1
640974,561,-8182,-29,0,-3,-1,1
640979,576,-8181,-18,0,-5,-1,1
640984,582,-8180,-11,0,-6,-1,1
640989,571,-8182,-5,0,-7,-1,1
640994,561,-8185,-5,0,-7,-1,1
640999,551,-8190,0,0,-6,-1,1
641004,539,-8189,0,0,-5,-1,1
641009,540,-8185,0,0,-4,-1,1
641014,545,-8186,-6,0,-3,-1,1
641020,555,-8184,-10,0,-2,-1,1
641025,572,-8185,-12,0,-2,-1,1
641031,585,-8186,-9,0,-1,-1,1
641037,596,-8186,1,0,-1,-1,1
641041,606,-8185,16,0,-1,-1,1
641046,607,-8186,28,0,-2,-1,1
641052,604,-8186,35,0,-3,-1,1
641057,597,-8185,34,0,-4,-1,1
641062,580,-8184,25,0,-4,-1,1
641067,562,-8184,10,0,-4,-1,1
641072,549,-8184,-8,0,-4,-1,1
641078,534,-8183,-28,0,-3,-1,1
641083,525,-8181,-41,0,-2,-1,1
641088,527,-8180,-57,0,-1,-1,1
641093,537,-8181,-71,0,0,-1,1
641098,556,-8180,-77,-1,1,-1,1
641103,583,-8180,-87,0,2,-1,1
641109,607,-8179,-91,0,2,-1,1
641113,634,-8178,-88,0,1,-1,1
641118,659,-8180,-87,0,1,-1,1
641122,683,-8179,-89,0,1,-1,1
641127,703,-8179,-91,0,0,-1,1
641132,721,-8178,-89,0,0,-1,1
641137,722,-8179,-85,0,-1,-1,1
641141,719,-8179,-88,0,-1,-1,1
641146,707,-8178,-92,0,-1,-1,1
641152,693,-8176,-101,0,-1,-1,1
641157,678,-8178,-102,0,-2,-1,1
641161,664,-8178,-107,0,-2,-1,1
641166,647,-8180,-109,0,-3,-1,1
641171,634,-8181,-108,0,-3,-1,1
641176,624,-8184,-106,0,-3,-1,1
641181,613,-8184,-101,0,-3,-1,1
641186,607,-8184,-93,0,-3,-1,1
641191,606,-8182,-82,0,-3,-1,1
641196,607,-8182,-68,0,-3,-1,1
641201,605,-8183,-55,0,-3,-1,1
641207,594,-8181,-39,0,-4,-1,1
641211,582,-8177,-34,0,-3,-1,1
641217,571,-8176,-28,0,-2,-1,1
641221,560,-8176,-23,0,-2,-1,1
641226,555,-8178,-29,0,-1,-1,1
641231,556,-8180,-35,0,-2,-1,1
641237,559,-8181,-36,0,-2,-1,0
641241,568,-8182,-40,0,-3,-1,0
641247,576,-8181,-45,0,-3,-1,0
641252,583,-8179,-47,0,-3,-1,0
641257,589,-8177,-48,0,-3,-1,0
641262,589,-8179,-51,0,-3,-1,0
641267,587,-8181,-52,-1,-3,-1,0
641272,589,-8182,-54,-1,-3,-1,0
641277,588,-8184,-52,-1,-3,-1,0
641281,589,-8181,-49,-1,-3,-1,0
641287,598,-8180,-47,-1,-3,-1,0
641293,615,-8177,-39,-1,-2,-1,0
641298,643,-8176,-31,-1,-2,-1,0
641304,672,-8176,-25,-1,-2,-1,0
641308,695,-8176,-17,-1,-3,-1,0
641313,713,-8174,-13,-1,-3,-1,0
641319,722,-8175,-15,-1,-2,-1,0
641323,719,-8177,-16,-1,-1,-1,0
641329,715,-8178,-21,-1,0,-1,0
641334,701,-8181,-29,-1,0,-1,0
641339,683,-8180,-43,-1,0,-1,0
641344,665,-8180,-57,-1,-1,-1,0
641348,642,-8179,-79,-1,-1,-1,0
641352,618,-8180,-101,-1,-1,-1,0
641356,603,-8179,-118,-1,-1,-1,0
641362,594,-8180,-136,-1,-1,-1,0
641367,594,-8179,-146,-1,-1,-1,0
641372,597,-8177,-148,-1,-1,-1,0
641377,592,-8179,-140,-1,-2,-1,0
641382,590,-8179,-127,-1,-2,-1,0
641387,590,-8178,-113,0,-3,-1,0
641392,589,-8176,-104,0,-3,-1,0
641397,593,-8179,-97,0,-4,-1,0
641402,598,-8179,-92,0,-5,-1,0
641407,602,-8181,-89,0,-6,-1,0
641411,606,-8181,-87,0,-7,-1,0
641416,607,-8182,-87,0,-6,-1,0
641421,611,-8182,-87,0,-5,-1,0
641426,614,-8184,-89,0,-3,-1,0
641431,618,-8183,-87,-1,-1,-1,0
641437,619,-8184,-87,-1,0,-1,0
641441,617,-8184,-83,-1,0,-1,0
641446,610,-8185,-74,-1,0,-1,0
641452,601,-8184,-69,-1,0,-1,0
641457,586,-8184,-67,-1,0,-1,0
641461,565,-8185,-67,-1,0,-1,0
641466,555,-8187,-66,-1,0,-1,0
641471,559,-8186,-69,-1,0,-1,0
641476,566,-8184,-71,-1,0,-1,0
641481,583,-8184,-71,-1,0,-1,0
641486,609,-8184,-76,-1,0,-1,0
641491,635,-8185,-83,0,0,-1,0
641496,661,-8182,-95,0,-1,-1,0
641500,684,-8180,-112,0,-1,-1,0
641506,698,-8178,-131,0,-2,-1,0
641510,703,-8176,-151,0,-2,-1,0
641515,700,-8176,-167,0,-3,-1,0
641520,690,-8176,-178,0,-3,-1,0
641525,676,-8173,-181,0,-3,-1,0
641530,665,-8173,-180,0,-3,-1,0
641535,655,-8171,-171,0,-2,-1,0
641540,653,-8172,-154,0,-2,-1,0
641545,657,-8174,-133,0,-1,0,0
641550,665,-8173,-109,0,0,0,0
641555,679,-8174,-86,0,0,0,0
641559,692,-8174,-61,0,0,-1,0
641564,700,-8177,-35,0,0,-1,0
641570,700,-8177,-22,0,-1,-1,0
641575,692,-8179,-12,0,-1,-1,0
641580,679,-8179,-3,0,-1,-1,0
641585,663,-8180,0,0,-1,-1,0
641590,644,-8182,-1,-1,-1,-1,0
641595,626,-8182,-6,-1,-1,-1,0
641600,611,-8184,-5,-1,-1,-1,0
641606,595,-8182,-5,-1,-1,-1,0
641611,587,-8181,-13,-1,-1,-1,0
641616,585,-8178,-17,-1,-1,-1,0
641622,588,-8178,-21,-1,-1,-1,0
641627,602,-8177,-32,-1,-1,-1,0
641633,624,-8176,-39,-1,-1,0,0
641638,644,-8176,-49,-1,-1,0,0
641643,666,-8175,-54,-1,-1,-1,0
641648,684,-8175,-53,-1,-1,-1,0
641654,692,-8175,-53,-1,-1,-1,0
641660,697,-8175,-55,-1,-1,-1,0
641665,697,-8175,-59,-1,-1,-1,0
641671,690,-8178,-64,-1,-1,0,0
641676,684,-8178,-76,-1,-2,0,0
641681,676,-8177,-89,-1,-2,0,0
641686,672,-8175,-112,-1,-1,0,0
641691,669,-8176,-132,0,-1,0,0
641696,667,-8177,-149,-1,-1,0,0
641700,668,-8178,-160,-1,-1,0,0
641705,674,-8179,-162,-1,0,0,0
641710,676,-8179,-160,-1,0,0,0
641714,683,-8177,-150,0,-1,0,0
641719,691,-8176,-141,0,-1,0,0
641723,698,-8179,-125,0,-1,0,0
641728,708,-8179,-110,0,-2,0,0
641734,717,-8180,-94,0,-3,0,0
641739,722,-8181,-81,0,-4,0,0
641745,721,-8180,-63,0,-4,0,0
641750,712,-8180,-43,0,-4,0,0
641756,697,-8184,-32,0,-3,0,0
641762,680,-8184,-27,0,-2,0,0
641767,658,-8184,-24,0,-1,0,0
641773,633,-8182,-25,-1,0,0,0
641778,608,-8182,-31,-1,0,0,0
641783,592,-8181,-37,-1,0,0,0
641789,586,-8179,-43,-1,0,0,0
641794,592,-8179,-46,-1,0,0,0
641800,603,-8180,-42,-1,0,0,0
641805,621,-8178,-42,-1,-1,0,0
641811,641,-8178,-47,-1,-1,0,0
641817,657,-8178,-46,-1,-1,0,0
641823,661,-8177,-47,-1,-1,0,0
641829,659,-8177,-50,-1,-1,0,0
641834,650,-8177,-49,-1,0,0,0
641840,632,-8177,-50,-1,0,0,0
641845,616,-8182,-46,-1,0,0,0
641851,601,-8183,-34,-1,0,0,0
641857,591,-8182,-20,-1,0,0,0
641862,591,-8182,-6,-1,1,0,0
641868,596,-8183,2,-1,1,0,0
641873,601,-8183,6,-1,1,0,0
641879,611,-8183,11,-1,1,0,0
641884,623,-8185,10,-1,1,0,0
641889,630,-8185,5,-1,1,0,0
641894,634,-8182,0,-1,0,0,0
641900,630,-8183,-5,-1,0,0,0
641905,625,-8185,-12,-1,0,0,0
641910,613,-8185,-19,-1,-1,0,0
641916,600,-8181,-22,-1,-1,0,0
641922,586,-8182,-30,-1,-1,0,0
641928,575,-8181,-41,-1,-1,0,0
641934,566,-8181,-53,-1,-1,0,0
641940,564,-8180,-57,-1,0,0,0
641945,570,-8179,-59,-1,1,0,0
641951,580,-8179,-61,-1,2,0,0
641957,591,-8180,-61,-1,2,0,0
641962,604,-8178,-64,-1,2,0,0
641967,616,-8178,-65,-1,1,0,0
641973,622,-8176,-70,-1,1,0,0
641979,628,-8176,-71,-1,0,0,0
641984,630,-8178,-78,-1,0,0,0
641990,630,-8179,-93,-1,1,0,0
641995,635,-8180,-105,-1,1,0,0
641998,642,-8183,-116,-1,1,0,0
642002,650,-8184,-124,-1,1,0,0
642006,655,-8186,-132,-1,1,0,0
642010,658,-8183,-145,-1,0,0,0
642014,655,-8183,-154,-1,-1,0,0
642019,647,-8182,-159,-1,-2,0,0
642023,633,-8184,-163,-1,-2,0,0
642027,616,-8183,-163,-1,-2,0,0
642031,600,-8185,-161,-1,-2,0,0
642035,584,-8186,-157,-1,-2,0,0
642039,570,-8183,-150,-1,-3,0,0
642043,560,-8181,-142,-1,-3,0,0
642047,550,-8181,-137,-1,-3,0,0
642051,544,-8180,-133,-1,-2,0,0
642055,548,-8180,-128,-1,-1,0,0
642059,558,-8180,-130,-1,-1,0,0
642063,569,-8178,-135,-1,-1,0,0
642067,579,-8179,-142,-1,-1,0,0
642071,588,-8180,-142,-1,0,0,0
642075,599,-8181,-140,-1,0,0,0
642079,609,-8181,-143,-1,0,0,0
642083,616,-8181,-146,-1,0,0,0
642087,624,-8182,-144,-1,0,0,0
642091,632,-8181,-139,-1,0,0,0
642095,636,-8181,-139,-1,-1,0,0
642099,631,-8182,-141,-1,-1,0,0
642103,621,-8181,-139,-1,-1,0,0
642107,607,-8178,-136,-1,0,0,0
642111,591,-8179,-128,-1,0,0,0
642115,574,-8180,-115,-1,0,0,0
642119,555,-8180,-108,-1,0,0,0
642124,545,-8180,-103,-1,0,0,0
642129,535,-8183,-101,-1,0,-1,0
642134,530,-8187,-97,-1,-1,-1,0
642139,528,-8187,-97,-1,-2,-1,0
642144,526,-8185,-101,0,-2,-1,0
642149,527,-8184,-105,0,-2,-1,0
642154,537,-8183,-113,0,-2,-1,0
642159,549,-8182,-122,0,-1,-1,0
642164,565,-8183,-133,0,-1,-1,0
642169,586,-8182,-141,0,-1,-1,0
642174,603,-8179,-146,0,-1,-1,0
642179,620,-8174,-149,0,-1,-1,0
642184,635,-8174,-151,0,0,-1,0
642189,650,-8174,-148,0,0,-1,0
642194,662,-8176,-143,0,0,-1,0
642199,667,-8179,-134,0,0,-1,0
642204,662,-8183,-125,0,-1,-1,0
642209,647,-8183,-115,0,-1,-1,0
642214,629,-8186,-109,0,-2,-1,0
642219,609,-8187,-104,0,-2,-1,0
642224,588,-8187,-102,0,-2,-1,0
642229,567,-8186,-104,0,-2,-1,0
642234,553,-8185,-104,0,-1,-1,0
642239,546,-8183,-110,0,-1,-1,0
642244,545,-8182,-119,0,-1,-1,0
642249,550,-8184,-129,0,-1,-1,0
642255,562,-8184,-141,0,-1,-1,0
642260,573,-8183,-151,0,-1,-1,0
642265,582,-8182,-165,0,-1,-1,0
642271,591,-8184,-180,0,0,-1,0
642276,593,-8183,-187,0,0,-1,0
642281,596,-8184,-187,0,0,-1,0
642286,597,-8183,-178,0,0,-1,0
642291,590,-8181,-165,0,-1,-1,0
642296,581,-8180,-151,0,-1,-1,0
642301,571,-8178,-131,0,-1,-1,0
642306,559,-8177,-109,0,-1,-1,0
642310,548,-8180,-90,0,-1,-1,0
642316,544,-8180,-74,0,-1,-1,0
642321,537,-8180,-64,0,-2,-1,0
642326,531,-8178,-52,0,-2,-1,0
642331,526,-8176,-45,0,-2,-1,0
642336,520,-8176,-44,0,-1,-1,0
642341,521,-8175,-49,0,0,-1,0
642346,531,-8172,-61,0,0,-1,0
642350,541,-8170,-77,0,0,-1,0
642354,556,-8172,-90,0,0,-1,0
642359,576,-8174,-99,0,0,-1,0
642364,599,-8177,-109,0,0,-1,0
642369,629,-8178,-115,0,0,-1,0
642374,664,-8176,-119,0,-1,-1,0
642379,695,-8174,-116,0,-1,-1,0
642384,717,-8173,-120,0,-2,-1,0
642389,735,-8172,-124,0,-2,-1,0
642394,743,-8170,-123,0,-3,-1,0
642399,744,-8171,-124,0,-3,-1,0
642404,730,-8174,-123,0,-4,-1,0
642410,711,-8175,-125,0,-4,-1,0
642415,694,-8177,-120,0,-4,-1,0
642420,677,-8175,-117,0,-4,-1,0
642424,668,-8177,-113,0,-3,-1,0
642429,670,-8176,-106,0,-2,-1,0
642434,679,-8176,-102,0,-1,-1,0
642440,690,-8175,-97,0,0,-1,0
642445,696,-8173,-89,0,0,-1,0
642450,699,-8171,-80,0,0,-1,0
642456,700,-8172,-70,0,0,-1,0
642462,693,-8171,-62,0,0,-1,0
642467,685,-8172,-55,0,0,-1,0
642473,678,-8173,-50,0,0,-1,0
642478,671,-8175,-48,0,-1,0,0
642484,669,-8175,-47,0,-1,0,0
642490,667,-8175,-50,0,-2,0,1
642495,663,-8178,-53,0,-2,0,1
642501,659,-8179,-44,0,-1,0,1
642506,659,-8178,-36,0,-1,0,1
642512,653,-8179,-28,0,-1,0,1
642518,647,-8180,-19,0,-1,-1,1
642523,640,-8179,-14,0,-1,-1,1
642528,626,-8177,-9,0,-1,-1,1
642534,612,-8178,0,0,-1,-1,1
642540,600,-8178,10,0,-1,-1,1
642546,588,-8179,17,-1,-1,-1,1
642552,580,-8182,28,-1,-1,-1,1
642558,580,-8183,28,-1,0,-1,1
642563,589,-8184,34,-1,0,0,1
642569,597,-8183,33,-1,0,-1,1
642574,606,-8181,28,-1,-1,-1,1
642580,618,-8182,18,-1,-1,-1,1
642586,627,-8180,5,-1,-1,-1,1
642592,631,-8180,-15,-1,-1,-1,1
642598,630,-8180,-37,-1,-1,-1,1
642604,627,-8180,-56,-1,-1,-1,1
642610,624,-8183,-73,-1,0,-1,1
642616,618,-8183,-80,-1,0,-1,1
642622,611,-8181,-89,-1,0,-1,1
642627,606,-8178,-90,-1,0,-1,1
642632,599,-8177,-88,-1,0,-1,1
642637,597,-8177,-84,-1,0,-1,1
642642,600,-8178,-79,-1,0,-1,1
642646,607,-8179,-76,-1,0,-1,1
642652,621,-8180,-77,-1,0,-1,1
642657,634,-8183,-81,-1,0,-1,1
642662,646,-8183,-85,-1,0,-1,1
642667,650,-8184,-89,-1,0,-1,1
642672,652,-8185,-93,-1,0,-1,1
642676,655,-8186,-100,-1,0,-1,1
642682,655,-8187,-109,-1,0,-1,1
642687,649,-8186,-117,-1,-1,-1,1
642693,642,-8182,-123,-1,-1,-1,1
642698,638,-8182,-128,-1,0,-1,1
642703,632,-8182,-125,-1,0,-1,1
642707,627,-8183,-112,-1,0,-1,1
642711,628,-8186,-95,-1,0,-1,1
642717,627,-8188,-82,-1,0,-1,1
642722,627,-8187,-62,-1,0,-1,1
642726,632,-8185,-51,-1,0,-1,1
642731,638,-8182,-47,-1,0,-1,1
642736,642,-8182,-42,-1,0,-1,1
642742,642,-8181,-40,-1,-1,-1,1
642747,636,-8179,-40,-1,-1,-1,1
642754,625,-8179,-48,-1,0,-1,1
642760,609,-8179,-55,-1,0,-1,1
642766,595,-8180,-65,-1,0,-1,1
642772,582,-8183,-78,-1,0,-1,1
642778,569,-8179,-85,-1,0,-1,1
642784,559,-8181,-97,-1,-1,-1,1
642790,553,-8183,-114,-1,-1,-1,1
642796,549,-8183,-130,-1,-1,-1,1
642802,543,-8185,-139,-1,-1,-1,1
642808,543,-8187,-145,-1,0,-1,1
642814,549,-8183,-149,-1,0,-1,1
642820,559,-8180,-153,-1,0,-1,1
642826,569,-8178,-157,-1,1,-1,1
642831,578,-8177,-161,0,1,-1,1
642837,585,-8174,-162,0,2,-1,1
642843,591,-8175,-167,0,3,-1,1
642848,594,-8178,-173,0,4,-1,1
642854,596,-8179,-180,0,4,-1,1
642860,599,-8179,-186,0,5,-1,1
642865,601,-8177,-192,0,6,-1,1
642870,606,-8178,-188,0,7,-1,1
642876,615,-8179,-181,0,8,-1,1
642881,628,-8178,-173,0,8,-1,1
642886,646,-8175,-165,0,9,-1,1
642892,669,-8174,-165,0,9,-1,1
642897,696,-8174,-162,0,10,0,1
642903,729,-8176,-161,0,10,0,1
642908,763,-8175,-157,0,10,0,1
642913,791,-8171,-150,0,8,0,1
642919,805,-8169,-142,0,6,0,1
642924,804,-8171,-134,0,4,0,1
642929,796,-8168,-126,0,2,0,1
642935,775,-8169,-124,0,2,0,1
642940,749,-8169,-128,0,1,0,1
642945,720,-8170,-136,0,1,0,1
642951,690,-8168,-148,0,1,0,1
642956,659,-8167,-160,0,1,0,1
642962,626,-8167,-165,0,1,0,1
642966,596,-8169,-166,0,2,0,1
642971,575,-8170,-162,0,3,-1,1
642977,558,-8168,-145,0,3,-1,1
642983,548,-8168,-121,0,2,-1,1
642988,544,-8171,-94,0,1,-1,1
642994,545,-8172,-69,0,1,-1,1
643000,557,-8174,-43,0,1,0,1
643005,576,-8176,-25,0,2,0,1
643011,600,-8180,-7,0,3,0,1
643016,623,-8177,15,0,5,0,1
643021,643,-8177,35,0,7,0,1
643025,657,-8177,54,0,9,0,1
643031,664,-8177,68,-1,10,-1,1
643036,661,-8176,81,-1,10,-1,1
643042,650,-8176,83,-1,10,0,1
643047,632,-8177,80,-1,9,0,1
643053,613,-8177,66,0,9,0,1
643058,592,-8176,42,0,8,0,1
643063,575,-8176,16,-1,7,0,1
643068,561,-8178,-10,-1,8,0,1
643074,555,-8179,-34,-1,8,-1,1
643079,551,-8178,-56,-1,9,-1,1
643085,549,-8180,-68,-1,10,-1,1
643091,544,-8179,-75,-1,11,-1,1
643096,541,-8179,-77,-1,12,-1,1
643102,536,-8180,-72,-1,14,-1,1
643108,530,-8181,-64,-1,16,-1,1
643114,526,-8181,-53,-1,18,0,1
643120,517,-8181,-51,-1,21,0,1
643126,504,-8178,-44,-1,26,0,1
643131,494,-8179,-33,-1,32,0,1
643137,491,-8180,-20,-1,38,0,1
643143,499,-8180,-4,-1,44,0,1
643148,516,-8181,18,-2,49,0,1
643154,538,-8183,42,-2,51,0,1
643159,560,-8186,68,-2,51,0,1
643164,582,-8184,95,-2,51,0,1
643170,593,-8186,118,-2,50,0,1
643175,599,-8184,138,-2,51,0,1
643180,598,-8181,148,-2,52,0,1
643185,600,-8181,146,-2,55,0,1
643191,616,-8179,132,-2,57,0,1
643196,653,-8180,110,-2,58,0,1
643202,721,-8178,88,-2,55,0,1
643207,825,-8176,75,-2,46,0,1
643211,963,-8174,88,-2,30,0,1
643215,1137,-8172,130,-2,6,0,1
643219,1355,-8170,208,-2,-23,0,1
643222,1645,-8164,336,-1,-61,0,1
643226,2003,-8158,462,-1,-113,0,1
643230,2408,-8156,597,0,-178,-1,1
643234,2826,-8153,734,0,-254,-1,1
643238,3221,-8148,889,1,-336,-1,1
643242,3565,-8130,1076,3,-419,-1,1
643246,3934,-8118,1331,5,-507,-2,1
643250,4372,-8105,1596,7,-608,-4,1
643254,4853,-8091,1898,10,-726,-6,1
643258,5342,-8079,2265,13,-858,-7,1
643262,5791,-8073,2743,16,-997,-9,1
643266,6255,-8059,3350,19,-1132,-10,1
643270,6639,-8062,4181,21,-1252,-9,1
643274,6702,-8071,5197,23,-1347,-10,1
643278,6121,-8063,5835,25,-1392,-13,1
643282,5316,-8088,6734,24,-1399,-15,1
643286,4566,-8115,7673,21,-1373,-17,1
643290,3910,-8138,8518,18,-1318,-18,1
643294,3409,-8140,9351,16,-1243,-19,1
643298,2985,-8120,9884,16,-1169,-20,1
643302,2581,-8119,10018,17,-1108,-19,1
643306,2244,-8155,9665,17,-1069,-17,1
643310,2050,-8187,9261,15,-1045,-15,1
643314,1814,-8189,8880,14,-1022,-13,1
643318,1428,-8194,8338,14,-989,-13,1
643322,964,-8196,7759,15,-937,-12,1
643326,422,-8208,7076,14,-864,-11,1
643330,-126,-8215,6370,13,-781,-10,1
643334,-631,-8217,5665,12,-687,-9,1
643338,-1059,-8218,4958,10,-583,-8,1
643342,-1411,-8216,4301,10,-474,-6,1
643346,-1689,-8213,3695,10,-367,-4,1
643350,-1916,-8211,3117,9,-268,-1,1
643354,-2019,-8211,2575,8,-183,0,1
643358,-2249,-8224,2187,7,-114,2,1
643362,-2675,-8227,1889,5,-67,0,1
643366,-2919,-8234,1429,4,-40,-1,1
643370,-2965,-8233,1252,4,-20,-2,1
643374,-3030,-8233,1260,5,-5,-1,1
643378,-2978,-8240,1147,5,4,0,1
643382,-2991,-8247,978,4,3,1,1
643386,-2869,-8250,833,3,-3,2,1
643390,-2654,-8251,661,2,1,2,1
643394,-2277,-8243,564,1,5,1,1
643397,-1822,-8236,536,1,5,0,1
643401,-1401,-8231,556,1,2,-1,1
643405,-992,-8228,591,1,-2,-2,1
643409,-662,-8223,617,1,-4,-1,1
643413,-471,-8219,607,1,-2,-1,1
643417,-282,-8216,559,1,-1,-2,1
643421,-149,-8217,460,1,0,-2,1
643425,-88,-8218,372,0,-3,-1,1
643429,-9,-8216,288,0,-6,-1,1
643433,48,-8212,217,-1,-9,-1,1
643437,135,-8208,189,-1,-13,0,1
643441,259,-8203,149,-1,-16,0,1
643444,372,-8198,111,0,-20,0,1
643448,483,-8193,67,0,-25,-1,1
643452,589,-8189,-30,0,-29,-1,1
643456,660,-8188,-141,0,-32,-1,1
643460,683,-8187,-247,0,-34,-1,1
643464,664,-8185,-356,-1,-34,-1,1
643469,613,-8186,-423,-1,-33,-1,1
643473,538,-8185,-462,-1,-29,-1,1
643478,436,-8186,-482,-1,-24,0,1
643483,335,-8187,-483,-1,-20,0,1
643488,250,-8190,-492,-1,-16,0,1
643494,170,-8193,-510,0,-13,0,1
643499,116,-8194,-533,0,-11,0,1
643505,93,-8195,-575,0,-10,0,1
643510,75,-8195,-618,-1,-8,0,1
643516,83,-8194,-653,-1,-7,0,1
643521,102,-8192,-681,-1,-5,0,1
643526,112,-8188,-695,-1,-3,0,1
643532,129,-8183,-706,0,-1,-1,1
643537,134,-8182,-722,0,1,-1,1
643543,127,-8182,-739,0,1,-1,1
643547,121,-8183,-766,0,2,-1,1
643553,96,-8184,-792,0,2,-1,1
643558,79,-8182,-810,0,3,-1,1
643563,78,-8180,-826,0,5,-1,1
643567,82,-8178,-830,0,7,-1,1
643572,107,-8180,-826,0,9,0,1
643576,149,-8180,-824,0,13,0,1
643580,198,-8179,-817,0,15,0,1
643585,256,-8179,-817,0,17,0,1
643590,324,-8180,-826,0,18,0,1
643594,382,-8180,-833,0,16,0,1
643599,435,-8178,-837,0,13,0,1
643604,475,-8178,-831,0,10,0,1
643608,500,-8177,-811,0,5,0,1
643613,507,-8179,-782,0,2,-1,1
643618,490,-8180,-745,0,0,-1,1
643623,467,-8181,-709,1,-2,-1,1
643628,442,-8181,-677,1,-2,0,1
643633,419,-8182,-649,1,-2,0,1
643638,405,-8181,-629,1,-2,0,1
643643,399,-8180,-613,1,-2,0,1
643648,401,-8183,-591,1,-2,0,1
643653,406,-8183,-567,0,-3,0,1
643658,410,-8185,-551,0,-4,0,1
643663,417,-8185,-528,1,-5,0,1
643668,422,-8187,-516,1,-5,0,1
643673,422,-8192,-510,1,-7,0,1
643678,417,-8195,-508,1,-9,-1,1
643684,407,-8193,-508,1,-11,-1,1
643688,390,-8192,-511,1,-12,-1,1
643693,366,-8192,-513,0,-13,-1,1
643698,339,-8192,-516,0,-13,-1,1
643703,313,-8191,-514,0,-12,-1,1
643708,288,-8191,-504,0,-11,-1,1
643713,268,-8193,-500,0,-9,-1,1
643718,254,-8193,-495,0,-7,-1,1
643723,250,-8197,-489,0,-7,-1,1
643728,251,-8195,-482,0,-7,-1,1
643733,255,-8195,-474,0,-8,-1,1
643738,260,-8197,-467,0,-9,-1,1
643743,267,-8195,-457,0,-9,-1,1
643748,272,-8194,-444,0,-9,-1,1
643753,279,-8190,-434,0,-9,-1,1
643759,288,-8187,-429,0,-7,-1,1
643764,299,-8185,-424,0,-6,-1,1
643768,317,-8186,-425,0,-6,-1,1
643773,342,-8186,-438,0,-5,-1,1
643778,365,-8185,-445,0,-5,-1,1
643783,385,-8183,-459,0,-6,-1,1
643788,399,-8181,-472,0,-6,-1,1
643793,405,-8182,-484,0,-6,-1,1
643798,404,-8182,-492,0,-5,-1,1
643803,391,-8181,-493,0,-4,0,1
643808,374,-8181,-492,0,-3,0,1
643813,355,-8183,-496,0,-1,0,1
643818,337,-8186,-499,0,-1,0,1
643824,325,-8187,-499,0,0,0,1
643828,322,-8191,-497,-1,0,0,1
643833,325,-8196,-487,-1,0,0,1
643838,334,-8197,-475,-1,0,0,1
643843,348,-8199,-465,-1,-1,0,1
643848,362,-8198,-456,-1,-1,0,1
643853,374,-8196,-458,-1,-1,0,1
643859,381,-8192,-465,-1,-1,0,1
643863,387,-8189,-476,-1,-1,0,1
643868,391,-8186,-488,-1,-1,0,1
643873,394,-8185,-494,-1,-1,0,1
643878,400,-8183,-495,-1,-2,0,1
643883,412,-8183,-489,-1,-4,0,1
643888,422,-8183,-479,-1,-6,0,1
643894,423,-8183,-467,-1,-9,0,1
643899,419,-8182,-461,-1,-10,0,1
643904,410,-8183,-462,-1,-10,0,1
643909,398,-8184,-470,-1,-10,0,1
643914,386,-8185,-479,-1,-10,0,1
643919,371,-8190,-493,-1,-10,0,1
643924,357,-8194,-502,-1,-9,0,1
643929,343,-8192,-507,-1,-9,0,1
643934,328,-8190,-513,-1,-8,0,1
643939,316,-8190,-523,-1,-8,0,1
643943,309,-8191,-536,-1,-8,0,1
643948,301,-8190,-546,-1,-8,0,1
643953,297,-8190,-560,-1,-9,0,1
643959,295,-8190,-567,-1,-10,0,1
643964,292,-8190,-571,-1,-11,0,1
643968,283,-8189,-573,-1,-11,0,1
643973,275,-8186,-567,-1,-10,0,1
643978,268,-8185,-567,-1,-9,0,1
643983,254,-8187,-567,-1,-7,0,1
643988,249,-8190,-565,-1,-5,0,1
643993,247,-8189,-563,-1,-4,0,1
643998,249,-8187,-568,-1,-4,0,1
644003,257,-8185,-571,-1,-3,0,1
644008,262,-8182,-573,-1,-2,0,1
644013,268,-8183,-565,-1,-1,0,1
644018,277,-8182,-559,-1,-1,0,1
644023,289,-8181,-555,-1,0,0,1
644028,295,-8181,-555,-1,-1,0,1
644033,297,-8180,-548,-1,-2,0,1
644038,303,-8181,-550,-1,-3,0,1
644043,308,-8182,-559,-1,-4,0,1
644048,307,-8180,-570,-1,-5,0,1
644053,303,-8180,-587,-1,-6,0,1
644059,296,-8181,-611,-1,-7,0,1
644064,286,-8183,-639,-1,-7,0,1
644069,278,-8184,-672,-1,-7,0,1
644073,274,-8184,-700,-1,-6,0,1
644078,274,-8182,-726,-1,-5,0,1
644083,275,-8183,-754,-1,-4,0,1
644088,280,-8182,-774,-1,-3,0,1
644093,287,-8183,-783,0,-1,0,1
644098,294,-8187,-785,0,1,0,1
644103,299,-8186,-773,0,2,0,1
644108,306,-8186,-755,0,3,0,1
644113,314,-8185,-736,0,3,0,1
644118,319,-8185,-705,0,4,0,1
644123,326,-8184,-679,0,4,0,1
644128,335,-8183,-652,0,4,0,1
644133,342,-8183,-625,0,4,0,1
644139,351,-8184,-607,0,4,0,1
644144,354,-8184,-596,0,3,0,1
644149,350,-8184,-585,0,3,0,1
644155,346,-8182,-580,0,2,0,1
644160,339,-8182,-579,0,2,0,1
644166,325,-8182,-581,0,1,0,1
644171,315,-8185,-580,0,2,0,1
644177,306,-8189,-579,0,1,0,1
644182,297,-8189,-580,0,1,0,1
644187,290,-8188,-587,0,0,0,1
644193,280,-8191,-588,0,0,0,1
644198,265,-8194,-583,0,0,0,1
644204,250,-8196,-575,0,0,0,1
644209,234,-8194,-565,0,1,0,1
644214,216,-8195,-552,0,2,0,1
644220,200,-8194,-543,-1,3,0,1
644226,184,-8192,-535,-1,4,0,1
644231,174,-8192,-527,-1,6,0,1
644235,168,-8190,-524,-1,7,0,1
644240,161,-8191,-523,-1,8,0,1
644244,157,-8192,-515,-1,9,0,1
644248,156,-8191,-510,-1,11,0,1
644253,154,-8190,-504,-1,12,0,1
644258,159,-8190,-497,-1,13,0,1
644262,166,-8193,-488,-1,14,0,1
644266,174,-8194,-483,-1,15,0,1
644271,183,-8194,-484,-1,17,0,1
644276,198,-8193,-485,-1,18,0,1
644280,220,-8191,-492,-1,19,0,1
644285,252,-8190,-502,-1,19,0,1
644289,288,-8187,-512,-1,18,0,1
644295,324,-8184,-524,-1,17,0,1
644299,361,-8184,-540,-1,15,0,1
644305,385,-8182,-558,-1,15,0,1
644309,405,-8183,-573,-1,14,0,1
644314,419,-8181,-588,-1,14,0,1
644319,425,-8179,-601,-1,14,0,1
644323,426,-8178,-618,-1,14,0,1
644328,427,-8177,-634,-1,13,0,1
644333,424,-8177,-647,-1,13,0,1
644339,422,-8180,-660,-1,13,0,1
644344,427,-8180,-675,-1,14,0,1
644348,436,-8178,-688,-1,15,0,1
644353,444,-8176,-690,-1,15,0,1
644358,460,-8176,-684,-1,16,0,1
644363,474,-8174,-679,-1,15,0,1
644368,483,-8177,-659,-1,14,0,1
644373,474,-8181,-637,-1,12,0,1
644378,447,-8183,-616,-1,10,0,1
644383,407,-8183,-592,-1,8,0,1
644388,361,-8182,-570,-1,6,0,1
644393,310,-8181,-547,-1,5,0,1
644398,255,-8180,-528,-1,4,0,1
644403,207,-8183,-514,-1,3,0,1
644408,168,-8184,-500,-1,2,0,1
644413,144,-8183,-492,-1,2,0,1
644418,125,-8185,-484,-1,3,0,1
644423,120,-8188,-485,-1,3,0,1
644428,130,-8188,-495,-1,4,0,1
644433,151,-8189,-511,-1,4,0,1
644439,177,-8189,-527,-1,4,0,1
644443,211,-8185,-545,-1,3,0,1
644448,241,-8184,-556,-1,2,0,1
644453,267,-8183,-566,-1,1,0,1
644459,289,-8185,-574,-1,1,0,1
644464,307,-8186,-585,-1,2,0,1
644468,320,-8188,-594,-1,3,0,1
644473,328,-8187,-607,-1,4,0,1
644478,332,-8187,-620,-1,5,0,1
644483,340,-8187,-630,-1,5,0,0
644488,346,-8186,-634,-1,5,0,0
644493,348,-8185,-623,-1,5,0,0
644498,353,-8185,-613,-1,4,0,0
644503,358,-8183,-600,-1,3,0,0
644508,361,-8185,-588,-1,1,0,0
644513,358,-8185,-591,-1,-1,0,0
644518,351,-8186,-597,-1,-3,0,0
644523,343,-8188,-612,-1,-4,0,0
644528,331,-8188,-637,-1,-4,0,0
644533,317,-8187,-653,-1,-5,0,0
644538,304,-8186,-669,-1,-5,-1,0
644543,290,-8182,-688,-1,-4,-1,0
644548,273,-8182,-703,-1,-4,-1,0
644553,255,-8181,-715,0,-3,-1,0
644558,234,-8182,-718,0,-2,-1,0
644563,215,-8184,-720,0,0,0,0
644568,204,-8183,-713,0,2,0,0
644573,203,-8181,-705,0,3,0,0
644578,207,-8182,-698,0,4,0,0
644583,218,-8179,-690,0,4,0,0
644588,231,-8176,-675,0,5,0,0
644593,246,-8175,-660,0,6,0,0
644598,262,-8176,-655,0,7,0,0
644603,280,-8177,-654,0,8,0,0
644608,299,-8177,-653,0,9,0,0
644613,318,-8175,-652,0,10,0,0
644618,332,-8177,-653,0,10,0,0
644623,348,-8181,-653,0,11,0,0
644628,369,-8184,-643,0,12,0,0
644633,377,-8185,-628,-1,12,0,0
644638,382,-8185,-607,0,13,0,0
644643,389,-8187,-589,-1,14,0,0
644648,396,-8187,-570,-1,15,0,0
644653,400,-8187,-549,-1,15,0,0
644658,400,-8184,-533,-1,15,0,0
644663,402,-8182,-517,-1,14,0,0
644668,401,-8181,-502,-1,12,0,0
644673,392,-8183,-486,-1,10,0,0
644678,370,-8181,-477,-1,7,0,0
644683,338,-8186,-467,-1,5,0,0
644688,300,-8188,-463,-1,3,0,0
644693,256,-8188,-462,-1,2,0,0
644698,212,-8188,-465,-1,2,0,0
644703,173,-8188,-474,-1,2,0,0
644708,142,-8191,-482,-1,2,0,0
644713,122,-8195,-491,-1,2,-1,0
644719,115,-8196,-499,-1,2,-1,0
644724,117,-8196,-505,-1,3,0,0
644729,127,-8192,-513,-1,4,0,0
644734,151,-8190,-522,-1,5,-1,0
644740,178,-8188,-529,-1,6,-1,0
644745,208,-8185,-537,-1,7,-1,0
644750,244,-8183,-546,-1,9,0,0
644755,276,-8183,-557,-1,10,0,0
644761,304,-8181,-566,-1,12,0,0
644766,328,-8182,-573,-1,13,0,0
644771,347,-8181,-576,-1,14,0,0
644776,356,-8184,-578,-1,14,0,0
644781,362,-8185,-581,-1,16,0,0
644786,364,-8186,-589,-1,17,0,0
644791,364,-8189,-595,-1,19,0,0
644795,364,-8188,-604,-1,20,0,0
644800,377,-8189,-606,-1,21,0,0
644805,422,-8187,-616,-1,19,0,0
644810,489,-8185,-625,-1,12,0,0
644814,540,-8185,-618,-1,3,0,0
644819,566,-8185,-629,-1,-4,0,0
644824,577,-8184,-623,-1,-9,0,0
644828,565,-8185,-615,-1,-12,-1,0
644833,531,-8183,-620,-1,-14,-1,0
644838,471,-8184,-624,0,-16,-1,0
644843,402,-8184,-642,-1,-17,-1,0
644848,332,-8187,-664,0,-17,0,0
644853,261,-8188,-680,0,-16,0,0
644859,194,-8189,-685,-1,-14,0,0
644864,136,-8189,-682,-1,-10,0,0
644869,95,-8190,-667,-1,-5,0,0
644875,72,-8188,-652,-1,0,0,0
644880,63,-8189,-633,-1,3,0,0
644884,68,-8191,-629,-1,6,0,0
644888,82,-8192,-634,-1,9,0,0
644893,99,-8192,-646,-1,13,0,0
644898,120,-8190,-657,-1,18,0,0
644903,146,-8187,-655,-1,22,0,0
644908,177,-8184,-649,-1,25,0,0
644913,206,-8185,-633,-1,26,0,0
644918,226,-8182,-622,-1,26,0,0
644923,246,-8182,-622,-1,25,0,0
644928,273,-8179,-628,-1,22,0,0
644933,305,-8178,-658,-1,18,0,0
644938,340,-8179,-692,0,12,0,0
644943,378,-8175,-729,0,6,0,0
644948,388,-8180,-785,0,-2,-1,0
644953,402,-8183,-783,0,-10,-1,0
644958,375,-8188,-789,0,-19,-1,0
644963,347,-8189,-737,0,-29,-2,0
644968,298,-8191,-671,0,-36,-2,0
644973,220,-8192,-599,0,-37,-1,0
644978,151,-8192,-527,0,-29,-1,0
644983,97,-8189,-484,0,-14,-1,0
644988,82,-8187,-445,0,3,-1,0
644993,84,-8184,-454,0,17,-1,0
644998,99,-8185,-490,0,26,-1,0
645003,125,-8187,-536,-1,32,0,0
645008,158,-8192,-588,-1,36,0,0
645013,212,-8190,-609,-2,39,0,0
645018,271,-8187,-596,-2,42,0,0
645023,330,-8185,-541,-2,43,0,0
645028,392,-8185,-457,-2,43,0,0
645033,461,-8184,-397,-2,40,0,0
645038,538,-8181,-389,-1,33,0,0
645042,598,-8179,-424,0,24,0,0
645048,640,-8181,-526,0,17,0,0
645052,660,-8182,-611,-1,13,0,0
645058,654,-8181,-690,-1,15,0,0
645063,610,-8180,-745,-1,18,0,0
645068,536,-8178,-765,-1,22,0,0
645072,435,-8177,-768,-1,25,0,0
645078,312,-8177,-761,-1,28,0,0
645083,184,-8179,-758,-1,31,0,0
645088,68,-8182,-775,-1,35,0,0
645093,-23,-8182,-805,-1,40,0,0
645098,-93,-8185,-837,-1,47,1,0
645103,-136,-8184,-868,-1,55,1,0
645108,-150,-8184,-887,-1,63,1,0
645113,-132,-8185,-887,-1,70,1,0
645117,-101,-8183,-865,-1,74,1,0
645123,-55,-8182,-822,-1,75,1,0
645128,0,-8181,-776,-1,73,0,0
645133,59,-8183,-732,-1,68,0,0
645139,124,-8182,-700,-1,62,0,0
645143,198,-8181,-687,-1,55,0,0
645148,269,-8182,-687,0,49,0,0
645153,336,-8183,-688,0,45,0,0
645157,404,-8179,-687,-1,41,0,0
645163,459,-8180,-685,-1,40,0,0
645168,495,-8182,-671,-1,40,0,0
645173,518,-8180,-653,-1,41,0,0
645178,540,-8178,-632,-1,42,0,0
645183,549,-8178,-614,-1,41,0,0
645187,588,-8177,-612,0,37,0,0
645193,634,-8177,-617,0,30,0,0
645198,686,-8178,-637,0,22,0,0
645203,745,-8177,-648,0,11,0,0
645208,806,-8173,-654,0,1,0,0
645213,863,-8171,-643,0,-9,0,0
645218,898,-8172,-624,0,-19,0,0
645223,926,-8172,-606,0,-29,0,0
645228,932,-8172,-590,1,-38,0,0
645233,914,-8172,-583,1,-45,0,0
645238,886,-8172,-587,1,-49,0,0
645243,842,-8174,-597,1,-51,0,0
645248,775,-8178,-603,1,-52,-1,0
645253,695,-8178,-611,1,-50,0,0
645258,607,-8179,-625,1,-47,0,0
645263,511,-8180,-645,1,-44,0,0
645268,421,-8181,-669,1,-40,0,0
645273,341,-8181,-695,1,-37,0,0
645278,268,-8182,-712,1,-33,0,0
645283,211,-8184,-714,0,-29,0,0
645288,165,-8185,-704,0,-25,0,0
645293,134,-8185,-679,0,-22,0,0
645297,110,-8186,-647,0,-20,0,0
645303,96,-8187,-617,0,-18,0,0
645308,84,-8187,-596,1,-17,0,0
645313,79,-8188,-587,0,-15,0,0
645317,78,-8189,-585,0,-14,0,0
645322,85,-8190,-589,0,-13,0,0
645327,94,-8191,-589,0,-13,0,0
645332,103,-8191,-586,0,-12,0,0
645338,112,-8194,-575,0,-13,-1,0
645343,114,-8194,-560,0,-13,-1,0
645348,106,-8196,-540,0,-13,-1,0
645353,90,-8195,-525,0,-13,-1,0
645358,84,-8194,-522,0,-12,-1,0
645363,94,-8197,-532,0,-11,-1,0
645369,121,-8196,-540,0,-11,0,0
645374,173,-8193,-545,0,-11,0,0
645378,233,-8189,-542,0,-11,0,0
645382,303,-8188,-534,0,-11,0,0
645388,370,-8185,-526,0,-13,-1,0
645393,418,-8186,-534,0,-20,-1,0
645398,445,-8186,-535,0,-28,-1,0
645403,436,-8188,-546,0,-37,-1,0
645408,417,-8185,-549,0,-45,-1,0
645413,403,-8185,-523,0,-51,-1,0
645418,390,-8185,-492,0,-53,-1,0
645423,369,-8187,-453,0,-52,-1,0
645429,332,-8187,-428,0,-46,-1,0
645435,290,-8185,-422,0,-38,-1,0
645441,242,-8189,-440,0,-28,-1,0
645447,196,-8192,-469,0,-20,-1,0
645452,173,-8194,-496,0,-15,-1,0
645458,157,-8196,-511,-1,-11,0,0
645464,158,-8194,-503,-1,-8,0,0
645470,177,-8192,-474,-1,-6,0,0
645476,198,-8188,-441,-1,-4,0,0
645482,222,-8185,-411,-1,-2,0,0
645488,251,-8183,-402,-1,-2,0,0
645493,275,-8184,-417,-1,-3,0,0
645499,298,-8187,-441,-1,-4,0,0
645505,320,-8187,-474,-1,-5,0,0
645510,334,-8185,-495,-1,-5,0,0
645516,348,-8183,-507,-1,-5,0,0
645522,356,-8179,-513,-1,-4,0,0
645528,359,-8181,-518,-1,-2,0,0
645533,364,-8181,-529,-1,-1,0,0
645538,367,-8183,-556,-1,0,0,0
645543,363,-8184,-596,-1,1,0,0
645548,347,-8184,-640,-1,3,0,0
645553,331,-8184,-677,-1,5,0,0
645558,311,-8184,-700,-1,7,0,0
645563,282,-8188,-686,-1,8,0,0
645568,255,-8186,-656,-1,9,0,0
645573,229,-8188,-612,-1,10,0,0
645578,199,-8185,-559,-1,12,0,0
645583,177,-8186,-521,-1,15,0,0
645589,155,-8186,-498,-1,19,0,0
645594,134,-8186,-490,-1,24,0,0
645599,114,-8186,-497,-1,28,0,0
645605,90,-8186,-504,-2,33,0,0
645610,61,-8187,-507,-2,37,0,0
645615,32,-8188,-501,-2,42,0,0
645619,10,-8188,-492,-2,45,0,0
645623,-5,-8189,-489,-2,48,0,0
645627,-13,-8189,-489,-2,50,0,0
645632,-3,-8188,-500,-2,52,0,0
645636,12,-8190,-519,-2,53,0,0
645639,32,-8193,-544,-2,54,0,0
645643,66,-8194,-566,-2,55,0,0
645647,101,-8191,-580,-2,56,0,0
645651,130,-8186,-581,-2,56,0,0
645656,166,-8183,-580,-2,54,0,0
645661,202,-8179,-582,-2,51,0,0
645667,240,-8178,-593,-2,46,0,0
645672,285,-8179,-624,-2,40,0,0
645677,330,-8180,-668,-1,32,0,0
645681,378,-8178,-722,-1,25,0,0
645685,438,-8178,-780,-1,19,0,0
645689,510,-8176,-816,-1,13,0,0
645693,590,-8177,-838,-1,6,0,0
645697,667,-8177,-838,-1,-3,0,0
645701,738,-8176,-828,-1,-12,-1,0
645705,810,-8174,-807,0,-22,-1,0
645709,872,-8173,-789,0,-32,-1,0
645714,919,-8174,-769,0,-42,-1,0
645718,945,-8174,-760,0,-53,-1,0
645722,958,-8175,-752,0,-62,-1,0
645727,962,-8173,-739,0,-69,-1,0
645732,955,-8172,-724,0,-74,-1,0
645737,944,-8172,-702,1,-77,-1,0
645742,929,-8171,-691,1,-78,-1,0
645747,908,-8170,-691,1,-78,0,0
645752,880,-8172,-706,1,-76,0,0
645757,844,-8172,-729,1,-73,0,0
645762,795,-8174,-745,1,-70,0,0
645767,745,-8175,-760,1,-68,0,0
645772,693,-8178,-760,1,-66,0,0
645777,633,-8179,-742,1,-65,0,0
645782,565,-8178,-713,1,-64,0,0
645787,501,-8179,-683,1,-64,0,0
645792,446,-8183,-659,1,-64,0,0
645797,388,-8183,-638,1,-64,0,0
645802,323,-8184,-618,1,-65,0,0
645807,261,-8183,-605,1,-66,0,0
645812,211,-8183,-598,1,-67,0,0
645817,164,-8184,-587,1,-68,0,0
645822,118,-8186,-572,1,-68,0,0
645827,75,-8188,-557,1,-68,0,0
645832,42,-8190,-543,1,-68,0,0
645837,9,-8189,-528,1,-67,-1,0
645842,-29,-8191,-515,1,-66,-1,0
645847,-69,-8190,-494,1,-63,-1,0
645852,-106,-8191,-473,1,-60,-1,0
645857,-141,-8194,-459,0,-55,-1,0
645862,-176,-8193,-441,0,-50,-1,0
645867,-209,-8194,-429,0,-45,-1,0
645872,-237,-8195,-416,0,-39,-1,0
645877,-268,-8198,-415,0,-34,-1,0
645882,-302,-8199,-413,0,-28,-1,0
645888,-342,-8199,-399,0,-20,-1,0
645893,-365,-8200,-361,-1,-11,-1,0
645898,-366,-8197,-328,-1,-3,0,0
645904,-345,-8194,-292,-1,4,0,0
645910,-302,-8191,-266,-1,7,0,0
645915,-245,-8187,-274,-1,9,0,0
645921,-178,-8186,-301,-1,8,-1,0
645927,-110,-8187,-350,-1,6,-1,0
645932,-43,-8188,-398,-1,3,-1,0
645937,21,-8189,-427,-1,1,-1,0
645943,70,-8189,-434,-2,-1,-1,0
645948,105,-8188,-423,-2,-3,-1,0
645953,121,-8186,-403,-2,-4,-1,0
645959,116,-8183,-391,-1,-4,-1,0
645964,95,-8185,-385,-1,-4,-1,0
645970,59,-8185,-392,-1,-3,-1,0
645975,24,-8187,-406,-1,-1,-1,0
645980,1,-8188,-431,-2,1,-1,0
645986,-7,-8188,-453,-2,4,-1,0
645991,15,-8187,-469,-2,7,-1,0
645996,56,-8187,-482,-2,10,-1,0
646001,104,-8185,-496,-2,12,-1,0
646005,168,-8184,-517,-2,14,-1,0
646010,227,-8184,-540,-2,14,-1,0
646015,273,-8183,-559,-2,11,-1,0
646020,311,-8184,-581,-2,8,-1,0
646025,333,-8182,-601,-2,3,-1,0
646030,340,-8182,-615,-2,-2,-1,0
646035,338,-8181,-628,-1,-6,-1,0
646041,324,-8182,-636,-1,-8,-1,0
646046,305,-8182,-641,-1,-8,-1,0
646051,289,-8183,-651,-1,-7,-1,0
646056,269,-8183,-662,-1,-5,-1,0
646061,246,-8182,-675,-1,-3,-1,0
646066,225,-8180,-688,-1,-2,-1,0
646071,203,-8181,-695,-1,0,-1,0
646076,192,-8182,-697,-1,1,-1,0
646081,190,-8183,-696,-1,3,-1,0
646086,196,-8186,-689,-1,3,-1,0
646091,204,-8188,-684,-1,3,-1,0
646096,213,-8191,-679,-1,3,-1,0
646101,226,-8191,-676,-1,4,-1,0
646105,237,-8188,-678,-1,4,-1,0
646110,245,-8186,-681,-1,4,-1,0
646115,252,-8184,-680,-1,4,-1,0
646120,255,-8182,-675,-1,2,-1,0
646125,260,-8183,-665,-1,0,-1,0
646130,259,-8184,-646,-1,-2,-1,0
646135,255,-8186,-631,-1,-3,-1,0
646140,252,-8184,-620,-1,-4,-1,0
646145,252,-8181,-615,-1,-4,-1,0
646149,253,-8178,-613,-1,-3,-1,0
646155,260,-8179,-615,-1,-2,-1,0
646160,268,-8180,-619,-1,-2,-1,0
646166,277,-8179,-619,-1,-1,-1,0
646170,281,-8179,-616,-1,0,-1,0
646176,279,-8181,-614,-1,1,-1,0
646180,275,-8184,-611,-1,2,-1,0
646186,268,-8187,-614,-1,2,-1,0
646190,260,-8186,-621,-1,2,-1,0
646195,245,-8188,-637,-1,1,-1,0
646201,229,-8191,-657,-1,0,-1,0
646206,216,-8191,-674,-1,0,-1,0
646210,205,-8191,-685,-1,-1,-1,0
646215,202,-8190,-688,-1,-1,-1,0
646221,205,-8191,-685,-1,-1,-1,0
646226,210,-8189,-681,-1,-1,-1,0
646230,220,-8186,-676,-1,-1,-1,0
646236,235,-8185,-677,-1,0,-1,0
646241,257,-8184,-681,-1,1,0,0
646247,282,-8184,-687,-1,1,0,0
646252,305,-8184,-699,-1,0,0,0
646258,325,-8185,-714,-1,0,0,0
646264,339,-8182,-727,-1,-1,0,0
646270,344,-8180,-739,-1,-1,0,0
646276,342,-8180,-755,-1,-1,0,0
646281,332,-8180,-770,-1,-1,0,0
646288,319,-8180,-774,-1,-1,0,0
646293,307,-8179,-776,-1,-2,0,0
646298,296,-8179,-774,-1,-2,0,0
646304,289,-8178,-772,0,-2,0,0
646310,284,-8180,-767,0,-2,0,0
646316,276,-8181,-761,0,-1,0,0
646321,269,-8182,-753,0,-1,0,0
646327,270,-8182,-745,0,-1,0,0
646332,270,-8184,-740,0,-1,0,0
646337,266,-8185,-729,0,-1,0,0
646343,264,-8186,-716,0,0,0,0
646348,263,-8187,-704,0,0,0,0
646353,264,-8187,-698,0,0,0,0
646359,263,-8190,-693,0,1,0,0
646364,259,-8193,-692,0,1,0,0
646370,254,-8195,-693,0,1,0,0
646375,249,-8194,-683,0,2,0,0
646380,245,-8191,-676,0,2,0,0
646385,241,-8189,-665,0,3,0,0
646391,240,-8189,-659,0,4,0,0
646396,242,-8189,-655,0,5,0,0
646401,249,-8189,-644,0,6,0,0
646407,253,-8186,-629,0,6,0,0
646412,263,-8184,-616,-1,5,0,0
646417,273,-8181,-603,0,5,0,0
646421,276,-8180,-590,0,4,0,0
646427,274,-8182,-583,0,3,0,0
646432,264,-8181,-576,0,2,0,0
646437,245,-8178,-569,-1,1,0,0
646443,230,-8177,-566,-1,1,0,0
646448,216,-8176,-562,-1,0,0,0
646453,208,-8176,-562,-1,-1,0,0
646459,196,-8174,-570,-1,-1,0,0
646465,185,-8176,-585,-1,-1,0,0
646471,176,-8179,-601,0,0,0,0
646477,162,-8181,-620,0,1,0,0
646482,145,-8183,-639,-1,1,0,0
646488,120,-8184,-655,-1,2,0,0
646493,93,-8184,-665,-1,3,0,0
646498,68,-8184,-666,-1,4,0,0
646504,61,-8186,-664,-1,5,0,0
646510,66,-8186,-659,-1,5,0,0
646515,79,-8186,-656,-1,5,0,1
646521,104,-8187,-655,-1,4,0,1
646527,138,-8188,-655,0,4,0,1
646532,171,-8188,-659,0,4,0,1
646536,204,-8190,-666,0,4,0,1
646541,233,-8186,-671,0,3,0,1
646546,257,-8185,-674,0,2,0,1
646550,272,-8183,-675,0,0,0,1
646554,276,-8181,-679,0,-1,0,1
646558,273,-8180,-679,0,-3,0,1
646563,261,-8181,-682,0,-3,0,1
646567,246,-8183,-682,0,-3,0,1
646572,232,-8186,-687,0,-2,0,1
646576,217,-8186,-691,0,-1,0,1
646581,211,-8185,-695,0,1,0,1
646585,214,-8184,-697,0,3,0,1
646590,219,-8183,-701,0,4,0,1
646594,224,-8181,-704,0,4,0,1
646599,229,-8182,-706,0,4,0,1
646603,231,-8183,-705,0,3,0,1
646607,227,-8183,-700,0,3,0,1
646612,221,-8182,-694,0,3,0,1
646616,214,-8182,-686,0,4,0,1
646620,205,-8180,-674,0,4,0,1
646625,194,-8183,-667,0,5,0,1
646629,184,-8182,-661,0,5,0,1
646633,174,-8182,-655,0,5,0,1
646638,170,-8184,-654,0,5,0,1
646644,175,-8186,-648,0,6,0,1
646649,180,-8186,-638,0,6,0,1
646653,188,-8185,-622,0,6,0,1
646657,199,-8187,-604,0,6,0,1
646661,208,-8188,-585,0,6,0,1
646664,216,-8189,-566,0,5,0,1
646668,223,-8190,-551,0,4,0,1
646672,226,-8191,-538,0,4,0,1
646677,224,-8191,-528,0,2,0,1
646682,220,-8191,-517,0,1,0,1
646686,215,-8192,-502,-1,0,0,1
646690,207,-8189,-490,-1,0,0,1
646694,198,-8188,-483,-1,0,0,1
646698,193,-8184,-483,-1,0,0,1
646703,190,-8182,-485,-1,0,0,1
646709,187,-8181,-488,-1,1,0,1
646713,185,-8181,-501,-1,1,0,1
646719,190,-8181,-516,-1,1,0,1
646724,192,-8183,-534,-1,2,0,1
646727,197,-8184,-555,-1,2,0,1
646731,205,-8185,-572,-1,1,0,1
646735,210,-8186,-593,-1,1,0,1
646739,214,-8183,-607,-1,1,0,1
646743,218,-8180,-617,-1,1,0,1
646747,219,-8179,-631,-1,1,0,1
646751,220,-8179,-646,-1,1,0,1
646755,218,-8179,-654,-1,2,0,1
646759,214,-8178,-657,-1,2,0,1
646764,210,-8178,-656,-1,2,0,1
646770,208,-8180,-651,-1,1,0,1
646774,203,-8182,-637,-1,1,0,1
646779,198,-8181,-624,-1,1,0,1
646784,195,-8180,-615,-1,1,0,1
646790,192,-8178,-607,-1,1,0,1
646795,191,-8180,-597,-1,1,0,1
646800,194,-8180,-591,-1,1,0,1
646805,198,-8182,-586,-1,1,0,1
646811,201,-8183,-584,-1,0,0,1
646816,206,-8185,-592,-1,0,0,1
646821,215,-8184,-600,-1,1,0,1
646827,223,-8183,-609,-1,1,0,1
646831,232,-8182,-616,-1,1,0,1
646836,237,-8182,-625,-1,1,0,1
646842,244,-8181,-637,-1,1,0,1
646848,251,-8180,-651,-1,1,0,1
646852,256,-8182,-664,-1,1,0,1
646857,259,-8185,-675,-1,1,0,1
646862,263,-8186,-683,-1,1,0,1
646867,269,-8183,-682,-1,0,0,1
646870,275,-8180,-670,-1,0,0,1
646874,278,-8177,-657,-1,0,0,1
646878,281,-8177,-644,-1,-1,0,1
646882,280,-8177,-635,-1,-1,0,1
646887,277,-8178,-630,-1,-2,0,1
646892,270,-8179,-621,-1,-3,0,1
646897,260,-8181,-613,-1,-4,0,1
646902,248,-8181,-597,-1,-5,0,1
646907,230,-8182,-584,-1,-5,0,1
646912,212,-8182,-568,-1,-5,0,1
646917,194,-8184,-552,-1,-5,0,1
646922,179,-8187,-539,-1,-6,0,1
646927,163,-8189,-524,-1,-7,0,1
646932,153,-8190,-512,-1,-9,0,1
646937,153,-8191,-505,-1,-10,0,1
646942,156,-8191,-500,-1,-12,0,1
646947,159,-8192,-495,-1,-13,0,1
646952,169,-8193,-484,-1,-14,0,1
646957,176,-8192,-480,-1,-14,0,1
646962,182,-8191,-485,-1,-14,0,1
646967,185,-8191,-498,-1,-14,0,1
646972,189,-8188,-515,-1,-14,0,1
646977,186,-8185,-536,-1,-15,0,1
646982,179,-8184,-560,-1,-16,0,1
646987,171,-8189,-577,-1,-16,0,1
646992,160,-8190,-594,-1,-16,0,1
646997,150,-8189,-607,-1,-16,0,1
647002,141,-8187,-620,-1,-15,0,1
647007,140,-8186,-632,-1,-14,0,1
647012,136,-8184,-647,-1,-13,0,1
647017,136,-8183,-668,-1,-12,0,1
647022,138,-8181,-690,-1,-12,0,1
647027,141,-8183,-708,-1,-11,0,1
647032,145,-8182,-714,-1,-10,0,1
647037,151,-8185,-714,-1,-9,0,1
647042,151,-8189,-708,-1,-9,0,1
647047,137,-8191,-690,-1,-9,0,1
647052,115,-8193,-667,-1,-10,-1,1
647057,82,-8193,-639,-1,-11,-1,1
647062,43,-8194,-616,-1,-11,-1,1
647067,7,-8193,-603,-1,-10,0,1
647072,-23,-8193,-592,-1,-8,0,1
647076,-43,-8195,-585,-1,-3,0,1
647082,-43,-8193,-587,-1,2,0,1
647088,-30,-8189,-585,-2,6,0,1
647093,-10,-8184,-583,-2,9,0,1
647098,11,-8187,-584,-2,11,0,1
647103,26,-8188,-580,-2,13,0,1
647108,34,-8189,-580,-2,15,0,1
647113,41,-8186,-586,-2,17,0,1
647119,49,-8185,-599,-2,19,0,1
647124,64,-8184,-622,-2,19,0,1
647129,85,-8185,-648,-2,18,0,1
647133,117,-8185,-673,-2,16,0,1
647139,158,-8185,-690,-2,14,0,1
647144,204,-8183,-705,-2,11,0,1
647150,255,-8181,-712,-2,9,0,1
647154,304,-8186,-712,-2,7,0,1
647160,343,-8188,-707,-2,4,0,1
647165,372,-8185,-711,-1,1,0,1
647171,383,-8184,-716,-1,-3,0,1
647176,382,-8183,-725,-1,-8,0,1
647181,369,-8184,-736,-1,-12,0,1
647187,350,-8185,-741,-1,-16,0,1
647192,332,-8187,-738,-1,-19,0,1
647198,313,-8187,-735,-1,-20,0,1
647204,296,-8185,-725,-1,-21,0,1
647210,281,-8181,-717,-1,-22,0,1
647214,261,-8177,-709,-1,-22,-1,1
647220,239,-8176,-712,-1,-21,-1,1
647227,215,-8178,-726,-1,-21,0,1
647232,195,-8177,-745,-1,-21,0,1
647238,180,-8177,-771,-1,-20,0,1
647244,167,-8179,-797,-1,-20,0,1
647250,150,-8179,-823,-1,-19,0,1
647256,113,-8176,-858,0,-16,0,1
647262,31,-8179,-904,0,-11,-1,1
647268,-86,-8180,-951,0,-1,-1,1
647273,-204,-8176,-1028,0,16,-1,1
647280,-414,-8176,-1107,0,46,0,1
647285,-872,-8188,-1089,0,96,1,1
647291,-1425,-8191,-1027,-1,163,0,1
647296,-2278,-8193,-1106,-2,248,-1,1
647302,-3530,-8199,-1410,-2,346,-3,1
647309,-4843,-8216,-1642,0,454,-3,1
647314,-6143,-8234,-1946,0,579,0,1
647319,-7414,-8256,-2398,-1,728,5,1
647326,-8608,-8261,-2657,-4,910,9,1
647332,-9419,-8264,-2251,-6,1126,11,1
647337,-9752,-8252,-1679,-8,1335,13,1
647343,-10369,-8256,-545,-11,1431,13,1
647349,-10793,-8269,980,-14,1431,14,1
647354,-11165,-8266,2725,-17,1431,18,1
647359,-11292,-8263,4675,-22,1431,23,1
647365,-11158,-8245,6347,-26,1431,27,1
647371,-10539,-8274,7780,-30,1431,28,1
647376,-9030,-8323,9009,-32,1431,25,1
647382,-7585,-8319,10062,-36,1431,21,1
647388,-6221,-8302,10964,-35,1245,13,1
647394,-4899,-8238,11738,-27,891,5,1
647399,-3224,-8198,11695,-20,589,-5,1
647405,-1542,-8198,10487,-15,322,-16,1
647411,-69,-8262,8926,-16,50,-29,1
647415,1292,-8119,7267,-16,-202,-33,1
647419,1859,-8093,6034,-10,-389,-27,1
647423,2273,-8136,5093,-9,-508,-27,1
647429,2717,-8175,4387,-10,-549,-25,1
647434,2643,-8209,4031,-9,-547,-19,1
647440,2459,-8258,3916,-7,-527,-17,1
647446,2007,-8289,3624,-4,-475,-13,1
647452,1473,-8341,3608,-2,-399,-10,1
647458,983,-8361,3341,-1,-312,-8,1
647464,656,-8373,3057,0,-227,-6,1
647470,396,-8355,2856,3,-161,-4,1
647474,178,-8343,2321,4,-119,-2,1
647480,241,-8287,1671,4,-97,-1,1
647485,539,-8265,1011,5,-81,1,1
647490,588,-8231,551,6,-70,3,1
647495,624,-8271,233,7,-68,4,1
647500,599,-8287,-63,4,-63,2,1
647506,577,-8268,-409,0,-61,-1,1
647512,635,-8221,-905,-2,-62,-2,1
647518,645,-8202,-1340,0,-58,-1,1
647524,564,-8200,-1482,2,-52,0,1
647529,432,-8205,-1627,2,-47,0,1
647535,337,-8201,-1759,1,-38,-1,1
647540,265,-8195,-1726,1,-31,-1,1
647546,178,-8194,-1605,1,-25,-1,1
647552,98,-8195,-1428,1,-20,-1,1
647558,21,-8197,-1206,1,-19,-2,1
647564,-40,-8200,-1005,1,-22,-3,1
647570,-20,-8196,-867,0,-28,-5,1
647576,25,-8195,-752,0,-34,-4,1
647581,22,-8194,-653,1,-38,-3,1
647587,-8,-8194,-551,1,-37,-3,1
647594,-11,-8200,-436,1,-31,-2,1
647599,62,-8201,-328,1,-22,-2,1
647605,181,-8197,-259,0,-12,-1,1
647611,335,-8193,-214,0,-6,-1,1
647617,527,-8189,-200,1,-5,-1,1
647623,711,-8181,-222,0,-8,-2,1
647629,871,-8174,-293,0,-12,-2,1
647635,1012,-8169,-378,0,-13,-1,1
647641,1109,-8169,-466,1,-12,-1,1
647647,1168,-8167,-576,0,-9,-1,1
647653,1224,-8166,-675,0,-6,-1,1
647658,1253,-8167,-751,0,-3,0,1
647664,1262,-8167,-807,0,0,0,1
647669,1273,-8164,-824,0,1,0,1
647675,1261,-8163,-814,0,3,0,1
647680,1242,-8160,-784,0,4,0,1
647685,1224,-8158,-742,0,4,0,1
647691,1194,-8156,-707,0,4,0,1
647696,1165,-8156,-678,0,3,0,1
647701,1127,-8158,-660,1,1,0,1
647707,1077,-8160,-645,1,-1,0,1
647712,1015,-8162,-642,0,-1,0,1
647718,947,-8164,-628,0,-1,0,1
647724,891,-8164,-606,0,-1,0,1
647729,846,-8165,-579,0,0,0,1
647734,802,-8166,-531,0,-1,0,1
647739,774,-8168,-478,0,-3,0,1
647743,752,-8170,-435,0,-3,0,1
647748,734,-8171,-400,0,-5,0,1
647752,734,-8173,-386,0,-6,0,1
647757,720,-8175,-397,0,-6,0,1
647762,715,-8175,-421,0,-9,0,1
647767,707,-8178,-457,0,-10,0,1
647771,679,-8179,-497,0,-11,0,1
647777,661,-8180,-533,0,-10,0,1
647782,634,-8179,-565,0,-7,0,1
647787,599,-8180,-592,0,-3,0,1
647793,593,-8180,-618,0,1,0,1
647797,602,-8180,-647,0,5,0,1
647802,625,-8179,-681,0,6,0,1
647807,676,-8177,-706,0,5,0,1
647811,721,-8173,-733,0,5,0,1
647815,764,-8168,-761,0,4,0,1
647820,826,-8166,-780,0,3,0,1
647824,864,-8165,-805,0,4,0,1
647828,899,-8165,-816,0,3,0,1
647832,942,-8163,-819,0,2,0,1
647836,954,-8163,-821,0,2,0,1
647839,964,-8163,-808,0,0,0,1
647844,971,-8164,-785,0,0,0,1
647848,948,-8165,-759,0,0,0,1
647852,931,-8168,-723,0,0,0,1
647855,915,-8170,-676,0,1,0,1
647859,884,-8172,-640,0,1,0,1
647863,869,-8174,-601,0,0,0,1
647868,851,-8174,-570,0,-1,0,1
647873,822,-8173,-558,0,-1,0,1
647879,812,-8172,-549,0,-1,0,1
647884,792,-8172,-556,0,-1,0,1
647889,767,-8174,-579,0,0,0,1
647894,765,-8174,-597,0,-1,0,1
647899,757,-8172,-619,0,-1,0,1
647904,749,-8174,-636,0,-2,0,1
647909,758,-8173,-639,0,-3,0,1
647913,749,-8172,-642,0,-3,0,1
647918,735,-8172,-637,0,-3,0,1
647923,736,-8174,-619,0,-3,0,1
647927,719,-8175,-607,0,-2,0,1
647932,719,-8175,-592,0,-3,0,1
647937,735,-8177,-573,0,-3,0,1
647942,742,-8178,-562,0,-3,0,1
647947,770,-8176,-543,0,-4,0,1
647952,802,-8172,-525,0,-3,0,1
647956,809,-8174,-519,0,-3,0,1
647961,821,-8176,-514,0,-2,0,1
647966,831,-8175,-514,0,0,0,1
647970,828,-8175,-532,0,1,0,1
647974,841,-8172,-544,-1,0,0,1
647979,852,-8172,-563,-1,1,0,1
647983,852,-8173,-585,-1,1,0,1
647988,867,-8171,-595,-1,2,0,1
647992,870,-8170,-605,-1,3,0,1
647997,857,-8169,-612,-1,3,0,1
648001,850,-8169,-599,-1,2,0,1
648006,822,-8169,-590,-1,1,0,1
648011,780,-8170,-586,-1,1,0,1
648015,750,-8173,-569,-1,1,0,1
648021,713,-8172,-566,-1,2,0,1
648025,685,-8172,-565,-1,2,0,1
648030,678,-8174,-566,-1,2,0,1
648034,667,-8175,-579,-1,3,0,1
648038,664,-8175,-592,-1,3,0,1
648043,669,-8175,-602,-1,3,0,1
648049,665,-8174,-619,-1,4,0,1
648053,665,-8174,-631,-1,5,0,1
648057,679,-8174,-636,-1,6,0,1
648061,680,-8173,-649,-1,6,0,1
648065,688,-8172,-653,-1,6,0,1
648069,697,-8171,-652,-1,6,0,1
648073,691,-8169,-655,-1,6,0,1
648077,693,-8169,-654,-1,6,0,1
648081,697,-8169,-662,-1,6,0,1
648085,691,-8167,-673,-1,5,0,1
648089,699,-8167,-682,-1,4,0,1
648093,707,-8167,-693,-1,3,0,1
648097,703,-8168,-708,-1,2,0,1
648101,714,-8169,-709,-1,1,0,1
648105,722,-8169,-709,-1,1,0,1
648109,719,-8170,-708,-1,0,0,1
648113,723,-8172,-692,-1,-1,0,1
648117,716,-8174,-680,0,-1,0,1
648121,714,-8175,-674,0,0,0,1
648125,727,-8173,-660,0,0,0,1
648129,732,-8174,-650,0,0,0,1
648133,737,-8174,-640,-1,0,0,1
648137,754,-8174,-627,-1,-1,0,1
648141,757,-8172,-613,-1,-1,-1,1
648145,755,-8172,-596,-1,-1,-1,1
648149,754,-8170,-577,-1,-1,-1,1
648153,740,-8169,-569,-1,0,-1,1
648157,735,-8168,-558,-1,-1,-1,1
648161,745,-8168,-556,-1,-1,0,1
648165,753,-8170,-561,-1,-1,0,1
648169,770,-8172,-571,-1,-2,0,1
648173,795,-8169,-586,-1,-2,0,1
648177,809,-8169,-619,-1,-2,0,1
648181,834,-8166,-655,0,-2,-1,1
648185,846,-8164,-685,0,-3,-1,1
648189,832,-8162,-714,-1,-3,-1,1
648193,818,-8162,-735,-1,-3,-1,1
648198,793,-8160,-745,-1,-1,-1,1
648202,767,-8162,-753,-1,0,0,1
648206,760,-8166,-745,-1,1,0,1
648209,753,-8166,-735,0,2,0,1
648213,752,-8165,-715,-1,1,0,1
648217,758,-8162,-691,0,1,0,1
648221,759,-8166,-668,0,1,0,1
648226,763,-8164,-649,0,0,0,1
648231,770,-8166,-639,0,0,-1,1
648236,767,-8167,-641,0,0,-1,1
648241,767,-8168,-646,0,-1,0,1
648246,769,-8167,-653,0,0,-1,1
648251,759,-8166,-659,0,0,0,1
648256,756,-8166,-661,0,1,0,1
648261,754,-8166,-662,0,1,-1,1
648266,747,-8168,-668,0,1,-1,1
648272,748,-8169,-669,0,0,-1,1
648277,745,-8169,-668,0,0,-1,1
648282,736,-8170,-675,0,-1,0,1
648287,733,-8171,-676,0,-1,0,1
648293,728,-8173,-691,0,0,-1,1
648298,731,-8174,-706,0,0,0,1
648302,747,-8175,-709,0,0,0,1
648308,754,-8176,-714,0,-1,-1,1
648313,763,-8176,-710,0,-2,-1,1
648319,770,-8174,-695,0,-2,-1,1
648324,768,-8171,-681,0,-1,-1,1
648329,768,-8170,-660,0,-1,-1,1
648334,768,-8172,-632,0,-1,-1,1
648339,760,-8175,-609,0,-2,-1,1
648345,756,-8176,-584,0,-2,-1,1
648350,753,-8179,-560,0,-2,-1,1
648355,746,-8181,-546,0,-1,-1,1
648360,750,-8179,-534,0,-1,-1,1
648365,755,-8178,-534,0,0,-1,1
648369,756,-8179,-546,0,-1,-1,1
648374,759,-8181,-561,0,-2,-1,1
648379,749,-8180,-582,0,-2,-1,1
648384,731,-8177,-609,0,0,-1,1
648389,726,-8180,-627,0,0,-1,1
648394,726,-8180,-640,-1,0,-1,1
648399,722,-8179,-644,-1,-1,-1,1
648405,731,-8182,-644,-1,-1,-1,1
648410,738,-8182,-640,-1,-1,-1,1
648415,757,-8177,-634,0,0,-1,1
648419,789,-8174,-630,0,0,-1,1
648423,823,-8175,-640,0,0,-1,1
648427,856,-8171,-653,0,-2,-1,1
648432,882,-8171,-667,0,-3,-1,1
648437,897,-8170,-679,0,-3,-1,1
648443,901,-8171,-686,0,-3,-1,1
648448,891,-8172,-684,0,-3,-1,1
648453,868,-8171,-676,-1,-2,-1,1
648458,845,-8168,-662,-1,-1,0,1
648464,823,-8169,-645,0,0,0,1
648468,807,-8171,-627,0,1,0,1
648472,801,-8173,-622,0,0,0,1
648476,804,-8173,-629,0,0,0,1
648481,812,-8171,-646,0,-1,0,0
648486,829,-8172,-670,0,-1,0,0
648491,845,-8172,-702,0,-1,0,0
648496,856,-8172,-730,0,-2,0,0
648501,868,-8171,-747,0,-2,0,0
648506,865,-8171,-754,0,-2,0,0
648511,854,-8172,-744,0,-2,0,0
648516,842,-8175,-716,0,-1,0,0
648521,828,-8178,-681,0,-1,0,0
648526,816,-8178,-642,0,0,0,0
648531,817,-8177,-609,0,0,0,0
648536,816,-8176,-589,0,0,0,0
648542,823,-8177,-578,0,-1,0,0
648547,833,-8177,-585,0,-2,0,0
648553,835,-8178,-603,0,-2,0,0
648559,837,-8176,-626,0,-3,0,0
648565,834,-8172,-645,0,-2,0,0
648570,823,-8173,-660,0,-2,0,0
648576,817,-8176,-664,0,-2,0,0
648581,806,-8177,-656,0,-1,0,0
648587,796,-8175,-644,0,0,0,0
648592,799,-8175,-631,0,0,0,0
648598,799,-8174,-619,0,0,0,0
648602,798,-8175,-611,0,-1,0,0
648608,808,-8176,-608,0,-1,0,0
648614,815,-8176,-611,0,-1,0,0
648620,816,-8176,-617,0,-2,0,0
648626,814,-8178,-615,0,-3,0,0
648631,794,-8179,-612,0,-3,0,0
648637,764,-8178,-605,0,-4,0,0
648642,730,-8180,-590,0,-4,0,0
648648,680,-8180,-579,0,-5,0,0
648654,626,-8183,-569,0,-6,0,0
648659,577,-8184,-568,0,-8,0,0
648665,528,-8185,-569,0,-9,0,0
648671,493,-8186,-565,0,-10,0,0
648677,481,-8188,-547,-1,-9,0,0
648682,490,-8187,-530,-1,-8,0,0
648688,537,-8183,-498,-1,-5,0,0
648694,608,-8182,-458,-1,-2,0,0
648700,692,-8177,-424,-1,0,0,0
648705,787,-8178,-391,-1,1,0,0
648711,880,-8175,-367,-1,1,0,0
648717,961,-8172,-359,-1,0,0,0
648722,1032,-8169,-356,-1,0,0,0
648728,1091,-8164,-364,-1,2,1,0
648733,1143,-8162,-382,-1,4,1,0
648739,1190,-8163,-407,-1,6,1,0
648744,1218,-8160,-443,-1,8,2,0
648750,1232,-8160,-477,-1,9,2,0
648755,1242,-8160,-519,-1,9,1,0
648761,1228,-8160,-569,-2,9,1,0
648767,1198,-8161,-618,-2,8,1,0
648772,1149,-8166,-659,-2,6,1,0
648778,1069,-8166,-696,-2,4,1,0
648784,979,-8167,-723,-1,3,1,0
648789,888,-8169,-742,-1,2,1,0
648795,795,-8168,-761,-1,2,1,0
648801,718,-8166,-775,-1,1,1,0
648806,656,-8166,-795,-1,1,1,0
648812,600,-8169,-820,-1,2,1,0
648817,555,-8170,-841,-1,1,1,0
648823,512,-8171,-869,-1,0,1,0
648828,461,-8171,-883,-1,-1,0,0
648834,404,-8171,-877,-1,-2,0,0
648840,342,-8171,-871,-1,-3,0,0
648846,280,-8175,-863,-1,-3,0,0
648852,233,-8180,-853,0,-3,0,0
648856,201,-8181,-847,0,-3,0,0
648860,189,-8183,-847,0,-3,0,0
648864,194,-8184,-856,0,-3,-1,0
648868,213,-8184,-872,0,-4,-1,0
648872,242,-8183,-884,0,-4,-1,0
648876,278,-8183,-893,0,-4,-1,0
648881,306,-8182,-896,0,-3,-1,0
648886,337,-8186,-883,0,-4,-1,0
648891,368,-8186,-853,0,-4,-1,0
648895,393,-8185,-809,0,-4,-1,0
648900,425,-8186,-755,0,-5,-1,0
648904,466,-8184,-694,0,-5,-1,0
648908,516,-8183,-630,0,-4,-1,0
648912,580,-8183,-571,0,-4,-1,0
648916,659,-8184,-516,0,-3,-1,0
648920,737,-8184,-476,0,-2,-1,0
648924,807,-8182,-451,0,-2,-1,0
648928,868,-8181,-428,-1,-1,-1,0
648932,910,-8180,-409,-1,0,-1,0
648936,942,-8179,-393,-1,1,0,0
648940,962,-8174,-375,-1,3,-1,0
648944,970,-8173,-365,-1,4,-1,0
648948,965,-8174,-366,-1,4,-1,0
648952,942,-8175,-384,-1,3,-1,0
648956,904,-8175,-412,-1,2,-1,0
648960,858,-8175,-457,-1,0,-1,0
648964,801,-8176,-510,-1,-1,-1,0
648969,748,-8178,-572,-1,-1,0,0
648975,708,-8177,-632,-1,0,0,0
648980,682,-8176,-688,-1,2,0,0
648986,674,-8175,-726,-1,2,0,0
648991,671,-8175,-756,-1,1,-1,0
648996,667,-8176,-776,-1,0,-1,0
649002,663,-8178,-779,-1,-2,-1,0
649007,653,-8177,-777,-1,-4,-1,0
649012,630,-8179,-769,-1,-6,-1,0
649017,602,-8184,-762,0,-8,-1,0
649022,574,-8185,-763,0,-9,-1,0
649027,544,-8185,-768,0,-10,-1,0
649032,522,-8184,-780,0,-11,-1,0
649037,504,-8181,-792,0,-11,-1,0
649042,490,-8178,-803,0,-12,-2,0
649047,485,-8179,-814,0,-12,-2,0
649053,482,-8179,-815,0,-12,-2,0
649057,484,-8180,-812,0,-12,-2,0
649063,498,-8180,-798,0,-13,-2,0
649068,517,-8180,-784,0,-14,-2,0
649073,538,-8177,-765,0,-16,-2,0
649078,566,-8177,-744,0,-18,-2,0
649084,600,-8178,-723,0,-19,-2,0
649089,645,-8178,-701,0,-20,-2,0
649095,690,-8178,-676,0,-21,-2,0
649100,725,-8174,-651,0,-22,-2,0
649106,751,-8171,-623,0,-22,-2,0
649111,768,-8170,-594,0,-21,-2,0
649116,772,-8171,-560,0,-20,-2,0
649121,773,-8173,-523,0,-18,-2,0
649126,773,-8174,-494,0,-15,-2,0
649131,774,-8172,-477,0,-11,-2,0
649136,785,-8172,-467,0,-8,-2,0
649140,808,-8170,-472,-1,-6,-1,0
649145,840,-8170,-479,-1,-5,-1,0
649150,874,-8174,-490,-1,-4,-1,0
649155,907,-8175,-499,-1,-4,-1,0
649160,937,-8174,-504,-1,-4,-1,0
649165,963,-8173,-507,-1,-5,-1,0
649170,977,-8174,-505,-1,-5,-1,0
649175,982,-8172,-493,-1,-6,-1,0
649181,986,-8171,-483,-1,-8,-1,0
649186,986,-8169,-481,-1,-9,-1,0
649191,983,-8169,-482,-1,-10,-1,0
649196,978,-8170,-489,-1,-10,-1,0
649201,966,-8168,-507,-1,-10,-1,0
649207,949,-8168,-533,-1,-9,-1,0
649211,931,-8168,-566,-1,-8,-1,0
649216,898,-8171,-598,-1,-8,-1,0
649221,863,-8172,-624,-1,-7,-1,0
649227,824,-8173,-644,-1,-6,-1,0
649232,782,-8172,-663,-1,-4,0,0
649238,751,-8176,-667,-1,-2,0,0
649244,731,-8184,-667,-1,-1,0,0
649250,731,-8183,-662,-1,-1,0,0
649255,728,-8184,-642,-1,-3,0,0
649259,681,-8182,-605,-1,-6,0,0
649263,629,-8191,-578,-1,-9,0,0
649267,565,-8186,-567,-1,-10,0,0
649271,568,-8198,-602,0,-10,0,0
649275,559,-8189,-664,0,-8,0,0
649279,585,-8196,-724,0,-7,0,0
649283,574,-8197,-759,0,-6,0,0
649287,607,-8221,-794,1,-6,0,0
649291,591,-8205,-799,1,-5,0,0
649295,633,-8204,-834,1,-6,0,0
649299,574,-8224,-824,1,-7,0,0
649303,581,-8204,-839,1,-9,0,0
649307,565,-8215,-793,1,-7,1,0
649311,560,-8197,-723,1,-6,1,0
649315,575,-8232,-657,1,-3,1,0
649319,575,-8194,-608,1,-2,2,0
649323,673,-8218,-633,1,-1,1,0
649327,652,-8197,-609,1,-2,2,0
649331,749,-8229,-653,1,-5,2,0
649335,740,-8208,-647,1,-4,2,0
649339,809,-8220,-674,1,-6,2,0
649343,775,-8199,-682,1,-4,2,0
649347,805,-8208,-717,1,-5,2,0
649351,736,-8203,-724,1,-5,2,0
649355,684,-8207,-728,1,-7,2,0
649360,592,-8202,-696,1,-7,2,0
649365,532,-8195,-680,1,-7,2,0
649370,483,-8203,-660,1,-5,2,0
649375,468,-8209,-655,2,-5,2,0
649380,474,-8212,-655,2,-4,2,0
649385,491,-8207,-654,2,-4,3,0
649390,517,-8191,-640,2,-5,3,0
649395,523,-8165,-623,2,-5,3,0
649400,536,-8178,-600,2,-5,3,0
649405,523,-8172,-579,2,-5,4,0
649410,557,-8188,-593,2,-5,4,0
649415,604,-8160,-603,2,-5,4,0
649420,693,-8197,-643,2,-6,4,0
649425,724,-8203,-675,2,-7,4,0
649430,741,-8210,-689,2,-9,4,0
649435,720,-8196,-692,2,-10,4,0
649440,663,-8219,-668,2,-11,4,0
649445,591,-8191,-634,2,-11,4,0
649450,562,-8170,-628,2,-10,4,0
649455,525,-8181,-608,2,-10,4,0
649460,506,-8193,-602,3,-11,4,0
649466,488,-8206,-599,3,-10,4,0
649471,488,-8225,-596,3,-10,4,0
649476,488,-8237,-585,3,-9,4,0
649481,491,-8235,-567,3,-8,4,0
649486,499,-8227,-557,3,-7,4,0
649491,520,-8209,-558,3,-6,4,0
649496,540,-8189,-564,3,-5,5,0
649502,564,-8169,-575,3,-3,5,0
649507,578,-8151,-573,3,-2,5,0
649512,573,-8137,-554,3,-1,5,0
649517,563,-8118,-513,3,0,6,0
649521,547,-8094,-468,3,1,6,0
649526,531,-8071,-429,3,1,6,0
649532,531,-8046,-408,3,1,6,0
649536,517,-8282,-401,3,1,6,0
649541,498,-8208,-395,3,1,6,0
649546,606,-8264,-482,2,4,6,0
649551,631,-8211,-511,2,4,6,0
649556,689,-8231,-590,2,1,6,0
649562,637,-8218,-604,2,2,6,0
649567,683,-8205,-642,2,2,5,0
649572,660,-8209,-671,2,5,5,0
649577,711,-8189,-722,2,5,5,0
649583,707,-8179,-759,2,6,5,0
649588,770,-8208,-810,2,4,4,0
649593,762,-8168,-826,2,3,4,0
649598,774,-8160,-832,2,0,3,0
649604,770,-8187,-861,2,-1,3,0
649609,752,-8138,-861,2,-2,3,0
649615,717,-8165,-894,2,-2,2,0
649620,697,-8161,-900,2,-2,2,0
649626,679,-8148,-894,1,-2,1,0
649632,665,-8155,-917,1,0,1,0
649637,676,-8159,-948,1,0,0,0
649641,695,-8158,-975,1,0,0,0
649646,728,-8160,-1038,0,-1,-1,0
649651,711,-8158,-1045,0,-3,-1,0
649656,664,-8162,-1015,0,-5,-2,0
649661,609,-8169,-961,0,-6,-1,0
649665,529,-8175,-863,0,-4,-1,0
649670,441,-8177,-751,0,-3,-1,0
649675,381,-8180,-650,0,-2,-1,0
649680,361,-8184,-565,1,0,-1,0
649685,351,-8186,-507,1,-1,-1,0
649690,350,-8188,-471,1,-2,-1,0
649696,371,-8188,-460,1,-3,-1,0
649700,405,-8187,-463,1,-3,-1,0
649705,441,-8188,-471,0,-3,-1,0
649711,475,-8188,-484,0,-4,-1,0
649715,496,-8186,-491,0,-3,-1,0
649721,498,-8184,-501,0,-4,-1,0
649725,497,-8183,-495,0,-4,-1,0
649730,481,-8181,-486,0,-4,-1,0
649735,456,-8182,-481,0,-5,-1,0
649741,443,-8186,-480,0,-4,-1,0
649745,435,-8186,-490,1,-4,-1,0
649750,429,-8186,-501,1,-4,-1,0
649755,435,-8186,-518,0,-4,-1,0
649759,437,-8185,-533,0,-4,-1,0
649765,435,-8184,-542,0,-3,-1,0
649769,431,-8185,-543,0,-3,-1,0
649775,420,-8185,-532,0,-1,-1,0
649779,412,-8184,-505,0,0,-1,0
649784,409,-8184,-478,0,1,-1,0
649789,403,-8184,-460,0,0,-1,0
649794,396,-8185,-451,0,0,-1,0
649799,394,-8187,-453,1,0,-1,0
649803,400,-8188,-467,1,1,-1,0
649808,417,-8187,-495,1,1,-1,0
649812,448,-8187,-526,1,1,-1,0
649817,484,-8188,-563,1,1,-1,0
649821,521,-8187,-587,0,0,-1,0
649826,551,-8188,-601,0,0,-1,0
649831,571,-8187,-603,0,-1,-1,0
649836,577,-8187,-590,1,-1,-1,0
649841,565,-8184,-570,1,-1,-1,0
649847,538,-8184,-545,1,-2,-1,0
649851,495,-8185,-521,1,-2,-1,0
649855,441,-8185,-506,1,-2,-1,0
649860,390,-8188,-501,1,-2,-1,0
649866,351,-8186,-509,1,0,-1,0
649872,332,-8186,-526,1,0,-1,0
649878,336,-8185,-546,1,0,-1,0
649883,362,-8183,-578,1,0,-1,0
649889,404,-8181,-603,1,-1,-1,0
649895,462,-8181,-622,1,-1,-1,0
649900,533,-8179,-629,1,-1,-1,0
649906,603,-8178,-625,1,-2,-1,0
649912,660,-8176,-607,1,-3,-1,0
649918,703,-8176,-575,1,-3,-1,0
649924,732,-8176,-534,1,-4,-1,0
649930,751,-8174,-490,1,-4,-1,0
649935,759,-8177,-444,1,-5,-1,0
649940,767,-8173,-401,1,-5,0,0
649945,779,-8175,-360,1,-4,0,0
649950,791,-8178,-331,1,-3,0,0
649954,810,-8177,-310,1,-2,0,0
649959,831,-8176,-300,1,-1,0,0
649964,849,-8175,-303,1,-1,0,0
649968,859,-8177,-311,1,-1,0,0
649972,847,-8178,-315,1,-2,0,0
649977,812,-8178,-318,1,-2,0,0
649981,766,-8181,-318,0,-1,0,0
649985,715,-8186,-316,0,0,0,0
649989,669,-8188,-300,0,1,0,0
649993,631,-8191,-275,0,1,1,0
649996,604,-8193,-247,0,2,1,0
650000,590,-8191,-219,0,2,1,0
650005,583,-8190,-196,0,2,1,0
650010,584,-8192,-172,0,2,1,0
650015,582,-8192,-150,0,2,1,0
650020,575,-8194,-121,0,2,1,0
650025,561,-8192,-95,-1,3,1,0
650030,540,-8191,-70,-1,3,1,0
650035,512,-8190,-48,-1,3,1,0
650040,486,-8191,-33,-1,4,1,0
650045,468,-8192,-27,-1,5,1,0
650050,450,-8191,-31,-1,6,1,0
650055,431,-8190,-46,-1,6,1,0
650060,414,-8188,-75,-1,6,1,0
650065,396,-8187,-119,-1,6,1,0
650070,380,-8189,-175,-1,6,0,0
650075,370,-8189,-243,-1,7,1,0
650080,362,-8189,-317,-1,7,1,0
650085,356,-8188,-384,-1,7,1,0
650090,356,-8186,-450,-1,7,0,0
650095,362,-8186,-507,-1,7,0,0
650100,368,-8186,-552,-1,7,0,0
650105,372,-8187,-583,-1,7,0,0
650110,373,-8186,-601,-1,6,0,0
650115,366,-8186,-606,-1,5,0,0
650120,352,-8187,-594,-1,4,0,0
650125,330,-8188,-578,-1,2,0,0
650130,306,-8188,-558,-1,1,0,0
650135,285,-8186,-536,-1,0,0,0
650140,269,-8185,-516,-1,0,0,0
650145,261,-8185,-501,0,-1,0,0
650150,265,-8185,-495,0,-1,0,0
650155,277,-8186,-496,0,0,0,0
650160,295,-8186,-505,0,-1,0,0
650165,316,-8186,-518,0,-1,0,0
650170,338,-8188,-529,0,-1,0,0
650175,351,-8187,-532,-1,-1,0,0
650180,360,-8188,-516,-1,-1,-1,0
650185,358,-8188,-489,-1,-1,-1,0
650191,354,-8191,-455,-1,-1,-1,0
650197,346,-8191,-420,-1,0,-1,0
650201,342,-8193,-392,-1,0,-1,0
650206,335,-8193,-369,-1,0,-1,0
650212,333,-8193,-355,-1,0,-1,0
650216,340,-8189,-354,-1,0,0,0
650221,351,-8189,-360,-1,0,-1,0
650226,363,-8188,-372,-1,0,-1,0
650231,374,-8190,-391,-1,0,-1,0
650236,384,-8187,-406,-1,1,-1,0
650241,389,-8186,-412,-1,1,-1,0
650245,394,-8185,-418,-1,1,-1,0
650250,396,-8182,-419,-1,1,-1,0
650255,398,-8181,-421,-1,2,-1,0
650260,403,-8180,-425,-1,1,-1,0
650265,415,-8183,-432,-1,1,-1,0
650270,427,-8185,-444,-1,0,-1,0
650275,430,-8185,-457,-1,-1,-1,0
650280,424,-8184,-466,-1,-2,-1,0
650286,408,-8183,-477,-1,-2,-1,0
650291,388,-8186,-486,-1,-1,-1,0
650296,362,-8186,-488,-1,-1,-1,0
650301,338,-8186,-485,-1,-1,-1,0
650307,320,-8187,-478,-1,-1,-1,0
650312,309,-8188,-475,-1,-1,-1,0
650317,307,-8187,-471,-1,0,-1,0
650322,315,-8188,-475,-1,0,-1,0
650327,330,-8190,-484,0,0,-1,0
650331,347,-8190,-495,0,0,-1,0
650336,369,-8190,-504,0,0,-1,0
650340,388,-8192,-511,0,0,-1,0
650345,408,-8190,-511,0,0,-1,0
650350,431,-8190,-508,0,0,-1,0
650355,453,-8190,-502,-1,0,-1,0
650360,474,-8190,-491,-1,0,-1,0
650365,491,-8191,-473,-1,0,-1,0
650370,507,-8190,-459,0,0,-1,0
650375,519,-8191,-448,0,0,-1,0
650381,523,-8191,-444,0,-1,-1,0
650386,513,-8191,-448,0,-1,-1,0
650391,498,-8188,-460,0,-1,-1,0
650395,483,-8186,-477,0,-1,-1,0
650400,468,-8184,-491,0,-1,-1,0
650405,451,-8185,-504,0,-1,-1,0
650410,439,-8185,-506,0,-1,-1,0
650415,435,-8186,-506,0,0,-1,0
650420,433,-8188,-501,0,0,-1,0
650425,428,-8190,-490,0,0,-1,0
650430,426,-8190,-478,0,0,-1,0
650435,424,-8192,-461,0,-1,-1,0
650440,425,-8190,-446,0,-1,-1,0
650445,435,-8186,-431,0,-1,-1,0
650451,451,-8187,-420,0,-1,-1,0
650455,474,-8187,-418,0,0,-1,0
650460,502,-8185,-416,0,0,-1,0
650465,527,-8185,-419,0,0,-1,0
650470,546,-8186,-424,-1,0,-1,0
650475,565,-8187,-420,-1,0,-1,0
650480,579,-8187,-417,-1,0,-1,0
650485,592,-8188,-414,-1,0,-1,0
650490,603,-8189,-406,-1,1,-1,0
650495,609,-8190,-398,-1,1,-1,0
650500,610,-8192,-391,-1,1,-1,0
650505,616,-8192,-389,-1,1,-1,0
650510,616,-8197,-390,-1,2,-1,0
650515,614,-8196,-390,-1,2,0,0
650520,610,-8191,-389,-1,2,0,0
650525,608,-8194,-389,-1,3,0,0
650530,605,-8193,-383,-1,3,0,0
650535,599,-8193,-377,-1,4,0,0
650540,600,-8191,-374,-1,5,0,0
650545,598,-8185,-375,-1,5,0,0
650550,596,-8183,-380,-1,4,0,0
650555,585,-8181,-392,-1,3,0,0
650560,571,-8183,-406,-1,3,0,0
650565,554,-8184,-417,-1,2,0,0
650570,535,-8185,-431,-1,2,0,0
650575,516,-8183,-439,-1,2,0,0
650580,497,-8185,-443,-1,3,0,0
650585,476,-8187,-448,-1,4,0,0
650590,457,-8188,-453,-1,4,0,0
650595,440,-8188,-457,-1,5,0,0
650600,421,-8187,-460,-1,4,0,0
650605,407,-8189,-457,-1,3,0,0
650610,399,-8191,-457,-1,2,0,0
650615,397,-8190,-450,-1,2,0,0
650620,407,-8190,-449,-1,2,0,0
650625,421,-8188,-454,-1,1,0,0
650630,438,-8189,-462,-1,1,0,0
650635,449,-8190,-472,-1,2,0,0
650640,455,-8190,-485,-1,2,0,0
650645,457,-8191,-504,-1,3,0,0
650650,455,-8193,-513,-1,3,0,0
650655,452,-8192,-513,-1,4,0,0
650660,452,-8193,-509,-1,4,0,0
650665,459,-8195,-493,-1,5,0,0
650670,472,-8195,-472,-1,5,0,0
650675,486,-8192,-450,-1,5,0,0
650680,500,-8190,-429,-1,4,0,0
650685,507,-8191,-422,-1,3,0,0
650691,508,-8192,-422,-1,2,0,0
650696,495,-8189,-436,-1,1,0,0
650701,480,-8193,-453,-1,1,0,0
650705,461,-8193,-471,-1,2,0,0
650711,444,-8192,-487,-1,2,0,0
650716,432,-8196,-500,-1,3,0,0
650720,427,-8194,-511,-1,4,0,0
650726,432,-8193,-516,-1,4,0,0
650731,443,-8192,-513,-1,3,0,0
650736,454,-8190,-513,-1,2,0,0
650741,456,-8188,-513,-1,1,0,0
650746,451,-8189,-505,-1,0,0,0
650750,438,-8190,-503,0,-1,0,0
650755,425,-8190,-502,0,-1,-1,0
650760,417,-8191,-496,0,0,0,0
650765,418,-8189,-488,-1,0,0,0
650770,421,-8192,-484,-1,0,0,0
650775,431,-8194,-482,-1,0,0,0
650780,445,-8195,-466,-1,0,0,0
650785,451,-8195,-457,-1,0,0,0
650790,455,-8193,-447,-1,0,-1,0
650795,452,-8188,-441,0,0,-1,0
650800,445,-8188,-442,0,0,-1,0
650805,436,-8188,-447,0,1,-1,0
650810,427,-8187,-453,-1,2,0,0
650815,418,-8185,-458,-1,2,0,0
650820,416,-8186,-467,-1,3,0,0
650825,417,-8187,-474,-1,2,0,0
650830,422,-8189,-485,-1,2,-1,0
650835,423,-8192,-489,-1,1,-1,0
650840,418,-8194,-490,0,0,-1,0
650845,407,-8194,-490,0,0,-1,0
650850,398,-8193,-491,0,0,-1,0
650855,395,-8191,-495,0,0,-1,0
650860,398,-8189,-497,0,1,-1,0
650865,409,-8190,-495,0,1,-1,0
650870,424,-8189,-495,0,1,-1,0
650875,445,-8185,-496,0,1,-1,0
650880,465,-8185,-493,0,0,-1,0
650885,479,-8186,-488,0,0,-1,0
650890,487,-8186,-480,0,0,-1,0
650895,487,-8187,-472,0,0,-1,0
650900,483,-8189,-469,0,0,-1,0
650905,474,-8190,-474,0,1,-1,0
650910,470,-8191,-477,0,2,-1,0
650915,469,-8191,-481,0,2,-1,0
650920,471,-8191,-483,0,2,-1,0
650925,473,-8190,-484,0,1,-1,0
650930,476,-8191,-477,0,0,-1,0
650935,474,-8190,-473,0,0,-1,0
650940,462,-8192,-463,0,0,-1,0
650945,451,-8191,-455,0,0,-1,0
650950,448,-8190,-449,0,0,-1,0
650955,447,-8189,-444,0,0,-1,0
650960,447,-8190,-445,0,0,-1,0
650965,450,-8187,-452,0,0,-1,0
650970,455,-8183,-462,0,0,-1,0
650975,460,-8181,-469,0,0,-1,0
650980,460,-8181,-469,0,0,-1,1
650985,447,-8180,-464,0,-1,-1,1
650990,424,-8182,-458,0,-1,-1,1
650995,397,-8184,-447,0,-1,-1,1
651000,375,-8189,-437,0,0,-1,1
651005,364,-8192,-430,0,0,-1,1
651010,358,-8192,-422,0,-1,-1,1
651016,364,-8193,-419,0,-1,-1,1
651021,379,-8196,-416,0,-1,-1,1
651027,404,-8194,-420,0,-1,-1,1
651033,428,-8195,-419,0,-1,-1,1
651038,446,-8197,-418,-1,-1,-1,1
651045,461,-8196,-418,-1,-1,-1,1
651051,474,-8195,-414,-1,-1,-1,1
651056,486,-8193,-409,-1,0,-1,1
651062,494,-8192,-407,-1,-1,-1,1
651068,500,-8192,-410,-1,-1,-1,1
651075,501,-8190,-414,-1,-1,-1,1
651081,501,-8191,-428,-1,-1,-1,1
651087,498,-8190,-445,0,-1,-1,1
651091,492,-8190,-463,0,-1,-1,1
651095,487,-8187,-480,0,0,-1,1
651098,480,-8186,-504,0,0,-1,1
651102,478,-8185,-522,0,0,-1,1
651106,475,-8184,-531,0,0,-1,1
651110,475,-8183,-521,-1,0,-1,1
651114,476,-8185,-506,-1,0,-1,1
651118,480,-8185,-484,-1,0,-1,1
651122,482,-8189,-461,-1,0,-1,1
651126,485,-8189,-431,-1,0,-1,1
651130,490,-8189,-405,-1,0,-1,1
651135,493,-8188,-387,0,-1,-1,1
651140,496,-8190,-368,-1,-1,-1,1
651145,498,-8190,-364,-1,0,-1,1
651150,500,-8193,-364,-1,0,-1,1
651155,505,-8190,-370,-1,-1,-1,1
651160,510,-8191,-381,-1,-1,-1,1
651165,516,-8187,-395,-1,0,-1,1
651170,523,-8186,-410,-1,0,-1,1
651175,528,-8189,-422,-1,0,-1,1
651180,532,-8191,-438,-1,0,-1,1
651185,533,-8194,-455,-1,0,-1,1
651190,534,-8191,-470,-1,0,-1,1
651195,532,-8189,-479,-1,0,0,1
651200,531,-8189,-485,-1,0,0,1
651205,527,-8190,-485,-1,0,0,1
651210,524,-8189,-478,-1,0,0,1
651215,521,-8187,-470,-1,0,0,1
651219,516,-8188,-460,-1,0,0,1
651225,512,-8189,-454,-1,0,0,1
651229,508,-8185,-450,-1,0,0,1
651235,500,-8184,-449,-1,0,0,1
651240,490,-8183,-448,-1,-1,0,1
651245,479,-8186,-449,-1,0,-1,1
651250,468,-8188,-453,-1,0,0,1
651254,458,-8189,-453,-1,0,0,1
651260,451,-8188,-454,-1,0,0,1
651265,450,-8191,-455,-1,0,0,1
651269,451,-8189,-463,-1,0,0,1
651274,450,-8188,-472,-1,0,-1,1
651279,446,-8189,-479,-1,0,-1,1
651285,444,-8186,-485,-1,1,-1,1
651290,445,-8184,-487,-1,1,-1,1
651295,442,-8185,-487,-1,1,-1,1
651300,440,-8181,-485,-1,1,-1,1
651305,437,-8180,-481,-1,1,-1,1
651310,433,-8181,-473,-1,1,-1,1
651315,431,-8184,-462,-1,0,-1,1
651320,425,-8182,-461,-1,0,-1,1
651324,419,-8185,-467,0,-1,-1,1
651330,409,-8189,-470,0,-1,-1,1
651334,397,-8189,-474,0,-1,-1,1
651339,396,-8189,-479,-1,-1,-1,1
651344,396,-8188,-482,-1,-1,-1,1
651350,394,-8187,-481,-1,-1,-1,1
651355,398,-8187,-481,-1,-1,-1,1
651360,405,-8189,-477,-1,-1,-1,1
651365,414,-8190,-472,-1,-1,-1,1
651370,425,-8190,-465,-1,-1,-1,1
651375,436,-8192,-459,-1,-1,-1,1
651381,446,-8194,-453,-1,-1,-1,1
651386,455,-8194,-450,-1,0,-1,1
651391,468,-8194,-444,-1,0,-1,1
651396,473,-8192,-441,-1,0,-1,1
651400,479,-8192,-433,-1,0,-1,1
651405,485,-8191,-425,-1,0,-1,1
651410,489,-8190,-415,-1,0,-1,1
651415,489,-8189,-408,-1,0,-1,1
651419,495,-8190,-398,-1,0,-1,1
651424,503,-8188,-396,-1,0,-1,1
651429,510,-8189,-400,-1,0,-1,1
651434,517,-8186,-406,-1,0,-1,1
651439,520,-8185,-417,-1,-1,-1,1
651445,520,-8185,-427,-1,-1,-1,1
651450,518,-8184,-437,-1,-1,-1,1
651455,515,-8186,-449,-1,0,-1,1
651460,507,-8186,-460,-1,0,-1,1
651465,498,-8186,-468,-1,0,-1,1
651470,486,-8187,-473,-1,0,-1,1
651476,474,-8185,-480,-1,0,-1,1
651482,463,-8185,-484,-1,0,-1,1
651487,455,-8184,-492,-1,0,-1,1
651492,450,-8185,-499,-1,1,-1,1
651497,446,-8185,-508,-1,1,-1,1
651501,444,-8183,-508,-1,2,-1,1
651506,450,-8182,-507,-1,2,-1,1
651511,460,-8183,-502,-1,3,-1,1
651516,475,-8185,-487,-1,3,-1,1
651521,494,-8185,-476,-1,3,-1,1
651526,515,-8184,-466,-1,3,-1,1
651531,531,-8185,-456,-1,2,-1,1
651536,546,-8188,-455,0,2,-1,1
651541,556,-8188,-464,0,2,-1,1
651546,555,-8186,-480,0,1,-1,1
651550,545,-8185,-493,0,1,-1,1
651555,531,-8183,-498,0,2,-1,1
651559,509,-8182,-499,-1,2,-1,1
651564,485,-8184,-496,-1,3,-1,1
651570,466,-8185,-492,-1,4,-1,1
651574,450,-8185,-493,-1,5,-1,1
651579,442,-8183,-494,-1,6,0,1
651584,441,-8179,-493,-1,6,-1,1
651590,442,-8181,-484,-1,6,-1,1
651595,447,-8184,-478,-1,6,0,1
651599,451,-8184,-474,-1,6,0,1
651604,455,-8183,-465,-1,6,-1,1
651609,461,-8183,-458,-1,7,-1,1
651614,470,-8185,-449,-1,8,0,1
651619,481,-8185,-441,-1,9,0,1
651624,499,-8184,-436,-1,9,0,1
651629,521,-8183,-437,-1,10,0,1
651634,550,-8184,-447,-1,10,0,1
651639,577,-8184,-460,-1,10,0,1
651644,595,-8185,-474,-1,10,0,1
651649,605,-8184,-491,-1,10,0,1
651654,603,-8182,-503,-1,10,0,1
651659,595,-8183,-505,-1,10,0,1
651664,581,-8185,-504,-1,10,0,1
651669,562,-8185,-494,-1,10,0,1
651674,541,-8186,-481,-1,9,0,1
651679,521,-8185,-459,-1,9,0,1
651684,506,-8186,-437,-1,9,0,1
651689,505,-8187,-414,-1,8,0,1
651694,507,-8187,-396,-1,6,0,1
651699,512,-8187,-381,-1,4,0,1
651704,513,-8190,-377,-1,2,0,1
651709,507,-8191,-382,-1,0,0,1
651714,495,-8192,-393,-1,0,0,1
651719,482,-8190,-415,-1,0,0,1
651724,464,-8188,-437,-1,0,-1,1
651729,440,-8189,-457,-1,0,-1,1
651734,414,-8191,-470,-1,0,-1,1
651739,386,-8192,-478,-1,0,-1,1
651744,360,-8192,-486,-1,1,-1,1
651749,341,-8191,-486,-1,2,-1,1
651754,330,-8193,-479,-1,4,-1,1
651759,329,-8193,-474,-1,5,-1,1
651764,340,-8190,-472,-1,7,-1,1
651769,360,-8190,-470,-1,8,-1,1
651774,389,-8188,-464,-1,9,-1,1
651779,431,-8187,-461,-1,10,0,1
651784,471,-8187,-448,-1,11,0,1
651789,508,-8187,-430,-1,12,0,1
651794,542,-8185,-406,-1,15,0,1
651799,577,-8183,-384,-1,19,0,1
651804,627,-8183,-359,-1,22,0,1
651809,704,-8182,-332,-1,21,0,1
651814,807,-8181,-305,-1,13,0,1
651819,906,-8181,-272,-1,1,0,1
651824,1013,-8179,-240,-1,-13,0,1
651829,1196,-8173,-227,-1,-31,0,1
651834,1469,-8165,-232,0,-61,0,1
651839,1816,-8159,-244,1,-109,0,1
651844,2210,-8145,-259,2,-175,-1,1
651849,2647,-8131,-279,3,-256,-2,1
651854,3127,-8121,-251,5,-349,-3,1
651859,3551,-8118,-147,7,-454,-4,1
651864,3937,-8115,51,9,-569,-5,1
651870,4413,-8121,399,10,-696,-8,1
651874,4952,-8120,898,11,-843,-11,1
651880,5499,-8131,1646,12,-1010,-13,1
651885,6012,-8160,2679,13,-1191,-15,1
651890,6455,-8197,3868,13,-1378,-17,1
651896,6912,-8209,5291,13,-1430,-20,1
651901,7175,-8210,6671,15,-1430,-22,1
651906,6948,-8220,8058,17,-1430,-26,1
651911,7043,-8236,9246,16,-1430,-29,1
651916,6845,-8229,10266,13,-1430,-31,1
651921,6413,-8253,11139,13,-1430,-30,1
651926,5716,-8241,11888,13,-1430,-26,1
651931,4855,-8214,12476,15,-1430,-22,1
651936,3666,-8241,12359,17,-1425,-16,1
651941,1883,-8306,11956,11,-1242,-10,1
651946,-158,-8307,11460,5,-1050,-11,1
651951,-1785,-8304,10823,5,-845,-14,1
651956,-3185,-8315,9863,6,-623,-9,1
651960,-4083,-8325,8567,5,-403,-6,1
651965,-4563,-8291,7193,3,-211,-1,1
651970,-4872,-8275,5930,2,-60,0,1
651974,-5014,-8259,4581,3,28,0,1
651979,-4674,-8273,3711,6,65,0,1
651984,-4609,-8316,2940,5,84,2,1
651989,-4409,-8334,2020,1,76,3,1
651995,-4158,-8340,1388,-2,58,3,1
652000,-3848,-8326,1044,-3,47,2,1
652004,-3489,-8299,802,-4,46,1,1
652009,-3164,-8277,740,-3,52,0,1
652015,-2807,-8255,652,-2,63,-1,1
652019,-2611,-8240,595,-1,77,-3,1
652025,-2395,-8231,543,0,84,-3,1
652029,-2158,-8227,385,1,86,-3,1
652034,-1956,-8229,236,1,80,-2,1
652039,-1593,-8228,44,0,66,-1,1
652044,-1243,-8221,-111,0,56,-1,1
652050,-973,-8212,-194,0,46,-2,1
652054,-643,-8202,-253,0,37,-4,1
652059,-247,-8197,-240,0,35,-4,1
652064,26,-8198,-148,0,38,-2,1
652069,187,-8193,-92,0,40,-1,1
652074,403,-8186,-58,0,40,-2,1
652079,653,-8183,26,0,40,-2,1
652084,787,-8181,62,0,40,-2,1
652089,848,-8184,61,0,34,-2,1
652094,890,-8186,44,0,26,-2,1
652099,912,-8186,-34,0,21,-2,1
652104,870,-8190,-101,0,17,-1,1
652110,755,-8190,-107,0,13,-1,1
652114,629,-8192,-108,1,9,-1,1
652119,581,-8193,-217,0,5,-2,1
652124,540,-8191,-279,0,3,-2,1
652129,477,-8190,-332,0,4,-2,1
652134,374,-8190,-384,0,5,-1,1
652139,311,-8193,-376,0,5,-2,1
652144,289,-8194,-392,0,8,-2,1
652149,244,-8193,-386,0,9,-2,1
652154,226,-8196,-350,0,8,-2,1
652160,232,-8199,-346,0,6,-2,1
652164,230,-8200,-301,0,4,-2,1
652169,276,-8199,-267,0,2,-2,1
652174,312,-8199,-237,0,1,-2,1
652179,337,-8200,-189,0,0,-2,1
652185,401,-8199,-174,0,1,-2,1
652190,423,-8197,-154,0,3,-2,1
652195,451,-8197,-136,0,4,-2,1
652199,497,-8194,-147,0,6,-2,1
652204,495,-8193,-141,0,7,-2,1
652209,514,-8194,-144,0,7,-2,1
652214,528,-8192,-158,0,8,-2,1
652219,506,-8191,-153,0,9,-2,1
652224,520,-8190,-167,0,9,-2,1
652229,523,-8189,-185,0,9,-2,1
652234,513,-8186,-202,0,7,-2,1
652239,532,-8185,-240,0,4,-2,1
652245,526,-8186,-272,0,2,-2,1
652250,515,-8185,-313,0,-1,-2,1
652256,519,-8185,-363,0,-2,-2,1
652261,510,-8187,-398,0,-1,-2,1
652265,518,-8186,-433,0,-1,-2,1
652269,541,-8188,-459,0,0,-2,1
652274,547,-8189,-462,0,0,-1,1
652279,566,-8187,-457,0,0,-1,1
652284,591,-8186,-441,0,0,-1,1
652289,598,-8187,-412,0,0,-1,1
652294,619,-8186,-376,0,-1,-1,1
652299,636,-8186,-337,0,-2,-1,1
652304,643,-8187,-293,0,-3,-1,1
652309,661,-8185,-258,0,-5,-1,1
652314,670,-8183,-219,0,-6,-1,1
652319,669,-8182,-184,0,-8,-1,1
652325,679,-8183,-159,0,-10,-1,1
652330,672,-8185,-141,0,-12,-1,1
652334,657,-8183,-124,0,-13,-1,1
652339,647,-8183,-119,0,-13,-1,1
652344,620,-8183,-116,0,-12,-1,1
652349,596,-8184,-118,0,-10,-1,1
652354,584,-8183,-135,0,-8,-1,1
652359,564,-8184,-157,0,-5,-1,1
652364,556,-8185,-185,0,-3,-1,1
652369,561,-8185,-215,0,-1,0,1
652374,560,-8184,-245,0,-1,0,1
652380,566,-8184,-274,-1,-1,0,1
652385,571,-8182,-293,0,-1,0,1
652390,563,-8181,-305,0,-1,0,1
652395,563,-8182,-316,0,-1,0,1
652401,557,-8184,-318,0,-1,0,1
652407,545,-8186,-314,0,-1,0,1
652412,540,-8185,-315,0,-1,0,1
652418,537,-8184,-322,0,0,0,1
652423,539,-8186,-322,0,0,0,1
652429,553,-8186,-333,0,0,0,1
652434,561,-8184,-342,0,0,0,1
652440,567,-8183,-342,0,-1,0,1
652445,583,-8181,-342,0,0,0,1
652450,594,-8181,-336,-1,0,0,1
652456,603,-8180,-324,-1,0,0,1
652461,613,-8179,-313,0,0,0,1
652465,613,-8179,-301,0,0,0,1
652469,606,-8179,-295,0,-1,0,1
652475,597,-8181,-298,0,-1,0,1
652481,572,-8183,-303,0,-2,0,1
652486,546,-8186,-314,0,-2,0,1
652490,526,-8190,-328,0,-2,0,1
652496,500,-8192,-337,0,-3,0,1
652502,485,-8192,-344,0,-4,0,1
652507,475,-8192,-349,0,-4,0,1
652513,460,-8190,-348,0,-5,0,1
652519,455,-8189,-340,0,-6,0,1
652524,449,-8188,-334,0,-6,0,1
652530,438,-8187,-324,0,-6,0,1
652536,438,-8185,-319,0,-6,0,1
652541,427,-8186,-319,0,-5,0,1
652545,416,-8190,-324,0,-5,0,1
652550,417,-8192,-335,0,-4,0,1
652555,410,-8194,-347,0,-3,0,1
652560,407,-8195,-356,0,-3,0,1
652564,414,-8193,-360,0,-2,0,1
652569,413,-8192,-357,0,-2,0,1
652573,411,-8190,-347,0,-1,0,1
652578,408,-8189,-333,0,-1,0,1
652582,393,-8186,-314,0,0,0,1
652587,381,-8186,-289,0,0,0,1
652591,377,-8189,-265,0,1,0,1
652596,369,-8188,-241,0,0,0,1
652600,364,-8187,-221,0,-1,0,1
652604,360,-8186,-210,0,-1,0,1
652609,350,-8186,-207,0,-1,0,1
652614,351,-8189,-215,0,0,0,1
652618,349,-8189,-226,-1,0,0,1
652622,337,-8189,-237,-1,-1,0,1
652627,332,-8190,-252,-1,-1,0,1
652632,325,-8190,-264,-1,0,0,1
652637,319,-8191,-275,-1,0,0,1
652641,327,-8192,-291,-1,0,0,1
652646,333,-8194,-300,-1,0,0,1
652650,337,-8193,-307,-1,0,0,1
652655,349,-8192,-320,0,-1,0,1
652659,350,-8194,-331,0,0,0,1
652664,354,-8194,-339,0,0,0,1
652669,364,-8194,-349,-1,0,0,1
652674,361,-8195,-352,0,-1,0,1
652679,360,-8194,-349,-1,-1,0,1
652684,363,-8193,-344,-1,0,0,1
652689,363,-8192,-334,-1,0,0,1
652694,374,-8190,-323,0,-1,0,1
652699,387,-8187,-312,0,-1,0,1
652704,388,-8186,-301,0,-1,0,1
652709,392,-8187,-298,0,-1,0,1
652714,391,-8186,-302,0,-1,0,1
652719,376,-8188,-309,0,-1,0,1
652724,361,-8189,-314,0,-1,0,1
652730,339,-8190,-321,0,-1,0,1
652734,313,-8189,-332,0,-1,0,1
652739,295,-8191,-339,0,-1,0,1
652744,274,-8191,-350,0,-1,0,1
652749,253,-8191,-351,0,-2,0,1
652754,241,-8191,-349,0,-1,0,1
652759,221,-8190,-351,0,-1,-1,1
652764,208,-8192,-349,0,-1,-1,1
652769,204,-8193,-354,0,0,-1,1
652774,202,-8193,-351,0,0,-1,1
652779,210,-8196,-352,0,0,-1,1
652784,227,-8195,-354,0,1,-1,1
652789,245,-8196,-348,0,1,-1,1
652794,279,-8195,-345,0,1,-1,1
652799,320,-8195,-339,0,1,-1,1
652804,348,-8191,-336,0,0,-1,1
652809,379,-8191,-335,0,-1,-1,1
652815,403,-8192,-343,0,-1,-1,1
652819,413,-8192,-346,0,-2,-1,1
652824,422,-8189,-351,0,-2,-1,1
652829,422,-8187,-358,0,-2,-1,1
652834,417,-8187,-365,0,-3,-1,1
652839,421,-8188,-366,0,-4,-1,1
652844,414,-8187,-364,0,-4,-1,1
652849,399,-8188,-350,0,-5,-1,1
652854,386,-8189,-330,0,-6,-1,1
652859,359,-8190,-306,0,-6,-1,1
652864,332,-8193,-279,0,-6,-1,1
652869,313,-8194,-252,0,-4,-1,1
652874,294,-8193,-229,0,-3,-1,1
652879,289,-8192,-212,0,-1,-1,1
652884,302,-8191,-199,0,0,-1,1
652889,325,-8188,-187,0,0,-1,1
652894,360,-8187,-184,0,0,-1,1
652899,401,-8187,-183,0,0,-1,1
652904,437,-8187,-185,-1,0,-1,1
652909,478,-8187,-192,-1,0,-1,1
652914,512,-8187,-208,0,0,-1,1
652919,520,-8188,-218,0,-1,-1,1
652924,518,-8186,-234,-1,-1,-1,1
652929,513,-8187,-247,-1,-1,0,1
652934,500,-8189,-254,-1,0,0,1
652939,494,-8190,-256,-1,-1,0,1
652944,482,-8189,-255,-1,-1,0,1
652949,467,-8190,-253,-1,-1,0,1
652954,460,-8191,-253,-1,-1,0,1
652959,454,-8189,-251,-1,-1,0,1
652964,449,-8188,-253,-1,-2,0,1
652969,453,-8186,-257,-1,-3,0,1
652974,457,-8186,-259,-1,-4,0,1
652979,463,-8185,-260,-1,-5,0,0
652984,473,-8184,-262,-1,-5,0,0
652989,471,-8184,-258,-1,-5,0,0
652994,469,-8186,-257,-1,-4,0,0
652999,464,-8188,-257,-1,-3,0,0
653004,450,-8190,-259,-1,-1,0,0
653009,443,-8191,-267,-1,-1,0,0
653014,438,-8192,-272,-1,-1,0,0
653019,425,-8192,-274,-1,-1,0,0
653024,422,-8191,-284,-1,-2,0,0
653029,416,-8193,-291,-1,-3,0,0
653034,405,-8192,-306,-1,-4,0,0
653039,400,-8191,-320,-1,-4,0,0
653044,388,-8190,-337,-1,-5,0,0
653049,370,-8190,-355,0,-5,0,0
653054,352,-8190,-381,0,-4,0,0
653059,327,-8187,-400,0,-3,0,0
653064,302,-8187,-418,0,-2,0,0
653069,293,-8187,-435,0,0,0,0
653074,290,-8185,-448,0,1,0,0
653079,301,-8184,-454,0,2,0,0
653084,319,-8183,-460,0,1,0,0
653089,334,-8183,-451,0,1,0,0
653094,349,-8182,-432,0,1,0,0
653099,364,-8185,-409,0,2,0,0
653104,372,-8185,-387,0,3,0,0
653109,386,-8189,-363,0,4,0,0
653114,396,-8189,-346,0,6,0,0
653119,396,-8187,-329,0,7,0,0
653124,393,-8189,-309,0,8,0,0
653129,380,-8192,-289,0,9,0,0
653134,360,-8191,-265,0,9,0,0
653139,340,-8192,-248,-1,10,0,0
653144,314,-8191,-228,0,10,0,0
653149,283,-8191,-214,-1,9,0,0
653154,259,-8192,-202,-1,9,0,0
653159,242,-8193,-199,-1,8,0,0
653164,230,-8194,-197,-1,7,0,0
653169,228,-8194,-201,-1,7,0,0
653174,225,-8195,-207,-1,7,-1,0
653179,231,-8195,-216,-1,7,-1,0
653184,248,-8193,-234,-1,8,-1,0
653189,265,-8192,-250,-1,9,-1,0
653194,284,-8193,-272,-1,9,-1,0
653199,305,-8193,-294,-1,10,-1,0
653204,329,-8191,-315,-1,12,-1,0
653209,354,-8188,-335,-1,13,0,0
653214,382,-8187,-355,-1,15,0,0
653219,400,-8186,-368,-1,17,0,0
653224,419,-8184,-379,-1,19,0,0
653229,432,-8183,-384,-1,21,0,0
653234,435,-8185,-386,-1,23,0,0
653239,431,-8184,-390,-1,24,0,0
653244,419,-8184,-391,-1,26,0,0
653249,403,-8185,-395,-1,27,0,0
653254,398,-8187,-398,-1,28,0,0
653259,393,-8187,-406,-1,29,0,0
653264,393,-8188,-418,0,29,0,0
653269,410,-8189,-437,0,29,0,0
653274,427,-8189,-456,0,28,0,0
653279,441,-8190,-478,0,28,0,0
653284,450,-8188,-500,0,27,0,0
653289,446,-8187,-522,0,27,0,0
653294,438,-8183,-534,0,27,0,0
653299,425,-8181,-535,0,26,0,0
653304,401,-8184,-526,0,25,0,0
653309,379,-8184,-506,0,23,0,0
653314,355,-8183,-484,0,21,0,0
653319,327,-8185,-460,0,20,0,0
653324,311,-8185,-442,0,19,0,0
653329,301,-8188,-425,0,20,0,0
653334,297,-8187,-407,0,20,0,0
653339,314,-8191,-390,0,21,0,0
653344,336,-8192,-365,0,22,0,0
653349,370,-8190,-330,0,21,0,0
653354,423,-8188,-300,0,18,0,0
653359,467,-8188,-255,0,15,0,0
653364,504,-8186,-219,0,11,0,0
653369,542,-8185,-185,0,7,0,0
653374,556,-8189,-161,0,4,0,0
653379,545,-8189,-149,0,1,0,0
653384,515,-8191,-144,0,0,0,0
653389,468,-8191,-146,0,0,0,0
653394,419,-8193,-156,0,1,0,0
653399,371,-8195,-165,0,2,0,0
653404,329,-8192,-177,0,5,0,0
653409,296,-8190,-188,0,7,0,0
653414,275,-8191,-196,0,10,0,0
653418,255,-8193,-202,0,13,0,0
653423,242,-8196,-205,0,14,0,0
653429,235,-8195,-207,0,15,0,0
653434,223,-8197,-205,0,15,0,0
653439,222,-8199,-201,0,15,0,0
653444,226,-8197,-195,0,14,0,0
653449,235,-8196,-190,0,14,0,0
653454,258,-8196,-189,0,14,0,0
653459,290,-8194,-197,0,14,0,0
653464,323,-8190,-204,0,14,0,0
653469,357,-8190,-204,0,14,-1,0
653474,384,-8187,-202,0,13,-1,0
653479,406,-8184,-193,-1,12,-1,0
653484,416,-8186,-180,-1,10,-1,0
653489,415,-8186,-161,-1,9,-1,0
653494,407,-8185,-136,-1,8,0,0
653499,397,-8182,-114,-1,8,0,0
653503,384,-8184,-98,-1,9,0,0
653509,373,-8186,-87,-1,11,0,0
653514,360,-8189,-83,-1,12,0,0
653519,349,-8192,-85,-1,14,0,0
653524,338,-8195,-95,-1,16,0,0
653529,326,-8193,-105,-1,19,0,0
653534,315,-8193,-121,-1,22,0,0
653538,313,-8191,-135,-1,24,0,0
653544,319,-8187,-153,-1,25,0,0
653549,335,-8182,-168,-1,25,0,0
653554,364,-8179,-190,-1,24,0,0
653559,392,-8178,-212,-1,21,0,0
653563,411,-8179,-232,-1,19,0,0
653569,427,-8180,-253,-1,18,0,0
653573,434,-8178,-271,-1,17,0,0
653579,434,-8177,-282,-1,17,0,0
653584,436,-8176,-297,-1,17,0,0
653589,432,-8173,-313,-1,17,0,0
653594,427,-8174,-326,-1,15,0,0
653599,426,-8179,-344,-1,14,0,0
653604,424,-8181,-353,-1,11,0,0
653608,419,-8181,-360,-1,8,0,0
653614,414,-8182,-357,-1,5,0,0
653619,400,-8182,-354,-1,2,0,0
653623,384,-8184,-342,-1,-1,-1,0
653629,364,-8185,-337,-1,-2,-1,0
653634,343,-8187,-334,-1,-2,-1,0
653639,330,-8186,-334,-1,-2,-1,0
653644,328,-8187,-339,0,-1,-1,0
653649,331,-8188,-345,-1,0,-1,0
653653,351,-8190,-353,-1,1,0,0
653658,378,-8190,-361,-1,2,0,0
653664,407,-8190,-366,-1,2,0,0
653669,439,-8188,-375,0,2,0,0
653673,469,-8186,-378,0,1,0,0
653678,493,-8188,-376,0,0,0,0
653683,500,-8188,-368,0,-3,0,0
653689,495,-8192,-351,0,-4,0,0
653694,489,-8191,-322,0,-3,0,0
653699,483,-8191,-294,0,-2,0,0
653704,477,-8190,-266,0,-1,0,0
653709,471,-8188,-247,0,-1,0,0
653714,458,-8188,-240,0,-1,0,0
653719,433,-8190,-247,0,-1,0,0
653723,409,-8192,-262,0,-1,0,0
653728,392,-8192,-281,0,0,0,0
653734,381,-8191,-292,0,1,0,0
653739,384,-8191,-299,-1,1,0,0
653744,390,-8190,-296,-1,2,0,0
653749,389,-8191,-282,-1,4,0,0
653754,387,-8190,-263,-1,6,0,0
653758,377,-8190,-241,-1,8,0,0
653763,351,-8189,-219,-1,12,0,0
653769,324,-8191,-198,-1,15,0,0
653773,300,-8194,-176,-1,18,0,0
653778,282,-8193,-157,-1,21,0,0
653783,281,-8192,-159,-1,22,0,0
653788,290,-8191,-163,-1,22,0,0
653793,299,-8188,-191,-1,21,0,0
653799,309,-8189,-221,-1,19,0,0
653803,311,-8191,-244,-1,18,0,0
653809,297,-8192,-285,-1,19,0,0
653813,279,-8192,-314,-1,22,0,0
653819,254,-8194,-327,-1,27,0,0
653824,230,-8195,-336,-1,34,0,0
653829,212,-8197,-323,-2,41,0,0
653834,198,-8196,-306,-2,48,0,0
653838,197,-8196,-291,-2,53,0,0
653844,206,-8194,-274,-1,54,0,0
653849,226,-8194,-261,-1,53,0,0
653854,253,-8194,-255,-1,48,0,0
653858,269,-8193,-251,-1,41,0,0
653864,288,-8192,-245,-1,34,0,0
653869,300,-8189,-237,-1,28,0,0
653873,299,-8189,-219,-1,23,0,0
653879,295,-8189,-198,-1,20,0,0
653884,283,-8190,-183,-1,19,0,0
653889,261,-8191,-171,-1,19,0,0
653893,238,-8192,-170,-1,22,0,0
653898,221,-8193,-174,-1,25,0,0
653903,209,-8192,-189,-1,28,0,0
653908,206,-8192,-217,-1,30,0,0
653913,218,-8190,-249,-1,31,0,0
653919,233,-8190,-281,-2,31,0,0
653923,262,-8187,-313,-2,31,0,0
653928,304,-8186,-338,-1,29,0,0
653933,352,-8186,-361,-1,26,0,0
653938,408,-8184,-376,-1,22,0,0
653943,460,-8182,-394,-1,17,0,0
653948,501,-8185,-403,-1,13,-1,0
653953,527,-8186,-410,-1,9,-1,0
653959,542,-8185,-419,-1,5,-1,0
653963,546,-8185,-423,-1,2,-1,0
653969,539,-8181,-425,-1,0,-1,0
653973,520,-8180,-423,-1,-2,-1,0
653979,494,-8183,-425,-1,-2,-1,0
653984,472,-8185,-436,0,-1,0,0
653989,463,-8186,-445,0,0,0,0
653994,485,-8184,-452,0,1,0,0
653998,535,-8182,-443,-1,-1,0,0
654003,603,-8183,-415,-1,-4,0,0
654008,662,-8180,-379,-1,-8,0,0
654014,695,-8174,-343,-1,-11,0,0
654018,682,-8172,-325,0,-12,-1,0
654023,621,-8173,-331,0,-14,-1,0
654028,554,-8178,-363,0,-16,-1,0
654033,434,-8185,-403,0,-19,-1,0
654038,306,-8190,-429,0,-26,-1,0
654043,260,-8191,-425,0,-31,-1,0
654048,196,-8189,-385,0,-34,0,0
654053,185,-8188,-332,0,-36,0,0
654058,187,-8188,-283,0,-33,-1,0
654063,179,-8189,-260,0,-29,-1,0
654068,178,-8188,-277,1,-24,-1,0
654073,147,-8192,-323,1,-19,-2,0
654078,118,-8195,-381,0,-15,-1,0
654083,79,-8196,-432,0,-12,-1,0
654088,62,-8197,-459,0,-8,-1,0
654093,80,-8195,-453,-1,-5,-1,0
654098,96,-8195,-432,0,-1,-1,0
654103,142,-8194,-398,0,1,-1,0
654108,190,-8189,-376,0,2,-1,0
654113,207,-8187,-367,0,1,-1,0
654118,225,-8189,-369,0,-1,-1,0
654123,226,-8192,-378,0,-2,-1,0
654128,211,-8193,-376,0,-2,-1,0
654133,224,-8196,-359,0,-2,-1,0
654138,242,-8194,-332,0,0,-1,0
654143,269,-8192,-298,0,1,-1,0
654148,317,-8187,-269,0,1,-1,0
654153,361,-8184,-245,0,1,-1,0
654158,402,-8184,-241,0,0,-1,0
654163,437,-8188,-251,0,-2,-1,0
654168,452,-8190,-274,0,-3,-1,0
654173,454,-8191,-298,0,-3,-1,0
654178,448,-8191,-321,0,-1,-1,0
654183,443,-8192,-337,0,2,-1,0
654188,438,-8192,-344,0,6,-1,0
654193,431,-8190,-335,0,9,-1,0
654198,420,-8189,-324,0,13,-1,0
654203,397,-8191,-306,0,16,0,0
654208,376,-8191,-284,0,20,0,0
654213,360,-8190,-277,-1,24,0,0
654218,345,-8189,-265,-1,28,0,0
654223,338,-8187,-254,-1,31,0,0
654228,339,-8187,-247,-1,34,0,0
654233,347,-8186,-233,-1,36,0,0
654238,365,-8188,-218,-1,38,0,0
654243,391,-8187,-202,-1,39,0,0
654248,418,-8185,-187,-1,38,0,0
654253,443,-8185,-184,-1,36,0,0
654258,459,-8185,-183,-1,32,0,0
654264,471,-8188,-190,-1,27,0,0
654269,482,-8188,-211,-1,21,0,0
654274,490,-8190,-228,-1,15,0,0
654280,501,-8191,-247,-1,10,0,0
654285,515,-8192,-265,-1,7,0,0
654290,523,-8191,-265,-1,5,0,0
654296,520,-8191,-257,-1,5,0,0
654301,507,-8188,-240,-1,6,0,0
654305,472,-8187,-216,-1,8,0,0
654310,429,-8186,-205,-1,10,0,0
654314,384,-8184,-199,-1,11,0,0
654319,344,-8186,-203,-1,13,0,0
654324,318,-8187,-221,-1,14,0,0
654329,312,-8186,-241,-1,15,0,0
654333,323,-8186,-258,-1,17,0,0
654338,334,-8185,-269,-1,18,0,0
654343,345,-8186,-286,-1,19,0,0
654348,354,-8185,-298,-1,21,0,0
654353,347,-8187,-310,-1,23,0,0
654358,336,-8189,-321,-1,24,0,0
654363,318,-8191,-328,-1,26,0,0
654368,297,-8191,-332,-1,26,0,0
654373,284,-8190,-327,-1,26,0,0
654378,275,-8190,-326,-1,26,0,0
654383,279,-8191,-323,-1,25,0,0
654388,297,-8193,-326,-1,24,0,0
654393,320,-8195,-330,-1,22,0,0
654398,350,-8195,-339,-1,20,0,0
654403,374,-8196,-351,-1,16,0,0
654408,383,-8194,-352,-1,13,0,0
654413,384,-8193,-346,-1,9,0,0
654418,380,-8193,-334,-1,6,0,0
654423,381,-8191,-323,-1,3,0,0
654428,381,-8192,-318,-1,1,0,0
654433,385,-8191,-313,-1,-1,0,0
654438,406,-8189,-312,-1,-3,0,0
654443,433,-8188,-318,-1,-5,0,0
654448,443,-8188,-329,-1,-7,0,0
654453,449,-8188,-345,0,-8,0,0
654458,444,-8190,-360,0,-9,-1,0
654463,420,-8190,-375,0,-9,-1,0
654468,385,-8190,-391,0,-10,-1,0
654473,342,-8191,-411,0,-11,-1,0
654478,304,-8190,-431,0,-12,-1,0
654483,277,-8189,-460,0,-13,-1,0
654488,260,-8188,-493,0,-14,-1,0
654493,256,-8188,-530,0,-15,-1,0
654498,257,-8185,-566,0,-14,-1,0
654503,255,-8185,-600,0,-13,-1,0
654508,250,-8186,-621,0,-12,-1,0
654513,233,-8187,-626,0,-10,-1,0
654518,210,-8188,-622,0,-8,-1,0
654523,185,-8188,-611,0,-6,-1,0
654528,156,-8188,-581,0,-5,-1,0
654533,132,-8188,-550,1,-3,-1,0
654538,123,-8188,-523,1,-2,-1,0
