millis,ax,ay,az,gx,gy,gz,label
11128377,620,-8306,273,-1,-2,-1,0
11128382,623,-8308,259,-1,-2,-1,0
11128387,629,-8311,234,-1,-2,-1,0
11128392,632,-8311,209,-1,-2,-1,0
11128397,636,-8311,179,-1,-2,-1,0
11128402,638,-8310,161,-1,-2,-1,0
11128407,641,-8309,144,-1,-2,-1,0
11128412,639,-8308,132,-1,-1,-1,0
11128417,641,-8305,124,-1,-1,-1,0
11128422,637,-8305,124,-1,-1,-1,0
11128427,632,-8301,128,-1,-1,-1,0
11128432,627,-8300,133,-1,-1,-1,0
11128437,620,-8299,139,-1,-2,-1,0
11128442,613,-8299,147,-1,-2,-1,0
11128447,602,-8300,150,-1,-2,-1,0
11128453,591,-8301,147,-1,-2,-1,0
11128457,582,-8301,137,-1,-2,0,0
11128463,575,-8304,129,-1,-2,0,0
11128467,567,-8303,123,-1,-2,0,0
11128473,564,-8304,121,-1,-2,0,0
11128477,558,-8302,120,-1,-2,-1,0
11128482,553,-8304,126,-1,-1,-1,0
11128487,545,-8308,136,-1,-1,0,0
11128493,534,-8310,147,-1,-1,-1,0
11128497,524,-8311,162,-1,-1,-1,0
11128502,512,-8312,169,-1,-1,-1,0
11128507,499,-8312,176,-1,-1,-1,0
11128513,489,-8309,187,-1,-1,-1,0
11128517,478,-8311,193,-1,-1,-1,0
11128523,470,-8310,201,-1,-1,-1,0
11128527,462,-8310,206,-1,-1,-1,0
11128533,460,-8312,206,-1,-1,-1,0
11128538,461,-8310,204,-1,0,-1,0
11128543,460,-8311,205,-1,0,-1,0
11128548,460,-8312,209,-1,-1,-1,0
11128553,457,-8312,209,-1,-1,-1,0
11128557,452,-8311,214,-1,-1,-1,0
11128563,444,-8312,218,-1,-1,-1,0
11128567,436,-8310,220,-1,-1,-1,0
11128573,430,-8307,223,-1,0,-1,0
11128578,425,-8308,224,-1,0,-1,0
11128583,425,-8308,228,-1,0,-1,0
11128587,429,-8309,230,-1,0,-1,0
11128593,435,-8310,230,-1,0,-1,0
11128598,444,-8310,234,-1,0,-1,0
11128602,460,-8310,238,-1,0,-1,0
11128608,473,-8311,239,-1,0,-1,0
11128613,488,-8310,242,-1,-1,-1,0
11128617,497,-8310,246,-1,-1,-1,0
11128623,504,-8310,243,-1,-1,-1,0
11128627,510,-8308,240,-1,-1,-1,0
11128633,513,-8307,232,-1,-1,-1,0
11128638,514,-8306,221,-1,-1,-1,0
11128642,513,-8306,208,-1,-1,-1,0
11128648,515,-8305,193,-1,-1,-1,0
11128652,518,-8305,179,-1,-1,-1,0
11128658,528,-8304,168,-1,-1,-1,0
11128662,537,-8306,160,-1,-1,-1,0
11128668,545,-8304,144,-1,-1,-1,0
11128672,552,-8303,132,-1,-1,-1,0
11128678,559,-8302,122,-1,-1,-1,0
11128682,566,-8302,111,-1,-1,-1,0
11128687,572,-8301,103,-1,-1,-1,0
11128692,577,-8300,90,-1,-1,-1,0
11128697,584,-8301,80,-1,-1,-1,0
11128702,587,-8302,64,-1,0,-1,0
11128708,587,-8303,59,-1,0,-1,0
11128713,588,-8305,62,-1,0,-1,0
11128718,590,-8305,69,-1,1,-1,0
11128723,594,-8304,80,-1,1,-1,0
11128728,603,-8305,91,-1,1,-1,0
11128733,614,-8306,99,-1,1,-1,0
11128738,624,-8307,107,-1,1,0,0
11128742,635,-8309,115,-1,1,-1,0
11128748,644,-8310,118,-1,1,-1,0
11128753,653,-8309,124,-1,0,0,0
11128757,659,-8308,127,-1,0,0,0
11128762,664,-8307,130,-1,0,0,0
11128767,664,-8306,127,-1,-1,0,0
11128773,660,-8302,125,-1,-1,0,0
11128778,655,-8301,126,-1,-1,0,0
11128783,651,-8302,125,-1,-1,0,0
11128788,646,-8300,124,-1,-1,0,0
11128793,644,-8298,114,-1,-1,0,0
11128798,643,-8298,103,-1,-1,0,0
11128803,644,-8299,99,-1,0,0,0
11128807,649,-8301,94,-1,0,0,0
11128812,658,-8304,89,-1,-1,0,0
11128818,662,-8307,87,-1,-1,0,0
11128823,663,-8307,82,-1,-1,0,0
11128828,660,-8304,77,-1,-1,0,0
11128833,652,-8304,67,-1,-1,0,0
11128837,640,-8301,59,-1,-1,0,0
11128843,625,-8303,47,-1,-1,0,0
11128848,613,-8303,45,-1,-1,0,0
11128853,602,-8302,38,-1,-1,0,0
11128858,591,-8305,31,0,-1,0,0
11128863,583,-8307,30,0,-1,0,0
11128867,578,-8308,33,0,-1,0,0
11128873,575,-8309,41,0,-1,0,0
11128878,574,-8311,50,0,0,0,0
11128883,572,-8311,59,0,0,0,0
11128888,567,-8311,64,0,0,0,0
11128893,560,-8313,70,0,0,0,0
11128898,546,-8314,75,0,0,0,0
11128903,538,-8313,78,0,0,0,0
11128908,532,-8311,72,0,0,0,0
11128913,527,-8309,65,0,0,0,0
11128918,524,-8308,58,0,0,0,0
11128923,521,-8309,50,0,0,0,0
11128928,520,-8310,41,0,0,0,0
11128933,523,-8309,40,0,0,0,0
11128938,527,-8308,41,0,0,0,0
11128943,530,-8308,44,0,0,0,0
11128948,532,-8309,50,0,0,0,0
11128953,533,-8308,50,0,0,0,0
11128958,531,-8306,58,0,-1,0,0
11128963,528,-8305,67,0,-1,0,0
11128968,523,-8304,70,0,-1,0,0
11128973,518,-8304,75,0,-1,0,0
11128978,508,-8305,83,0,-1,0,0
11128983,499,-8305,90,0,-1,0,0
11128988,493,-8305,105,0,-1,0,0
11128993,488,-8307,118,0,-1,0,0
11128998,480,-8310,133,0,0,0,0
11129003,476,-8309,147,0,0,0,0
11129008,472,-8307,163,0,0,0,0
11129013,468,-8305,175,0,0,0,0
11129018,462,-8303,179,0,0,0,0
11129023,457,-8303,181,0,0,0,0
11129028,450,-8304,183,0,0,0,0
11129033,439,-8304,180,0,0,0,0
11129038,429,-8306,175,0,0,0,0
11129043,419,-8305,173,0,0,0,0
11129048,408,-8306,178,0,0,0,0
11129053,401,-8307,176,0,1,0,0
11129058,403,-8308,178,0,1,0,0
11129063,409,-8308,185,0,1,0,0
11129068,418,-8307,191,0,1,0,0
11129073,429,-8305,204,0,1,0,0
11129078,437,-8304,216,0,1,0,0
11129083,444,-8301,227,0,1,0,0
11129088,448,-8301,244,0,1,0,0
11129093,448,-8302,256,0,0,-1,0
11129098,447,-8303,271,0,0,0,0
11129103,445,-8307,279,0,0,-1,0
11129108,439,-8308,289,0,-1,-1,0
11129113,430,-8307,301,0,-1,-1,0
11129118,424,-8304,304,-1,-1,-1,0
11129123,419,-8302,302,-1,-1,-1,0
11129128,416,-8303,297,-1,0,-1,0
11129133,419,-8305,289,-1,0,-1,0
11129138,421,-8308,286,-1,0,-1,0
11129143,427,-8308,281,-1,0,-1,0
11129148,435,-8310,265,-1,0,-1,0
11129153,440,-8313,254,-1,0,-1,0
11129158,443,-8312,240,-1,0,-1,0
11129163,449,-8309,224,-1,0,-1,0
11129168,455,-8306,211,-1,0,-1,0
11129173,459,-8304,199,-1,0,-1,0
11129178,460,-8303,197,-1,0,-1,0
11129183,464,-8303,196,-1,0,-1,0
11129188,473,-8304,197,-1,0,-1,0
11129193,483,-8305,206,-1,0,-1,0
11129198,490,-8305,212,-1,0,-1,0
11129203,496,-8303,219,-1,-1,-1,0
11129208,495,-8305,222,-1,-1,-1,0
11129213,487,-8306,225,-1,-1,-1,0
11129218,480,-8309,223,-1,-1,-1,0
11129223,477,-8308,219,-1,-1,-1,0
11129228,475,-8305,208,-1,-1,-1,0
11129233,471,-8308,203,-1,-1,-1,0
11129238,474,-8310,199,-1,-1,-1,0
11129243,480,-8311,194,-1,-1,-1,0
11129248,487,-8310,196,-1,-1,-1,0
11129253,495,-8306,195,-1,-1,-1,0
11129258,504,-8307,187,-1,-1,-1,0
11129263,510,-8306,185,-1,-1,-1,0
11129268,513,-8309,183,-1,-1,-1,0
11129273,512,-8309,181,-1,-1,-1,0
11129278,510,-8307,179,-1,-1,-1,0
11129283,506,-8305,171,-1,-1,-1,0
11129288,497,-8306,163,-1,-1,-1,0
11129293,490,-8305,158,-1,-1,-1,0
11129298,482,-8308,144,-1,-1,-1,0
11129303,483,-8308,132,-1,-1,-1,0
11129308,482,-8309,131,-1,-1,-1,0
11129313,484,-8309,135,-1,-1,-1,0
11129318,486,-8311,141,-1,-1,-1,0
11129323,491,-8309,155,-1,0,-1,0
11129328,501,-8308,169,-1,0,-1,0
11129333,508,-8307,178,-1,0,-1,0
11129338,515,-8305,179,-1,0,-1,0
11129343,522,-8304,172,-1,0,-1,0
11129348,529,-8302,167,-1,-1,-1,0
11129353,534,-8302,163,-1,-1,-1,0
11129358,537,-8303,161,-1,0,-1,0
11129363,543,-8304,164,-1,0,-1,0
11129368,548,-8306,173,-1,0,-1,0
11129373,547,-8306,184,-1,-1,-1,0
11129378,545,-8303,190,-1,-1,-1,0
11129383,545,-8301,198,-1,-1,-1,0
11129388,547,-8300,211,-1,-1,-1,0
11129393,545,-8301,217,-1,-1,-1,0
11129398,546,-8304,222,-1,-1,-1,0
11129403,548,-8304,225,-1,-1,-1,0
11129408,556,-8304,226,-1,-1,-1,0
11129413,562,-8303,220,-1,-1,-1,0
11129418,567,-8304,206,-1,-2,-1,0
11129423,573,-8302,194,-1,-1,-1,0
11129428,581,-8303,184,-1,-1,-1,0
11129433,584,-8301,173,-1,-1,-1,0
11129438,581,-8303,162,-1,-1,-1,0
11129443,576,-8304,151,-1,-1,-1,0
11129448,567,-8306,144,-1,-1,-1,0
11129453,558,-8308,141,-1,-1,-1,0
11129458,548,-8309,141,-1,-1,-1,0
11129463,539,-8308,145,-1,-1,-1,0
11129468,530,-8306,147,-1,-1,-1,0
11129473,528,-8304,146,-1,0,-1,0
11129478,532,-8304,142,-1,0,0,0
11129483,544,-8303,142,-1,0,0,0
11129488,557,-8303,134,-1,-1,0,0
11129493,574,-8305,121,-1,-1,0,0
11129498,589,-8305,112,-1,-1,0,0
11129503,601,-8307,106,-1,-1,0,0
11129508,604,-8307,105,-1,-1,0,0
11129513,604,-8305,102,-1,-1,0,0
11129518,597,-8304,100,-1,-1,0,0
11129523,588,-8308,98,-1,-1,0,0
11129528,578,-8310,98,-1,-1,0,0
11129533,567,-8312,95,-1,-1,0,0
11129538,562,-8313,91,-1,-1,0,0
11129543,558,-8313,91,-1,-1,0,0
11129548,555,-8310,91,-1,0,0,0
11129553,559,-8308,91,-1,0,0,0
11129558,561,-8307,95,-1,0,0,0
11129563,566,-8308,90,-1,0,0,0
11129568,569,-8308,83,-1,0,0,0
11129573,570,-8306,73,-1,-1,0,0
11129578,565,-8306,64,-1,-1,0,0
11129583,560,-8307,56,-1,-1,0,0
11129588,556,-8305,49,-1,-1,0,0
11129593,556,-8305,47,-1,-1,0,0
11129598,554,-8306,48,-1,-1,0,0
11129603,553,-8307,52,-1,0,0,0
11129608,554,-8309,63,-1,0,0,0
11129613,551,-8314,75,-1,-1,0,0
11129618,550,-8314,84,-1,-1,0,0
11129623,548,-8314,94,-1,-1,0,0
11129628,543,-8317,103,-1,-1,0,0
11129633,538,-8315,115,-1,-1,0,0
11129638,530,-8315,126,-1,-1,0,0
11129643,524,-8315,132,-1,-1,0,0
11129648,518,-8316,132,-1,-1,0,0
11129653,518,-8314,129,-1,-1,0,0
11129658,520,-8314,126,-1,-1,0,0
11129663,522,-8311,122,-1,0,0,0
11129668,523,-8311,122,-1,0,0,0
11129673,524,-8308,128,-1,-1,0,0
11129678,523,-8312,130,-1,-1,0,0
11129683,521,-8311,137,-1,0,0,0
11129688,521,-8309,144,-1,0,0,0
11129693,519,-8307,153,-1,-1,0,0
11129698,513,-8305,158,-1,-1,0,0
11129703,510,-8306,153,-1,-1,0,0
11129708,506,-8308,155,-1,-1,0,0
11129713,505,-8309,154,-1,-1,0,0
11129718,504,-8310,150,-1,-1,0,0
11129723,502,-8312,146,-1,-1,0,0
11129728,505,-8309,135,-1,-1,0,0
11129733,511,-8306,127,-1,-1,0,0
11129738,514,-8302,117,-1,-1,0,0
11129743,513,-8301,103,-1,-1,0,0
11129748,509,-8302,101,-1,-1,0,0
11129753,505,-8303,97,-1,-1,0,0
11129758,499,-8307,91,-1,-1,0,0
11129763,491,-8309,89,-1,-1,0,0
11129768,486,-8310,92,-1,-1,0,0
11129773,481,-8313,100,-1,-1,0,0
11129778,476,-8314,111,-1,-1,0,0
11129783,472,-8314,122,-1,-1,0,0
11129788,471,-8313,129,-1,-1,0,0
11129793,470,-8311,128,-1,-1,0,0
11129798,475,-8310,129,-1,-1,0,0
11129803,478,-8306,132,-1,-1,0,0
11129808,478,-8304,128,0,-1,0,0
11129813,478,-8304,126,-1,-1,0,0
11129818,471,-8305,123,0,-1,0,0
11129823,465,-8307,114,0,-2,0,0
11129828,459,-8304,104,0,-2,0,0
11129833,448,-8306,99,0,-2,-1,0
11129838,437,-8303,94,0,-2,-1,0
11129843,423,-8301,91,-1,-1,-1,0
11129848,414,-8300,86,0,-1,-1,0
11129853,411,-8301,86,0,0,0,0
11129858,413,-8300,82,0,0,0,0
11129863,422,-8304,77,0,0,0,0
11129868,436,-8305,77,0,0,-1,0
11129873,452,-8302,78,0,0,0,0
11129878,467,-8303,85,0,0,-1,0
11129883,480,-8306,97,0,0,-1,0
11129888,487,-8306,109,0,0,-1,0
11129893,491,-8307,120,0,0,-1,0
11129898,492,-8307,126,0,0,-1,0
11129903,492,-8307,133,0,0,-1,0
11129908,490,-8307,137,0,-1,-1,0
11129913,491,-8307,143,0,-1,-1,0
11129918,495,-8306,148,0,-1,-1,0
11129923,503,-8304,151,0,-1,-1,0
11129928,513,-8305,153,0,-1,-1,0
11129933,523,-8304,148,0,-1,-1,0
11129938,532,-8306,142,0,-1,-1,0
11129943,538,-8306,139,0,-1,-1,0
11129948,539,-8303,138,0,-1,-1,0
11129953,538,-8303,130,0,-1,-1,0
11129958,532,-8306,121,0,-1,-1,0
11129963,525,-8306,120,0,-1,-1,0
11129968,518,-8308,110,0,-1,-1,0
11129973,514,-8307,105,0,-1,-1,0
11129978,511,-8307,103,0,-1,-1,0
11129983,512,-8307,107,0,0,-1,0
11129988,513,-8309,116,0,0,-1,0
11129993,515,-8310,124,0,0,-1,0
11129998,517,-8310,129,0,-1,-1,0
11130003,519,-8310,130,0,-1,0,0
11130008,519,-8308,136,0,-1,0,0
11130013,518,-8306,136,0,-1,-1,0
11130018,519,-8302,135,0,-1,0,0
11130023,516,-8304,128,0,-1,0,0
11130028,512,-8305,127,0,-1,-1,0
11130033,509,-8309,121,0,-1,-1,0
11130038,509,-8311,117,0,0,0,0
11130043,511,-8309,110,0,0,0,0
11130048,518,-8311,107,0,0,0,0
11130053,522,-8314,111,0,0,0,0
11130058,525,-8314,117,0,0,-1,0
11130063,523,-8310,128,0,0,0,0
11130068,524,-8309,141,0,-1,0,0
11130073,515,-8308,152,0,-1,-1,0
11130078,506,-8310,164,0,-1,-1,0
11130083,497,-8311,167,0,-1,0,0
11130088,491,-8308,165,0,-1,-1,0
11130093,484,-8307,164,0,-1,0,0
11130098,478,-8308,161,0,0,-1,0
11130103,474,-8307,156,0,0,-1,0
11130108,471,-8310,152,0,0,-1,0
11130113,474,-8312,149,-1,0,0,0
11130118,478,-8317,148,-1,0,-1,0
11130123,479,-8318,152,-1,0,-1,0
11130128,479,-8318,156,-1,0,-1,0
11130133,480,-8320,164,-1,0,-1,0
11130138,478,-8320,170,-1,1,-1,0
11130143,478,-8318,179,-1,0,-1,0
11130148,478,-8315,179,0,0,-1,0
11130153,476,-8311,174,-1,0,-1,0
11130158,478,-8312,167,-1,0,-1,0
11130163,481,-8312,165,-1,0,-1,0
11130168,485,-8311,159,-1,0,-1,0
11130173,490,-8309,153,-1,0,-1,0
11130178,496,-8309,145,-1,0,-1,0
11130183,503,-8309,139,-1,0,-1,0
11130188,508,-8309,137,-1,0,-1,0
11130193,520,-8309,140,-1,0,-1,0
11130198,527,-8308,148,-1,0,-1,0
11130203,535,-8309,156,-1,0,-1,0
11130208,536,-8310,166,-1,-1,-1,0
11130213,535,-8309,171,-1,-1,-1,0
11130218,533,-8309,176,-1,-1,-1,0
11130223,529,-8307,177,-1,-1,-1,0
11130228,524,-8308,174,-1,-1,0,0
11130233,517,-8308,165,-1,-1,-1,0
11130238,513,-8307,154,-1,-1,0,0
11130243,514,-8306,142,-1,-1,0,0
11130248,514,-8308,133,-1,-1,-1,0
11130253,514,-8308,123,-1,-1,-1,0
11130258,512,-8311,122,-1,-1,0,0
11130263,510,-8312,119,-1,-1,-1,0
11130268,503,-8311,118,-1,-1,-1,0
11130273,498,-8311,124,-1,-1,-1,0
11130278,493,-8309,124,-1,0,0,0
11130283,491,-8310,129,-1,0,-1,0
11130288,488,-8311,134,-1,0,-1,0
11130293,493,-8310,140,-1,0,-1,0
11130298,498,-8311,149,-1,-1,0,0
11130303,502,-8312,156,-1,-1,-1,0
11130308,504,-8313,167,-1,0,-1,0
11130313,507,-8313,177,-1,-1,-1,0
11130318,511,-8313,184,-1,-1,0,0
11130323,510,-8312,190,-1,-1,-1,0
11130328,505,-8311,202,-1,-1,-1,0
11130333,499,-8311,202,-1,-1,-1,0
11130338,496,-8310,199,-1,-1,-1,0
11130343,493,-8313,197,-1,-1,0,0
11130348,488,-8312,190,-1,-2,-1,0
11130353,491,-8309,189,-1,-2,-1,0
11130358,494,-8311,186,-1,-2,-1,0
11130363,490,-8310,181,-1,-2,-1,0
11130368,488,-8310,181,-1,-3,-1,0
11130373,483,-8307,186,-1,-3,-1,0
11130378,473,-8308,185,-1,-2,-1,0
11130383,462,-8311,180,-1,-2,-1,0
11130388,451,-8314,172,-1,-2,-1,0
11130393,442,-8315,162,-1,-2,-1,0
11130398,437,-8317,155,-1,-2,-1,0
11130403,435,-8314,142,-1,-1,-1,0
11130408,441,-8313,129,-1,-1,-1,0
11130413,449,-8312,118,-1,0,-1,0
11130418,463,-8309,108,-1,0,-1,0
11130423,472,-8307,101,-1,0,-1,0
11130428,482,-8307,100,-1,-1,-1,0
11130433,490,-8309,99,-1,-1,-1,0
11130438,498,-8313,97,-1,0,-1,0
11130443,505,-8314,101,-1,0,-1,0
11130448,517,-8314,96,-1,-1,-1,0
11130453,527,-8313,98,-1,-1,-1,0
11130458,541,-8313,90,-1,-1,-1,0
11130463,555,-8312,83,-1,-1,-1,0
11130468,570,-8312,70,-1,-1,-1,0
11130473,584,-8311,61,-1,-1,-1,0
11130478,599,-8313,55,-1,-1,-1,0
11130483,610,-8311,52,-1,-1,-1,0
11130488,615,-8308,49,-1,-1,-1,0
11130493,613,-8307,42,-1,-1,-1,0
11130498,604,-8309,36,0,-1,-1,0
11130503,594,-8310,38,0,-1,-1,0
11130508,585,-8307,36,0,-1,0,0
11130513,573,-8306,38,0,0,0,0
11130518,568,-8302,48,0,0,0,0
11130523,563,-8302,66,0,0,0,0
11130528,561,-8302,80,0,0,0,0
11130533,562,-8303,95,0,0,0,0
11130538,562,-8303,109,0,0,0,0
11130543,561,-8301,125,0,0,0,0
11130548,560,-8300,131,0,0,0,0
11130553,556,-8300,139,0,0,0,0
11130558,552,-8302,139,0,0,0,0
11130563,550,-8304,135,0,0,0,0
11130568,545,-8304,134,0,0,0,0
11130573,540,-8304,135,-1,0,0,0
11130578,538,-8304,139,0,0,0,0
11130583,534,-8304,142,0,0,0,0
11130588,534,-8303,143,0,0,0,0
11130593,534,-8301,148,0,0,0,0
11130598,535,-8301,152,-1,0,0,0
11130603,536,-8300,158,-1,-1,0,0
11130608,534,-8301,163,-1,-1,0,0
11130613,527,-8301,175,-1,-1,0,0
11130618,520,-8298,177,-1,-1,0,0
11130623,513,-8295,175,-1,-1,0,0
11130628,509,-8295,168,-1,-1,0,0
11130633,507,-8297,163,-1,-1,0,0
11130638,499,-8297,152,-1,-1,0,0
11130643,493,-8298,142,-1,-1,0,0
11130648,485,-8300,139,-1,-1,0,0
11130653,475,-8301,140,-1,-1,-1,0
11130658,467,-8303,136,-1,-1,0,0
11130663,462,-8304,137,-1,-1,0,0
11130668,459,-8306,143,-1,-1,0,0
11130673,459,-8309,141,-1,-1,0,0
11130678,461,-8311,140,-1,-1,-1,0
11130683,465,-8312,138,-1,-1,-1,0
11130688,468,-8312,138,-1,-1,-1,0
11130693,469,-8311,136,-1,-1,-1,0
11130698,470,-8310,133,-1,-1,-1,0
11130703,466,-8309,131,-1,-1,-1,0
11130708,460,-8306,132,-1,-1,-1,0
11130713,458,-8309,134,-1,0,-1,0
11130718,457,-8311,136,-1,0,-1,0
11130723,457,-8311,135,-1,0,-1,0
11130728,462,-8306,135,-1,0,-1,0
11130733,469,-8304,135,-1,0,-1,0
11130738,479,-8306,139,-1,0,-1,0
11130743,492,-8307,144,-1,0,-1,0
11130748,503,-8308,150,-1,-1,-1,0
11130753,513,-8301,156,-1,-1,-1,0
11130758,518,-8300,164,-1,-1,-1,0
11130763,519,-8299,167,-1,-1,-1,0
11130768,520,-8298,162,-1,-1,-1,0
11130773,520,-8299,151,-1,-1,-1,0
11130778,523,-8302,143,-1,-1,-1,0
11130783,528,-8303,132,-1,-1,-1,0
11130788,537,-8304,122,-1,-1,0,0
11130793,545,-8306,118,-1,0,-1,0
11130798,551,-8306,113,-1,0,-1,0
11130803,559,-8306,110,-1,0,-1,0
11130808,567,-8308,112,-1,0,0,0
11130813,573,-8306,109,-1,0,-1,0
11130818,574,-8309,110,-1,0,0,0
11130823,573,-8309,113,-1,0,0,0
11130828,571,-8310,113,-1,0,0,0
11130833,569,-8308,111,-1,0,0,0
11130838,568,-8308,110,-1,0,0,0
11130843,566,-8312,110,-1,0,0,0
11130848,564,-8309,106,0,0,0,0
11130853,562,-8307,107,-1,0,0,0
11130858,561,-8309,106,0,0,0,0
11130863,559,-8312,102,0,0,0,0
11130868,555,-8310,105,0,0,0,0
11130873,550,-8311,103,0,0,0,0
11130878,548,-8310,104,0,0,0,0
11130883,544,-8311,110,0,0,0,0
11130888,541,-8309,113,0,0,0,0
11130893,538,-8311,118,0,0,0,0
11130898,538,-8309,124,0,0,0,0
11130903,534,-8306,127,0,-1,0,0
11130908,528,-8305,128,0,-1,0,0
11130913,523,-8302,115,0,-1,0,0
11130918,519,-8306,111,0,-1,0,0
11130923,512,-8309,103,0,-1,0,0
11130928,505,-8309,100,0,-1,0,0
11130933,495,-8309,98,0,-1,0,0
11130938,483,-8310,98,0,-1,0,0
11130943,473,-8311,101,0,0,0,0
11130948,465,-8310,105,0,0,0,0
11130953,461,-8310,116,0,0,-1,0
11130958,459,-8311,125,0,0,0,0
11130963,459,-8311,141,0,0,0,0
11130968,459,-8309,153,0,0,0,0
11130973,463,-8308,156,0,0,-1,0
11130978,465,-8308,155,0,0,-1,0
11130983,468,-8310,154,0,-1,-1,0
11130988,465,-8311,153,0,-1,-1,0
11130993,462,-8310,146,0,-1,-1,0
11130998,465,-8308,143,0,0,-1,0
11131003,470,-8310,141,0,0,-1,0
11131008,478,-8309,147,-1,0,-1,0
11131013,487,-8306,154,-1,0,-1,0
11131018,497,-8305,166,-1,0,-1,0
11131023,511,-8306,178,-1,0,-1,0
11131028,521,-8307,189,-1,0,-1,0
11131033,533,-8306,195,-1,0,-1,0
11131038,547,-8305,192,-1,0,-1,0
11131043,552,-8306,189,-1,0,-1,0
11131048,555,-8306,184,-1,0,-1,0
11131053,560,-8305,182,-1,0,0,0
11131058,556,-8305,177,-1,0,-1,0
11131063,552,-8303,171,-1,0,-1,0
11131068,549,-8305,171,-1,0,0,0
11131073,541,-8305,169,-1,0,0,0
11131078,534,-8304,170,-1,0,0,0
11131083,530,-8304,168,-1,0,-1,0
11131088,532,-8303,164,-1,0,0,0
11131093,536,-8301,160,-1,0,0,0
11131098,538,-8302,152,-1,0,0,0
11131103,545,-8300,146,-1,0,0,0
11131108,547,-8302,136,-1,0,0,0
11131113,545,-8302,131,-1,0,0,0
11131118,547,-8300,130,-1,0,0,0
11131123,546,-8300,136,-1,0,0,0
11131128,540,-8302,142,-1,0,0,0
11131133,528,-8300,148,-1,0,-1,0
11131138,518,-8301,154,-1,0,0,0
11131143,512,-8304,155,-1,0,0,0
11131148,503,-8306,146,-1,0,0,0
11131153,497,-8310,145,-1,0,0,0
11131158,489,-8310,142,-1,0,-1,0
11131163,482,-8313,138,-1,0,-1,0
11131168,478,-8316,130,-1,0,0,0
11131173,478,-8314,131,-1,0,-1,0
11131178,480,-8310,126,-1,0,-1,0
11131183,483,-8306,126,-1,0,0,0
11131188,490,-8306,126,-1,0,-1,0
11131193,498,-8305,123,-1,0,0,0
11131198,507,-8306,117,-1,0,-1,0
11131203,515,-8307,117,-1,0,-1,0
11131208,521,-8310,109,-1,0,-1,0
11131213,524,-8309,100,-1,0,0,0
11131218,529,-8309,100,-1,-1,0,0
11131223,528,-8310,94,-1,-1,-1,0
11131228,524,-8309,96,-1,-1,0,0
11131233,522,-8310,90,-1,-1,0,0
11131238,523,-8310,85,-1,0,0,0
11131243,526,-8310,84,-1,0,-1,0
11131248,525,-8312,83,-1,0,0,0
11131253,529,-8312,83,-1,0,0,0
11131258,534,-8311,84,-1,0,0,0
11131263,535,-8308,92,-1,0,0,0
11131268,535,-8307,99,-1,-1,0,0
11131273,536,-8305,98,-1,-1,0,0
11131278,533,-8306,98,-1,0,0,0
11131283,529,-8309,96,-1,0,0,0
11131288,527,-8308,95,-1,-1,0,0
11131293,523,-8310,94,-1,-1,0,0
11131298,521,-8315,87,-1,-1,0,0
11131303,520,-8314,89,-1,-1,0,0
11131308,516,-8314,89,-1,-1,0,0
11131313,513,-8314,92,-1,-1,0,0
11131318,511,-8315,93,-1,-1,0,0
11131323,508,-8313,98,0,0,0,0
11131328,508,-8312,99,0,0,0,0
11131333,511,-8313,98,0,0,0,0
11131338,518,-8313,93,0,-1,0,0
11131343,525,-8312,86,0,0,0,0
11131348,532,-8311,80,0,0,0,0
11131353,541,-8309,85,0,0,0,0
11131358,547,-8309,83,0,0,0,0
11131363,552,-8309,83,0,-1,0,0
11131368,548,-8308,88,0,-1,0,0
11131373,542,-8309,90,0,-1,0,0
11131378,534,-8311,93,0,-1,0,0
11131383,524,-8310,98,0,-1,0,0
11131388,514,-8313,100,0,-1,0,0
11131393,504,-8314,103,0,-1,0,0
11131398,492,-8314,100,0,-1,0,0
11131403,481,-8314,101,0,-1,0,0
11131408,474,-8316,95,0,-1,0,0
11131413,473,-8316,92,0,-1,0,0
11131418,475,-8319,89,0,-1,0,0
11131423,481,-8319,89,0,-1,0,0
11131428,488,-8319,88,0,0,0,0
11131433,497,-8319,92,0,0,0,0
11131438,505,-8318,95,0,0,0,0
11131443,512,-8317,104,0,0,0,0
11131448,517,-8318,111,0,0,0,0
11131453,519,-8318,123,0,-1,0,0
11131458,519,-8314,130,0,-1,0,0
11131463,518,-8312,140,0,-1,0,0
11131468,520,-8312,150,0,-1,-1,0
11131473,517,-8311,152,0,-1,0,0
11131478,511,-8307,154,0,-1,0,0
11131483,506,-8308,145,0,-1,0,0
11131488,505,-8309,137,0,-1,-1,0
11131493,508,-8308,125,0,-1,0,0
11131498,508,-8309,116,0,-1,0,0
11131503,508,-8307,106,0,-1,0,0
11131508,513,-8306,98,0,0,0,0
11131513,522,-8306,84,0,0,0,0
11131518,528,-8306,81,0,0,0,0
11131523,534,-8308,80,0,0,0,0
11131528,538,-8310,80,0,0,0,0
11131533,540,-8307,78,0,0,0,0
11131538,541,-8303,83,0,0,0,0
11131543,536,-8303,93,0,0,0,0
11131548,531,-8305,100,0,-1,0,0
11131553,525,-8305,113,0,-1,0,0
11131558,517,-8305,124,0,-1,0,0
11131563,513,-8308,130,0,-1,0,0
11131568,511,-8308,133,0,-1,0,0
11131573,512,-8307,136,0,-1,0,0
11131578,512,-8305,130,0,-1,0,0
11131583,516,-8306,128,0,-1,0,0
11131588,517,-8306,127,0,-1,0,0
11131593,518,-8304,131,0,-1,0,0
11131598,519,-8307,134,0,-1,0,0
11131603,516,-8306,141,0,-1,0,0
11131608,512,-8307,149,0,-1,0,0
11131613,502,-8306,155,0,-1,0,0
11131618,494,-8305,157,0,0,0,0
11131623,486,-8303,166,0,0,0,0
11131628,479,-8304,173,0,-1,0,0
11131633,473,-8305,174,0,-1,0,0
11131638,468,-8308,173,0,-1,-1,0
11131643,464,-8307,170,0,-1,0,0
11131648,460,-8307,164,0,-1,0,0
11131653,462,-8308,160,0,0,-1,0
11131658,462,-8305,157,0,0,-1,0
11131663,462,-8305,158,-1,0,-1,0
11131668,464,-8300,159,-1,0,-1,0
11131673,465,-8301,164,0,0,-1,0
11131678,468,-8301,171,-1,0,-1,0
11131683,475,-8303,180,0,0,0,0
11131688,483,-8301,183,0,0,-1,0
11131693,490,-8304,178,0,-1,-1,0
11131698,497,-8302,176,-1,-1,-1,0
11131703,503,-8303,176,-1,-1,-1,0
11131708,506,-8301,170,-1,-1,-1,0
11131713,504,-8302,159,-1,-1,-1,0
11131718,503,-8302,149,-1,-1,-1,0
11131723,498,-8303,141,-1,-1,-1,0
11131728,489,-8307,134,-1,-1,-1,0
11131733,480,-8308,129,0,-1,-1,0
11131738,473,-8308,123,-1,-1,-1,0
11131743,468,-8307,122,0,-1,-1,0
11131748,464,-8309,122,-1,0,-1,0
11131753,464,-8307,120,0,0,-1,0
11131758,468,-8308,120,0,0,-1,0
11131763,476,-8307,117,0,0,-1,0
11131768,485,-8306,115,0,0,-1,0
11131773,493,-8306,114,0,0,-1,0
11131778,499,-8305,113,0,0,-1,0
11131783,500,-8303,112,0,0,-1,0
11131788,502,-8307,114,0,0,-1,0
11131793,505,-8307,120,0,0,-1,0
11131798,503,-8306,119,0,0,-1,0
11131803,498,-8304,123,0,0,-1,0
11131808,491,-8302,132,0,0,-1,0
11131813,481,-8303,136,0,0,-1,0
11131818,471,-8304,144,0,0,-1,0
11131823,456,-8304,150,0,0,-1,0
11131828,443,-8307,155,0,0,-1,0
11131833,427,-8307,152,0,0,-1,0
11131838,416,-8309,152,0,0,-1,0
11131843,403,-8310,152,0,0,-1,0
11131848,394,-8313,156,0,1,-1,0
11131853,392,-8314,160,0,1,-1,0
11131858,394,-8315,168,-1,1,-1,0
11131863,401,-8313,171,-1,1,-1,0
11131868,411,-8314,186,-1,1,-1,0
11131873,416,-8317,206,-1,1,-1,0
11131878,421,-8316,226,-1,1,-1,8
11131883,422,-8314,246,-1,0,-1,8
11131888,417,-8312,264,-1,0,-1,8
11131893,405,-8308,275,-1,-1,-2,8
11131898,387,-8305,280,-1,-1,-2,8
11131903,367,-8305,274,-1,-1,-2,8
11131908,352,-8304,266,-1,-1,-2,8
11131913,338,-8306,253,-1,-1,-2,8
11131918,325,-8308,236,-1,-1,-2,8
11131923,313,-8308,220,-1,-1,-2,8
11131928,304,-8309,210,-1,-1,-2,8
11131933,291,-8313,199,-1,-1,-2,8
11131938,278,-8313,189,-1,-1,-2,8
11131943,259,-8314,183,-1,-1,-2,8
11131948,235,-8315,181,-1,-1,-3,8
11131953,208,-8314,185,-1,0,-3,8
11131958,178,-8313,194,-1,0,-3,8
11131963,152,-8314,216,-1,0,-3,8
11131968,128,-8313,238,-1,0,-3,8
11131973,119,-8313,266,-1,0,-3,8
11131978,118,-8312,298,-1,1,-3,8
11131983,131,-8310,322,-2,0,-3,8
11131988,155,-8307,342,-2,0,-3,8
11131993,181,-8306,351,-2,0,-3,8
11131998,204,-8305,357,-2,0,-4,8
11132003,230,-8305,355,-2,0,-4,8
11132008,249,-8303,349,-2,0,-4,8
11132013,272,-8305,323,-2,0,-4,8
11132018,304,-8308,296,-2,0,-4,8
11132023,343,-8309,266,-2,0,-4,8
11132028,390,-8308,228,-2,0,-4,8
11132033,445,-8308,193,-2,0,-4,8
11132038,510,-8309,156,-2,1,-4,8
11132043,583,-8308,118,-2,2,-4,8
11132048,663,-8306,87,-2,3,-3,8
11132053,744,-8305,57,-2,3,-3,8
11132058,818,-8302,26,-2,3,-3,8
11132063,889,-8302,-6,-2,4,-3,8
11132068,960,-8301,-36,-2,5,-3,8
11132073,1030,-8305,-61,-1,7,-3,8
11132078,1099,-8306,-90,-1,8,-2,8
11132083,1172,-8303,-113,-1,10,-2,8
11132088,1251,-8300,-128,-1,11,-2,8
11132093,1339,-8298,-137,-1,13,-1,8
11132098,1439,-8294,-132,-1,14,-1,8
11132103,1548,-8291,-120,-1,14,0,8
11132108,1661,-8287,-108,-1,14,0,8
11132113,1774,-8285,-95,-1,15,0,8
11132118,1893,-8284,-80,-1,16,1,8
11132123,2010,-8282,-74,-1,17,2,8
11132128,2125,-8283,-75,-1,18,2,8
11132133,2241,-8280,-77,-1,19,3,8
11132138,2363,-8277,-78,-1,22,4,8
11132143,2492,-8272,-78,-1,26,5,8
11132148,2637,-8267,-84,-1,31,6,8
11132153,2811,-8262,-93,-1,37,7,8
11132158,3016,-8258,-96,-1,43,8,8
11132163,3235,-8252,-86,-1,47,9,8
11132168,3457,-8243,-74,-1,46,11,8
11132173,3664,-8236,-54,0,41,13,8
11132178,3847,-8230,-34,-1,33,15,8
11132183,3994,-8222,-17,-1,25,17,8
11132188,4073,-8213,-17,-1,18,19,8
11132193,4260,-8207,-29,-1,14,19,8
11132198,4513,-8199,-33,-1,17,20,8
11132203,4790,-8185,-35,0,21,20,8
11132208,5010,-8168,-53,0,21,20,8
11132213,5118,-8152,-87,0,16,20,8
11132218,5076,-8137,-141,0,9,21,8
11132223,4890,-8121,-214,0,3,22,8
11132228,4617,-8104,-276,0,0,24,8
11132233,4320,-8084,-315,0,2,25,8
11132238,4061,-8063,-335,0,7,27,8
11132244,3872,-8043,-323,0,14,29,8
11132248,3779,-8021,-290,0,23,30,8
11132253,3785,-7998,-242,0,31,31,8
11132258,3847,-7976,-176,0,35,32,8
11132263,3913,-7953,-101,0,35,32,8
11132268,3933,-7929,-18,0,31,33,8
11132273,3856,-7907,80,-1,24,33,8
11132279,3699,-7885,145,-1,18,33,8
11132284,3502,-7864,162,-2,13,33,8
11132288,3312,-7844,163,-3,12,33,8
11132293,3171,-7811,168,-4,14,32,8
11132298,2868,-7778,284,-4,17,34,8
11132304,2270,-7755,561,-4,8,34,8
11132309,1704,-7738,828,-3,-6,33,8
11132313,1094,-7729,1114,-3,-3,33,8
11132318,437,-7730,1412,-3,5,33,8
11132323,-132,-7733,1633,-4,7,33,8
11132328,-586,-7735,1808,-4,7,33,8
11132334,-1007,-7748,1979,-5,6,33,8
11132338,-1409,-7765,2136,-6,-1,33,8
11132343,-1728,-7781,2278,-8,-11,32,8
11132348,-2066,-7802,2440,-9,-15,31,8
11132354,-2432,-7821,2618,-10,-21,29,8
11132358,-2805,-7836,2822,-11,-27,27,8
11132364,-3276,-7859,3089,-12,-33,25,8
11132368,-3836,-7887,3399,-13,-40,23,8
11132373,-4421,-7912,3697,-14,-48,21,8
11132378,-5073,-7940,3997,-15,-53,20,8
11132383,-5741,-7967,4279,-16,-57,18,8
11132389,-6314,-7990,4488,-18,-60,16,8
11132394,-6802,-8011,4633,-19,-58,15,8
11132399,-7175,-8027,4687,-20,-56,13,8
11132404,-7385,-8040,4666,-21,-53,10,8
11132409,-7506,-8050,4611,-22,-50,8,8
11132413,-7582,-8058,4522,-24,-51,6,8
11132418,-7620,-8059,4453,-26,-54,3,8
11132423,-7693,-8052,4410,-27,-56,0,8
11132428,-7804,-8040,4367,-28,-59,-2,8
11132434,-7928,-8023,4291,-29,-62,-4,8
11132438,-8071,-8008,4133,-29,-63,-6,8
11132443,-8202,-7991,3882,-30,-62,-8,8
11132448,-8280,-7972,3529,-30,-59,-10,8
11132454,-8305,-7951,3085,-31,-54,-12,8
11132458,-8255,-7933,2589,-31,-50,-13,8
11132463,-8109,-7911,2096,-32,-48,-15,8
11132468,-7900,-7885,1620,-33,-51,-17,8
11132474,-7644,-7857,1191,-33,-57,-19,8
11132478,-7364,-7828,786,-33,-64,-20,8
11132483,-7093,-7800,397,-32,-68,-22,8
11132489,-6858,-7773,34,-32,-70,-23,8
11132493,-6662,-7748,-330,-31,-71,-25,8
11132499,-6519,-7731,-696,-31,-72,-26,8
11132503,-6430,-7714,-1036,-30,-73,-28,8
11132509,-6362,-7700,-1370,-30,-76,-29,8
11132513,-6307,-7683,-1683,-30,-78,-30,8
11132518,-6256,-7663,-1967,-29,-78,-31,8
11132523,-6172,-7643,-2262,-28,-74,-32,8
11132528,-6062,-7622,-2545,-28,-66,-33,8
11132534,-5932,-7602,-2825,-27,-59,-34,8
11132538,-5774,-7587,-3135,-26,-54,-36,8
11132544,-5608,-7571,-3445,-25,-49,-37,8
11132548,-5443,-7562,-3727,-24,-47,-38,8
11132553,-5273,-7547,-3984,-24,-47,-39,8
11132558,-5106,-7534,-4178,-23,-45,-40,8
11132564,-4928,-7519,-4315,-22,-41,-41,8
11132568,-4717,-7505,-4414,-21,-36,-42,8
11132573,-4480,-7491,-4471,-20,-31,-42,8
11132579,-4240,-7479,-4497,-19,-26,-43,8
11132584,-3982,-7467,-4507,-18,-22,-44,8
11132589,-3715,-7454,-4499,-17,-17,-44,8
11132594,-3449,-7444,-4458,-16,-13,-45,8
11132598,-3186,-7435,-4382,-16,-10,-46,8
11132604,-2957,-7422,-4283,-15,-7,-46,8
11132609,-2737,-7405,-4172,-14,-2,-47,8
11132614,-2489,-7390,-4076,-13,3,-47,8
11132619,-2208,-7374,-4027,-12,6,-47,8
11132624,-1893,-7358,-4026,-10,5,-47,8
11132629,-1564,-7344,-4062,-9,3,-46,8
11132634,-1228,-7341,-4129,-8,2,-46,8
11132638,-887,-7332,-4148,-7,3,-46,8
11132644,-515,-7322,-4294,-6,8,-45,8
11132649,-79,-7314,-4521,-4,13,-45,8
11132654,355,-7320,-4747,-2,16,-44,8
11132659,729,-7329,-5023,0,15,-43,8
11132664,1074,-7337,-5372,1,14,-42,8
11132669,1417,-7347,-5721,2,18,-40,8
11132673,1749,-7360,-5994,3,24,-39,8
11132679,2034,-7377,-6133,4,29,-38,8
11132683,2338,-7373,-6208,5,32,-38,8
11132689,2845,-7393,-6406,8,40,-37,8
11132693,3358,-7407,-6382,11,56,-35,8
11132699,3809,-7428,-6432,13,66,-34,8
11132704,4316,-7448,-6580,15,69,-34,8
11132709,4802,-7465,-6626,16,72,-33,8
11132713,5176,-7483,-6741,18,71,-31,8
11132718,5431,-7490,-6724,19,69,-29,8
11132724,5636,-7498,-6648,21,68,-27,8
11132729,5799,-7506,-6562,23,72,-25,8
11132734,5913,-7517,-6412,25,79,-22,8
11132738,6027,-7524,-6315,27,86,-21,8
11132744,6197,-7535,-6195,29,92,-19,8
11132748,6384,-7543,-6058,30,98,-16,8
11132754,6573,-7548,-5903,31,101,-14,8
11132759,6770,-7547,-5679,32,103,-12,8
11132764,7034,-7540,-5426,33,104,-9,8
11132769,7324,-7528,-5129,35,106,-6,8
11132774,7556,-7516,-4817,36,109,-3,8
11132778,7754,-7503,-4544,37,110,-1,8
11132784,7907,-7491,-4240,38,112,1,8
11132789,7984,-7484,-3940,38,113,3,8
11132794,7953,-7472,-3611,38,112,5,8
11132799,7819,-7464,-3226,38,109,7,8
11132804,7595,-7454,-2797,38,107,9,8
11132809,7255,-7444,-2344,38,107,12,8
11132814,6899,-7435,-1920,39,105,13,8
11132819,6592,-7435,-1470,38,105,15,8
11132824,6289,-7440,-980,38,107,18,8
11132829,6018,-7451,-495,36,108,20,8
11132834,5822,-7460,-28,34,109,21,8
11132839,5707,-7477,464,31,110,23,8
11132844,5624,-7481,918,28,111,24,8
11132849,5563,-7450,1282,26,112,25,8
11132854,5515,-7444,1834,27,112,27,8
11132859,5411,-7457,2643,27,109,28,8
11132864,5186,-7458,3384,25,102,29,8
11132869,4941,-7464,3983,24,93,30,8
11132874,4683,-7473,4497,23,86,31,8
11132879,4389,-7494,4921,22,79,32,8
11132884,4066,-7520,5286,20,71,33,8
11132889,3749,-7547,5595,18,65,34,8
11132894,3480,-7569,5836,15,63,35,8
11132899,3253,-7586,6047,13,64,36,8
11132904,3083,-7602,6224,11,64,36,8
11132909,2962,-7619,6354,9,64,37,8
11132914,2871,-7637,6458,7,64,37,8
11132919,2816,-7649,6524,5,61,38,8
11132924,2759,-7656,6546,3,56,38,8
11132929,2664,-7663,6561,1,50,38,8
11132934,2548,-7665,6552,-1,43,38,8
11132939,2404,-7666,6521,-2,33,38,8
11132944,2243,-7660,6461,-4,23,38,8
11132949,2110,-7650,6266,-5,12,39,8
11132954,1997,-7650,6001,-5,4,39,8
11132959,1741,-7669,6011,-7,-2,39,8
11132964,1429,-7673,6004,-10,-12,38,8
11132969,1111,-7655,5838,-12,-19,37,8
11132974,761,-7650,5844,-13,-19,35,8
11132979,272,-7644,5858,-13,-17,34,8
11132984,-261,-7633,5727,-14,-22,33,8
11132989,-701,-7630,5596,-13,-22,32,8
11132994,-1146,-7637,5470,-14,-15,32,8
11132999,-1526,-7649,5259,-14,-13,32,8
11133004,-1804,-7663,4984,-15,-14,32,8
11133009,-2009,-7678,4721,-16,-13,31,8
11133014,-2151,-7689,4391,-18,-14,30,8
11133019,-2278,-7705,4074,-19,-19,30,8
11133024,-2415,-7725,3815,-20,-29,29,8
11133029,-2601,-7743,3581,-21,-41,28,8
11133034,-2858,-7761,3411,-22,-52,27,8
11133039,-3161,-7775,3306,-22,-61,25,8
11133044,-3531,-7788,3249,-23,-66,24,8
11133049,-3918,-7803,3218,-23,-69,23,8
11133054,-4286,-7817,3196,-23,-69,22,8
11133059,-4617,-7833,3161,-23,-68,21,8
11133064,-4940,-7843,3022,-23,-66,19,8
11133069,-5244,-7862,2754,-23,-66,17,8
11133074,-5471,-7883,2465,-22,-67,15,8
11133079,-5689,-7907,2145,-22,-66,13,8
11133084,-5905,-7929,1761,-23,-66,12,8
11133089,-6108,-7954,1377,-23,-66,10,8
11133094,-6284,-7982,1011,-23,-63,9,8
11133099,-6443,-8007,693,-24,-57,7,8
11133104,-6561,-8028,450,-24,-49,5,8
11133109,-6615,-8042,253,-24,-41,3,8
11133114,-6642,-8058,122,-23,-35,1,8
11133119,-6624,-8068,6,-23,-31,0,8
11133124,-6554,-8077,-110,-22,-29,-2,8
11133129,-6473,-8086,-238,-22,-28,-4,8
11133134,-6363,-8093,-398,-21,-29,-6,8
11133139,-6230,-8101,-567,-21,-32,-7,8
11133144,-6110,-8108,-743,-20,-35,-9,8
11133149,-5988,-8113,-939,-20,-40,-10,8
11133154,-5867,-8115,-1143,-19,-43,-12,8
11133159,-5764,-8118,-1349,-18,-43,-13,8
11133164,-5653,-8117,-1558,-18,-43,-14,8
11133169,-5548,-8119,-1781,-17,-40,-16,8
11133174,-5448,-8120,-2003,-16,-37,-17,8
11133179,-5340,-8119,-2215,-15,-34,-18,8
11133184,-5218,-8118,-2416,-15,-32,-19,8
11133189,-5092,-8116,-2585,-14,-30,-20,8
11133194,-4952,-8112,-2727,-13,-27,-21,8
11133199,-4785,-8109,-2828,-13,-23,-23,8
11133204,-4593,-8102,-2885,-12,-18,-23,8
11133209,-4368,-8094,-2908,-11,-12,-24,8
11133214,-4112,-8083,-2898,-10,-8,-25,8
11133219,-3845,-8070,-2865,-10,-6,-26,8
11133224,-3567,-8057,-2815,-9,-6,-27,8
11133229,-3282,-8044,-2744,-8,-5,-27,8
11133234,-3000,-8031,-2669,-7,-5,-28,8
11133239,-2707,-8023,-2580,-7,-5,-28,8
11133244,-2404,-8014,-2494,-6,-6,-28,8
11133249,-2097,-8004,-2409,-6,-6,-28,8
11133254,-1785,-7996,-2313,-5,-5,-28,8
11133259,-1464,-7989,-2214,-5,-3,-28,8
11133264,-1135,-7981,-2110,-4,0,-28,8
11133269,-791,-7976,-2007,-4,3,-28,8
11133274,-440,-7971,-1913,-4,4,-28,8
11133279,-87,-7971,-1820,-3,5,-27,8
11133284,252,-7968,-1663,-3,6,-27,8
11133289,596,-7966,-1553,-3,6,-26,8
11133294,953,-7961,-1525,-2,8,-25,8
11133299,1303,-7965,-1482,-1,11,-24,8
11133304,1620,-7976,-1430,0,12,-22,8
11133309,1893,-7987,-1405,0,10,-21,8
11133314,2149,-8001,-1443,1,8,-20,8
11133319,2382,-8016,-1497,1,8,-18,8
11133324,2593,-8031,-1508,1,8,-16,8
11133329,2767,-8046,-1493,1,8,-15,8
11133334,2975,-8064,-1452,0,10,-15,8
11133339,3147,-8082,-1321,0,17,-15,8
11133344,3316,-8096,-1125,0,23,-16,8
11133349,3513,-8100,-925,-1,23,-17,8
11133354,3721,-8108,-766,0,22,-15,8
11133359,3867,-8120,-618,1,20,-13,8
11133364,4121,-8119,-530,1,16,-10,8
11133369,4492,-8133,-564,2,16,-7,8
11133374,4740,-8142,-520,2,20,-6,8
11133379,4961,-8152,-508,2,14,-6,8
11133384,5145,-8166,-538,2,6,-6,8
11133389,5185,-8176,-513,1,-1,-5,8
11133394,5055,-8184,-505,1,-10,-5,8
11133399,4814,-8194,-503,2,-17,-4,8
11133404,4531,-8201,-501,2,-22,-3,8
11133409,4198,-8209,-520,3,-22,-1,8
11133414,3852,-8217,-551,3,-21,0,8
11133419,3567,-8228,-594,3,-19,1,8
11133424,3312,-8235,-636,3,-14,1,8
11133429,3092,-8243,-664,3,-10,2,8
11133434,2928,-8248,-695,3,-7,2,8
11133439,2769,-8252,-704,3,-4,2,8
11133444,2626,-8252,-698,3,-4,3,8
11133449,2506,-8255,-697,4,-4,3,8
11133454,2382,-8258,-679,4,-5,3,8
11133459,2239,-8263,-659,4,-5,4,8
11133464,2090,-8264,-633,4,-6,4,8
11133469,1929,-8271,-591,4,-6,4,8
11133474,1741,-8276,-543,4,-7,4,8
11133479,1528,-8280,-493,4,-7,4,8
11133484,1293,-8285,-430,4,-7,3,8
11133489,1067,-8287,-370,4,-6,2,8
11133494,903,-8291,-317,4,-3,2,8
11133499,780,-8295,-263,4,1,1,8
11133504,678,-8297,-215,4,3,1,8
11133509,592,-8301,-173,4,3,1,8
11133514,514,-8305,-133,4,3,0,8
11133519,440,-8308,-102,4,3,0,8
11133524,377,-8305,-87,3,4,0,8
11133529,297,-8303,-50,3,5,1,8
11133534,163,-8304,-3,3,4,1,8
11133539,1,-8306,79,3,2,1,8
11133544,-146,-8305,180,3,2,1,8
11133549,-251,-8306,274,3,4,1,8
11133554,-326,-8303,352,3,6,1,8
11133559,-357,-8304,415,3,8,1,8
11133564,-340,-8306,460,3,10,1,8
11133569,-286,-8309,488,3,12,1,8
11133574,-194,-8308,493,3,13,0,8
11133579,-87,-8307,495,3,12,0,8
11133584,12,-8309,492,3,11,0,8
11133589,90,-8309,479,2,8,-1,8
11133594,139,-8309,470,2,7,-1,8
11133599,164,-8308,466,2,5,-1,8
11133604,165,-8307,465,2,5,-1,8
11133609,152,-8308,469,2,4,-1,8
11133614,134,-8307,472,2,4,-1,8
11133619,116,-8310,476,2,3,-1,8
11133624,105,-8310,486,1,3,-1,8
11133629,109,-8310,488,1,3,-1,8
11133634,125,-8308,493,1,4,-1,8
11133639,157,-8308,483,1,4,-1,8
11133644,203,-8306,459,1,4,-1,8
11133649,256,-8306,433,1,5,-1,8
11133654,312,-8308,404,1,5,-1,8
11133659,377,-8307,376,1,4,-1,8
11133664,436,-8308,356,1,4,-1,8
11133669,489,-8308,347,1,2,-1,8
11133674,538,-8307,342,0,2,-1,8
11133679,574,-8308,355,0,1,-1,8
11133684,603,-8306,368,0,0,-1,8
11133689,630,-8305,377,0,0,-1,8
11133694,643,-8307,376,0,-1,-1,8
11133699,659,-8309,364,0,-1,-1,8
11133704,669,-8308,347,0,-1,-1,8
11133709,678,-8307,319,0,-1,-1,8
11133714,695,-8305,275,0,-1,-1,8
11133719,714,-8306,225,0,-1,-1,8
11133724,739,-8304,174,0,-1,-1,8
11133729,773,-8307,128,0,-1,-1,8
11133734,803,-8309,97,0,0,-1,8
11133739,829,-8310,71,0,0,-1,8
11133744,849,-8311,53,0,0,0,8
11133749,852,-8311,50,0,0,-1,8
11133754,841,-8308,56,0,0,-1,8
11133759,821,-8305,65,0,0,0,8
11133764,791,-8304,90,0,0,0,8
11133769,759,-8303,107,0,0,0,8
11133774,736,-8304,123,0,1,0,8
11133779,718,-8307,143,0,1,0,8
11133784,710,-8307,147,0,1,0,8
11133789,716,-8306,160,0,1,0,8
11133794,726,-8305,175,0,1,0,8
11133799,735,-8306,192,0,1,0,8
11133804,736,-8305,215,0,0,0,8
11133809,721,-8305,241,0,-1,0,8
11133814,703,-8305,255,0,-2,0,8
11133819,680,-8305,266,0,-2,0,8
11133824,644,-8307,269,0,-2,0,8
11133829,610,-8308,263,0,-2,0,8
11133834,574,-8309,250,0,-2,0,8
11133839,543,-8310,234,0,-2,0,8
11133844,523,-8309,210,0,-2,0,8
11133849,505,-8310,186,0,-2,0,8
11133854,492,-8311,162,0,-2,0,8
11133859,483,-8309,136,0,-2,0,8
11133864,474,-8308,123,0,-2,0,8
11133869,469,-8308,107,0,-2,0,8
11133874,471,-8305,88,0,-2,-1,8
11133879,469,-8305,74,0,-2,-1,0
11133884,467,-8305,65,0,-2,-1,0
11133889,465,-8304,57,0,-2,-1,0
11133894,458,-8302,60,0,-2,-1,0
11133899,455,-8303,62,0,-2,-1,0
11133904,454,-8301,63,0,-1,-1,0
11133909,446,-8304,65,0,-1,-1,0
11133914,446,-8303,63,0,-1,-1,0
11133919,451,-8302,66,0,-1,-1,0
11133924,454,-8305,69,0,-1,-1,0
11133929,462,-8304,71,0,-1,-1,0
11133934,477,-8305,71,0,0,-1,0
11133939,490,-8309,79,0,0,-1,0
11133944,508,-8308,86,0,0,-1,0
11133949,523,-8311,97,0,0,-1,0
11133954,540,-8312,110,0,0,-1,0
11133959,558,-8311,123,0,0,-1,0
11133964,577,-8310,134,0,0,-1,0
11133969,591,-8307,139,0,-1,-1,0
11133974,605,-8308,142,0,-1,-1,0
11133979,609,-8310,147,0,-1,-1,0
11133984,609,-8311,150,0,-1,-1,0
11133989,608,-8313,151,0,-1,-1,0
11133994,601,-8313,152,0,-1,-1,0
11133999,591,-8311,152,0,-1,-1,0
11134004,581,-8308,154,0,-2,-1,0
11134009,575,-8306,150,0,-2,-1,0
11134014,572,-8306,147,0,-2,-1,0
11134019,577,-8307,144,0,-2,-1,0
11134024,584,-8308,140,0,-2,-1,0
11134029,599,-8308,135,0,-2,-1,0
11134034,612,-8305,133,0,-2,-1,0
11134039,621,-8305,133,0,-2,-1,0
11134044,628,-8305,140,0,-2,-1,0
11134049,626,-8306,146,0,-2,-1,0
11134054,619,-8306,139,0,-2,-1,0
11134059,607,-8307,126,0,-2,-1,0
11134064,593,-8307,113,0,-2,-1,0
11134069,578,-8306,102,0,-1,-1,0
11134074,567,-8307,93,0,-1,-1,0
11134079,562,-8308,88,0,0,-1,0
11134084,563,-8307,85,0,0,-1,0
11134089,575,-8309,95,0,0,-1,0
11134094,589,-8310,103,0,0,-1,0
11134099,607,-8308,107,0,0,-1,0
11134104,624,-8307,114,0,0,-1,0
11134109,638,-8306,125,0,0,-1,0
11134114,652,-8306,129,0,0,-1,0
11134119,663,-8304,133,0,0,-1,0
11134124,668,-8302,131,0,-1,-1,0
11134129,668,-8302,129,0,-1,-1,0
11134134,666,-8299,129,0,-1,-1,0
11134139,663,-8299,132,-1,-1,-1,0
11134144,661,-8298,136,-1,-1,-1,0
11134149,659,-8297,135,-1,-1,-1,0
11134154,657,-8299,137,-1,-1,-1,0
11134159,659,-8298,138,-1,-1,-1,0
11134164,664,-8295,134,-1,-1,-1,0
11134169,668,-8296,128,0,-1,-1,0
11134174,674,-8297,113,0,-1,-1,0
11134179,682,-8296,99,0,0,-1,0
11134184,687,-8295,78,0,0,-1,0
11134189,692,-8295,62,0,0,-1,0
11134194,695,-8295,50,0,0,-1,0
11134199,696,-8297,44,0,0,-1,0
11134204,694,-8298,39,0,-1,-1,0
11134209,685,-8301,50,0,-1,-1,0
11134214,674,-8304,60,0,-1,-1,0
11134219,665,-8303,69,0,-1,-1,0
11134224,651,-8305,80,0,-1,-1,0
11134229,638,-8307,91,0,-1,-1,0
11134234,629,-8308,100,0,-1,0,0
11134239,627,-8307,108,0,0,-1,0
11134244,626,-8307,111,0,-1,0,0
11134249,627,-8304,119,0,-1,-1,0
11134254,631,-8304,125,0,-1,-1,0
11134259,636,-8304,133,0,-1,0,0
11134264,638,-8302,141,0,-1,-1,0
11134269,639,-8301,146,0,-1,-1,0
11134274,637,-8304,152,0,-1,-1,0
11134279,632,-8303,153,0,-1,-1,0
11134284,624,-8303,146,0,-1,-1,0
11134289,614,-8301,136,0,-1,-1,0
11134294,602,-8304,129,0,-1,-1,0
11134299,591,-8301,124,0,-1,-1,0
11134304,581,-8300,127,0,-1,-1,0
11134309,571,-8303,129,0,-1,-1,0
11134314,570,-8302,127,0,-1,-1,0
11134319,571,-8301,123,0,-1,-1,0
11134324,571,-8301,115,0,-1,-1,0
11134329,572,-8305,107,0,-1,-1,0
11134334,575,-8308,101,0,-1,-1,0
11134339,581,-8311,97,0,-1,-1,0
11134344,584,-8313,95,-1,-1,-1,0
11134349,582,-8313,101,-1,-1,-1,0
11134354,579,-8312,110,-1,-1,-1,0
11134359,574,-8310,122,-1,-1,-1,0
11134364,569,-8310,134,0,-1,-1,0
11134369,567,-8311,136,0,-1,-1,0
11134374,569,-8310,137,-1,-1,-1,0
11134379,571,-8308,135,-1,-1,-1,0
11134384,574,-8306,129,-1,-1,-1,0
11134389,577,-8306,123,-1,-1,-1,0
11134394,587,-8306,115,-1,-1,-1,0
11134399,596,-8304,107,-1,-1,-1,0
11134404,605,-8303,104,-1,-1,-1,0
11134409,612,-8304,94,-1,-1,-1,0
11134414,621,-8306,90,-1,-1,-1,0
11134419,629,-8303,85,-1,-1,-1,0
11134424,636,-8305,78,0,-1,-1,0
11134429,640,-8305,70,0,-1,-1,0
11134434,642,-8305,63,0,-1,-1,0
11134439,643,-8304,63,0,-1,-1,0
11134444,641,-8304,57,0,-1,-1,0
11134449,639,-8305,61,0,-1,-1,0
11134454,639,-8305,64,0,-1,-1,0
11134459,640,-8305,62,0,-1,-1,0
11134464,643,-8302,65,0,-1,-1,0
11134469,647,-8302,66,0,-1,-1,0
11134474,654,-8303,63,0,-1,-1,0
11134479,659,-8303,62,0,-1,-1,0
11134484,664,-8301,63,0,-1,-1,0
11134489,670,-8300,71,0,-1,-1,0
11134494,675,-8302,78,0,-1,-1,0
11134499,674,-8301,78,0,-1,-1,0
11134504,671,-8301,76,0,-1,-1,0
11134509,669,-8300,78,0,-1,-1,0
11134514,663,-8302,79,0,-1,-1,0
11134519,654,-8303,77,0,-1,-1,0
11134524,642,-8303,82,0,-1,-1,0
11134529,630,-8308,93,0,-1,-1,0
11134534,620,-8309,106,0,-1,-1,0
11134539,616,-8307,125,0,-1,-1,0
11134544,615,-8306,135,0,-1,-1,0
11134549,617,-8304,143,0,-1,-1,0
11134554,625,-8303,151,0,-1,-1,0
11134559,637,-8301,157,0,-1,-1,0
11134564,650,-8302,161,0,-1,-1,0
11134569,660,-8301,168,0,-1,-1,0
11134574,673,-8301,177,0,-1,-1,0
11134579,684,-8301,182,0,-2,-1,0
11134584,690,-8302,188,0,-2,-1,0
11134589,692,-8302,193,0,-2,-1,0
11134594,694,-8300,193,0,-2,-1,0
11134599,693,-8300,189,-1,-2,-1,0
11134604,689,-8302,182,-1,-3,-1,0
11134609,679,-8304,180,-1,-3,-1,0
11134614,671,-8308,177,-1,-3,-1,0
11134619,662,-8309,169,-1,-3,-1,0
11134624,653,-8310,165,-1,-3,-1,0
11134629,642,-8313,159,-1,-3,0,0
11134634,635,-8315,152,-1,-2,0,0
11134639,630,-8311,146,-1,-2,-1,0
11134644,624,-8309,134,-1,-1,-1,0
11134649,623,-8307,127,-1,-1,-1,0
11134654,627,-8306,123,-1,0,0,0
11134659,635,-8305,121,-1,0,0,0
11134664,645,-8304,122,-1,0,0,0
11134669,656,-8308,121,-1,0,0,0
11134674,668,-8311,131,-1,0,0,0
11134679,677,-8309,141,-1,0,-1,0
11134684,681,-8309,150,-1,-1,-1,0
11134689,679,-8307,162,-1,-1,0,0
11134694,676,-8309,168,-1,-1,0,0
11134699,670,-8308,170,-1,-1,0,0
11134704,663,-8309,170,-1,-1,0,0
11134709,658,-8309,168,-1,-1,0,0
11134714,659,-8309,163,-1,-1,0,0
11134719,667,-8308,157,-1,-1,0,0
11134724,677,-8307,149,-1,-1,0,0
11134729,691,-8306,139,-1,-1,0,0
11134734,707,-8306,130,-1,-1,0,0
11134739,725,-8306,121,-1,-1,0,0
11134744,740,-8307,108,-1,-1,0,0
11134749,743,-8307,98,-1,-1,0,0
11134754,739,-8309,95,-1,-1,0,0
11134759,724,-8307,96,-1,-1,0,0
11134764,700,-8302,97,-1,-1,0,0
11134769,672,-8301,106,-1,-2,0,0
11134774,644,-8299,111,-1,-2,0,0
11134779,618,-8300,114,-1,-2,0,0
11134784,598,-8302,115,-1,-2,0,0
11134789,584,-8305,115,-1,-3,0,0
11134794,576,-8304,112,-1,-2,0,0
11134799,572,-8305,110,-1,-2,0,0
11134804,570,-8307,109,-1,-2,0,0
11134809,568,-8307,109,-1,-2,0,0
11134814,562,-8307,109,-1,-2,0,0
11134819,561,-8307,108,-1,-2,0,0
11134824,554,-8306,112,-1,-2,-1,0
11134829,546,-8306,115,-1,-2,-1,0
11134834,537,-8307,116,-1,-2,-1,0
11134839,529,-8309,113,-1,-2,-1,0
11134844,520,-8314,108,-1,-2,-1,0
11134849,514,-8317,104,-1,-1,-1,0
11134854,510,-8317,105,-1,-1,-1,0
11134859,505,-8318,114,-1,-1,-1,0
11134864,505,-8316,118,-1,-1,-1,0
11134869,514,-8313,129,-1,-1,-1,0
11134874,532,-8312,134,-1,-2,-1,0
11134879,549,-8311,136,-1,-2,-1,0
11134884,559,-8311,145,-1,-3,-1,0
11134889,579,-8309,143,-1,-3,-1,0
11134894,593,-8307,141,-1,-3,-1,0
11134899,604,-8308,141,-1,-4,-1,0
11134904,610,-8309,132,-1,-4,-1,0
11134909,608,-8308,126,-1,-4,-1,0
11134914,599,-8308,124,-1,-4,-1,0
11134919,586,-8309,118,-1,-4,-1,0
11134924,572,-8312,116,-1,-4,-1,0
11134929,564,-8313,104,-1,-3,-1,0
11134934,554,-8314,90,-1,-3,-1,0
11134939,554,-8312,78,-1,-2,-1,0
11134944,563,-8312,64,-1,-2,-1,0
11134949,573,-8310,61,-1,-1,-1,0
11134954,589,-8310,54,-1,-1,-1,0
11134959,604,-8308,55,-1,-1,-1,0
11134964,619,-8306,63,-1,-1,-1,0
11134969,634,-8306,62,-1,-1,-1,0
11134974,648,-8309,65,-1,-1,-1,0
11134979,657,-8308,77,-1,-1,-1,0
11134984,659,-8309,82,-1,-1,-1,0
11134989,658,-8308,96,-1,-1,-1,0
11134994,658,-8306,105,-1,-1,-1,0
11134999,656,-8306,116,0,-1,-1,0
11135004,658,-8304,126,0,-1,-1,0
11135009,661,-8303,127,-1,-1,-1,0
11135014,670,-8302,131,-1,-1,-1,0
11135019,677,-8304,142,-1,-1,-1,0
11135024,684,-8302,152,-1,-1,-1,0
11135029,685,-8304,162,-1,-1,-1,0
11135034,687,-8305,167,-1,-1,-1,0
11135039,689,-8306,174,-1,-1,-1,0
11135044,693,-8308,180,-1,-1,-1,0
11135049,695,-8306,175,-1,-1,-1,0
11135054,697,-8303,170,-1,-1,-1,0
11135059,699,-8302,162,-1,-2,-1,0
11135064,704,-8301,153,-1,-2,-1,0
11135069,710,-8299,143,-1,-2,-1,0
11135074,715,-8299,135,-1,-3,-1,0
11135079,720,-8298,123,-1,-4,-1,0
11135084,723,-8301,115,-1,-5,-1,0
11135089,719,-8300,105,-1,-6,-1,0
11135094,713,-8304,94,-1,-7,-1,0
11135099,704,-8308,89,-1,-7,-1,0
11135104,690,-8308,88,-1,-7,-1,0
11135109,678,-8308,83,-1,-6,-1,0
11135114,672,-8305,75,-1,-5,-1,0
11135119,667,-8306,65,-1,-5,0,0
11135124,670,-8306,61,-1,-4,0,0
11135129,678,-8307,58,-1,-4,0,0
11135134,690,-8308,45,-1,-4,0,0
11135139,707,-8310,37,-1,-4,0,0
11135144,711,-8309,33,0,-4,0,0
11135149,733,-8307,17,0,-4,0,0
11135154,744,-8307,-5,0,-4,0,0
11135159,741,-8308,-10,0,-5,0,0
11135164,735,-8308,-16,0,-5,0,0
11135169,717,-8306,-18,0,-4,-1,0
11135174,693,-8307,-14,0,-3,0,0
11135179,673,-8311,-5,0,-2,0,0
11135184,654,-8312,4,0,-2,0,0
11135189,642,-8313,11,0,-2,0,0
11135194,639,-8314,14,0,-1,0,0
11135199,648,-8311,10,0,-1,0,0
11135204,661,-8309,-1,0,-1,0,0
11135209,670,-8309,-12,0,-1,0,0
11135214,681,-8310,-26,0,-1,0,0
11135219,680,-8308,-29,0,-1,0,0
11135224,668,-8308,-25,0,-1,0,0
11135229,654,-8305,-16,0,-1,0,0
11135234,637,-8304,-8,0,-1,0,0
11135239,623,-8303,1,0,-1,0,0
11135244,618,-8303,14,0,0,0,0
11135249,619,-8303,33,0,0,0,0
11135254,624,-8304,48,0,0,0,0
11135259,632,-8306,63,0,0,0,0
11135264,641,-8306,78,0,0,0,0
11135269,649,-8306,89,0,0,0,0
11135274,652,-8305,96,0,-1,0,0
11135279,646,-8301,96,0,-1,0,0
11135284,637,-8301,97,0,-1,0,0
11135289,627,-8300,102,0,-1,-1,0
11135294,611,-8302,103,0,-1,-1,0
11135299,594,-8304,104,0,-1,0,0
11135304,581,-8307,115,0,-1,0,0
11135309,575,-8305,123,0,-1,-1,0
11135314,570,-8305,138,0,-1,-1,0
11135319,573,-8303,148,0,-1,-1,0
11135324,582,-8304,157,0,-1,-1,0
11135329,590,-8304,161,0,-1,-1,0
11135334,598,-8305,163,0,-1,-1,0
11135339,601,-8307,154,0,-1,-1,0
11135344,602,-8307,141,0,-1,-1,0
11135349,599,-8306,122,0,-1,-1,0
11135354,593,-8305,110,0,-1,-1,0
11135359,589,-8304,99,0,-1,-1,0
11135364,586,-8304,90,0,-1,-1,0
11135369,589,-8303,86,0,0,-1,0
11135374,595,-8301,90,0,0,-1,0
11135379,606,-8300,103,0,-1,-1,0
11135384,619,-8299,121,0,-1,-1,0
11135389,633,-8299,135,0,-1,-1,0
11135394,645,-8300,149,0,-1,-1,0
11135399,655,-8302,156,0,-1,-1,0
11135404,664,-8305,156,0,-1,-1,0
11135409,671,-8304,160,0,-1,-1,0
11135414,677,-8303,156,0,-1,-1,0
11135419,681,-8302,148,0,-1,-1,0
11135424,685,-8303,139,0,-1,-1,0
11135429,685,-8304,133,0,-1,-1,0
11135434,684,-8303,129,0,-1,-1,0
11135439,688,-8304,129,0,-1,-1,0
11135444,691,-8304,131,0,-1,-1,0
11135449,692,-8303,134,0,-1,-1,0
11135454,699,-8301,141,0,-1,-1,0
11135459,707,-8303,144,0,-2,0,0
11135464,716,-8305,150,0,-2,0,0
11135469,727,-8305,153,0,-2,0,0
11135474,737,-8305,152,0,-2,0,0
11135479,748,-8306,146,0,-3,0,0
11135484,755,-8305,144,0,-3,0,0
11135489,756,-8303,137,0,-4,0,0
11135494,754,-8303,130,0,-4,0,0
11135499,737,-8304,129,0,-4,0,0
11135504,714,-8304,135,0,-4,0,0
11135509,687,-8304,139,0,-4,0,0
11135514,664,-8300,157,0,-3,0,0
11135519,643,-8300,183,0,-3,0,0
11135524,626,-8301,199,0,-3,0,0
11135529,620,-8301,210,0,-2,0,0
11135534,621,-8300,218,0,-1,0,0
11135539,630,-8302,219,0,-1,0,0
11135544,643,-8300,226,0,-1,0,0
11135549,652,-8302,226,0,-1,0,0
11135554,666,-8303,222,0,-1,0,0
11135559,669,-8303,219,-1,-2,0,0
11135564,667,-8301,215,-1,-2,0,0
11135569,661,-8303,214,-1,-2,0,0
11135574,648,-8304,214,-1,-2,0,0
11135579,633,-8304,215,-1,-2,0,0
11135584,618,-8304,216,-1,-1,0,0
11135589,606,-8304,223,-1,-1,0,0
11135594,597,-8307,237,-1,-1,0,0
11135599,590,-8308,251,-1,-1,0,0
11135604,589,-8308,260,-1,-1,0,0
11135609,591,-8307,261,-1,-1,0,0
11135614,591,-8304,257,-1,-1,-1,0
11135619,592,-8305,244,-1,-1,0,0
11135624,597,-8305,234,-1,-1,0,0
11135629,602,-8305,221,-1,-1,0,0
11135634,605,-8305,209,-1,-1,-1,0
11135639,613,-8303,196,-1,-1,-1,0
11135644,618,-8302,191,-1,-1,0,0
11135649,620,-8303,187,-1,-1,-1,0
11135654,620,-8304,184,-1,-1,-1,0
11135659,619,-8307,181,-1,-2,-1,0
11135664,618,-8309,182,-1,-2,-1,0
11135669,616,-8308,175,-1,-2,-1,0
11135674,617,-8308,167,-1,-2,-1,0
11135679,617,-8307,155,-1,-2,-1,0
11135684,623,-8309,138,-1,-2,0,0
11135689,628,-8313,123,-1,-2,0,0
11135694,643,-8315,109,-1,-2,-1,0
11135699,660,-8315,97,-1,-2,0,0
11135704,674,-8311,89,-1,-2,0,0
11135709,684,-8308,75,-1,-2,0,0
11135714,689,-8308,60,-1,-2,-1,0
11135719,695,-8308,51,-1,-2,0,0
11135724,695,-8307,39,-1,-3,0,0
11135729,692,-8303,24,-1,-3,0,0
11135734,688,-8303,14,-1,-3,-1,0
11135739,680,-8302,5,-1,-3,0,0
11135744,667,-8305,0,-1,-2,0,0
11135749,653,-8306,-5,-1,-1,0,0
11135754,648,-8305,-5,-1,-1,0,0
11135759,644,-8304,-6,-1,-1,0,0
11135764,642,-8303,-3,-1,-1,0,0
11135769,646,-8303,5,-1,-1,0,0
11135774,650,-8303,21,-1,-1,0,0
11135779,651,-8304,36,-1,-1,0,0
11135784,648,-8305,50,0,-1,0,0
11135789,644,-8305,67,0,-1,0,0
11135794,634,-8304,81,0,-1,0,0
11135799,623,-8304,86,0,-1,-1,0
11135804,610,-8304,90,0,-1,0,0
11135809,600,-8304,97,0,-1,-1,0
11135814,593,-8304,103,0,-1,-1,0
11135819,587,-8304,109,0,-1,-1,0
11135824,586,-8305,116,0,-1,-1,0
11135829,587,-8309,126,0,-1,0,0
11135834,592,-8308,134,-1,-1,-1,0
11135839,598,-8309,136,-1,-1,-1,0
11135844,607,-8307,139,-1,-1,-1,0
11135849,615,-8304,140,-1,-1,-1,0
11135854,626,-8305,139,-1,-1,-1,0
11135859,632,-8305,142,-1,-1,-1,0
11135864,638,-8303,144,-1,-1,-1,0
11135869,640,-8303,143,-1,-1,-1,0
11135874,642,-8306,137,-1,-1,0,0
11135879,640,-8306,137,-1,-1,-1,0
11135884,636,-8308,134,-1,-1,-1,0
11135889,630,-8305,138,-1,-1,-1,0
11135894,621,-8303,140,-1,-1,-1,0
11135899,615,-8299,144,-1,-1,-1,0
11135904,613,-8299,150,-1,-1,-1,0
11135909,613,-8299,152,-1,-1,-1,0
11135914,618,-8299,153,-1,-1,-1,0
11135919,624,-8299,154,-1,-1,-1,0
11135924,638,-8300,145,-1,-1,-1,0
11135929,653,-8302,131,-1,-1,-1,0
11135934,669,-8303,121,-1,-1,-1,0
11135939,686,-8303,115,-1,-1,-1,0
11135944,698,-8303,105,-1,-1,-1,0
11135949,704,-8308,97,-1,-1,0,0
11135954,710,-8308,88,-1,-1,0,0
11135959,709,-8311,85,-1,0,0,0
11135964,706,-8310,84,-1,0,0,0
11135969,699,-8311,86,-1,0,0,0
11135974,688,-8311,87,-1,0,0,0
11135979,678,-8312,92,-1,0,0,0
11135984,671,-8312,100,-1,0,0,0
11135989,671,-8312,109,-1,0,0,0
11135994,671,-8311,119,-1,0,0,0
11135999,674,-8311,123,-1,0,0,0
11136004,676,-8312,130,-1,-1,0,0
11136009,673,-8315,131,-1,-1,0,0
11136014,670,-8314,126,-1,-1,0,0
11136019,661,-8315,123,-1,-1,0,0
11136024,650,-8314,120,-1,-1,0,0
11136029,636,-8314,118,-1,-1,-1,0
11136034,622,-8317,117,-1,-1,-1,0
11136039,606,-8320,119,-1,-1,-1,0
11136044,596,-8319,121,-1,-1,-1,0
11136049,588,-8316,127,-1,-1,-1,0
11136054,585,-8313,128,-1,-1,-1,0
11136059,581,-8313,127,-1,-1,-1,0
11136064,583,-8311,123,-1,-1,-1,0
11136069,584,-8311,121,-1,-1,-1,0
11136074,583,-8311,124,-1,-1,-1,0
11136079,582,-8313,119,-1,-1,-1,0
11136084,584,-8312,118,-1,-1,-1,0
11136089,585,-8310,118,-1,-1,-1,0
11136094,587,-8312,121,-1,-1,-1,0
11136099,592,-8312,122,-1,-1,-1,0
11136104,597,-8310,127,-1,-1,-1,0
11136109,605,-8308,128,-1,-1,-1,0
11136114,612,-8308,131,-1,-1,-1,0
11136119,620,-8307,133,-1,-1,-1,0
11136124,626,-8306,137,-1,-1,-1,0
11136129,631,-8304,133,-1,-1,-1,0
11136134,634,-8303,128,-1,-1,-1,0
11136139,633,-8306,121,-1,-1,-1,0
11136144,631,-8306,113,-1,-1,-1,0
11136149,628,-8306,109,-1,-1,-1,0
11136154,625,-8305,103,-1,-1,-1,0
11136159,626,-8303,95,-1,-1,-1,0
11136164,629,-8303,90,-1,0,-1,0
11136169,634,-8304,79,-1,0,-1,0
11136174,639,-8303,70,-1,0,-1,0
11136179,644,-8304,65,-1,-1,-1,0
11136184,651,-8306,66,-1,-1,-1,0
11136189,655,-8305,67,-1,-1,-1,0
11136194,657,-8307,71,-1,-1,-1,0
11136199,658,-8308,69,0,-1,-1,0
11136204,655,-8309,66,0,-1,-1,0
11136209,652,-8310,62,0,-1,-1,0
11136214,651,-8308,59,0,-1,-1,0
11136219,648,-8305,60,0,-1,-1,0
11136224,645,-8304,55,0,-1,-1,0
11136229,647,-8303,56,0,-1,-1,0
11136234,647,-8303,56,0,-1,-1,0
11136239,652,-8304,60,0,-1,-1,0
11136244,657,-8301,66,0,-1,-1,0
11136249,663,-8301,73,0,-1,-1,0
11136254,668,-8301,78,0,-1,-1,0
11136259,672,-8299,84,0,-1,-1,0
11136264,676,-8299,83,0,-1,-1,0
11136269,679,-8300,83,0,-1,-1,0
11136274,678,-8300,79,0,-1,-1,0
11136279,676,-8297,72,0,-1,-1,0
11136284,675,-8298,73,0,-1,-1,0
11136289,676,-8303,75,0,-1,-1,0
11136294,671,-8304,79,0,-1,-1,0
11136299,667,-8303,84,0,-1,-1,0
11136304,659,-8304,96,0,-1,-1,0
11136309,653,-8305,108,0,-1,-1,0
11136314,648,-8306,114,0,-1,-1,0
11136319,644,-8305,119,0,-1,-1,0
11136324,643,-8305,121,0,-1,-1,0
11136329,646,-8302,120,0,-1,-1,0
11136334,652,-8302,114,0,-1,-1,0
11136339,661,-8299,100,0,-1,-1,0
11136344,672,-8298,94,0,-1,-1,0
11136349,679,-8296,87,0,-1,-1,0
11136354,684,-8299,83,0,-1,-1,0
11136359,682,-8300,86,0,-1,-1,0
11136364,674,-8302,92,0,-1,-1,0
11136369,665,-8304,98,0,-1,-1,0
11136374,658,-8305,106,0,-1,-1,0
11136379,650,-8308,121,0,-1,-1,0
11136384,646,-8309,131,0,-1,-1,0
11136389,649,-8311,138,0,-1,-1,0
11136394,656,-8311,137,0,-1,-1,0
11136399,665,-8310,140,0,-1,-1,0
11136404,674,-8313,146,0,-1,-1,0
11136409,683,-8315,148,0,-1,-1,0
11136414,690,-8315,153,0,-1,-1,0
11136419,690,-8314,153,0,-1,-1,0
11136424,684,-8313,150,0,-1,-1,0
11136429,673,-8312,149,0,-1,-1,0
11136434,659,-8309,157,0,-1,-1,0
11136439,645,-8305,158,0,-1,-1,0
11136444,630,-8302,165,-1,-1,-1,0
11136449,624,-8302,176,0,-1,-1,0
11136454,626,-8302,183,-1,-1,-1,0
11136459,634,-8304,188,-1,-1,-1,0
11136464,649,-8305,186,0,-1,-1,0
11136469,666,-8306,180,0,-1,-1,0
11136474,682,-8307,171,-1,-1,-1,0
11136479,697,-8309,159,-1,-1,-1,0
11136484,706,-8310,149,-1,-1,-1,0
11136489,708,-8308,137,-1,-1,-1,0
11136494,704,-8309,128,-1,-1,-1,0
11136499,701,-8307,128,-1,-1,-1,0
11136504,693,-8306,127,-1,-1,-1,0
11136509,689,-8308,128,-1,-1,0,0
11136514,684,-8310,130,-1,-1,-1,0
11136519,682,-8310,137,-1,-1,0,0
11136524,682,-8309,141,-1,-1,0,0
11136529,682,-8306,144,-1,-1,-1,0
11136534,685,-8306,146,-1,-1,0,0
11136539,688,-8306,140,-1,-1,-1,0
11136544,687,-8307,135,-1,-1,0,0
11136549,685,-8307,133,-1,-1,0,0
11136554,682,-8307,127,-1,-1,-1,0
11136559,676,-8306,129,-1,-1,-1,0
11136564,670,-8305,129,-1,-1,-1,0
11136569,659,-8302,130,-1,-1,-1,0
11136574,649,-8301,143,-1,-1,-1,0
11136579,641,-8299,150,-1,-1,-1,0
11136584,635,-8300,154,-1,-1,-1,0
11136589,631,-8302,155,-1,-1,-1,0
11136594,633,-8302,161,-1,-1,0,0
11136599,637,-8302,159,-1,-1,-1,0
11136604,643,-8303,165,-1,-1,-1,0
11136609,647,-8302,163,-1,-1,-1,0
11136614,654,-8304,162,-1,-1,-1,0
11136619,659,-8307,162,-1,-1,-1,0
11136624,661,-8309,159,-1,-1,-1,0
11136629,659,-8309,159,-1,-1,-1,0
11136634,661,-8307,153,-1,-1,-1,0
11136639,656,-8307,145,-1,-1,-1,0
11136644,649,-8306,138,-1,-1,-1,0
11136649,642,-8305,128,-1,-1,-1,0
11136654,640,-8303,120,-1,-1,-1,0
11136659,639,-8302,112,-1,-1,-1,0
11136664,642,-8302,106,-1,-1,-1,0
11136669,649,-8303,103,-1,-1,-1,0
11136674,660,-8302,100,-1,-1,-1,0
11136679,669,-8304,98,-1,-1,-1,0
11136684,679,-8308,97,-1,-1,-1,0
11136689,685,-8312,93,-1,-1,-1,0
11136694,688,-8310,93,-1,-1,-1,0
11136699,687,-8308,98,-1,-1,-1,0
11136704,687,-8306,103,-1,-1,-1,0
11136709,687,-8305,108,-1,-1,-1,0
11136714,687,-8304,110,-1,-1,-1,0
11136719,685,-8302,110,-1,-1,-1,0
11136724,684,-8302,104,-1,-1,0,0
11136729,686,-8301,99,-1,-1,-1,0
11136734,688,-8303,89,-1,-1,-1,0
11136739,693,-8302,82,-1,-1,0,0
11136744,695,-8304,70,-1,-1,0,0
11136749,698,-8305,57,-1,-1,0,0
11136754,705,-8306,50,-1,-1,0,0
11136759,709,-8305,49,-1,-1,0,0
11136764,712,-8307,54,-1,-1,0,0
11136769,715,-8306,63,-1,-1,-1,0
11136774,716,-8305,79,-1,-1,0,0
11136779,713,-8304,100,-1,0,0,0
11136784,709,-8303,124,-1,-1,0,0
11136790,703,-8304,144,-1,-1,0,0
11136794,694,-8302,153,-1,-1,0,0
11136800,684,-8302,155,-1,-1,0,0
11136804,676,-8305,154,-1,-1,0,0
11136809,664,-8306,155,-1,-1,0,0
11136814,648,-8307,155,-1,-1,0,0
11136819,635,-8308,155,-1,-1,0,0
11136824,626,-8308,156,-1,-1,0,0
11136829,619,-8310,153,-1,-1,-1,0
11136834,614,-8310,149,-1,-1,-1,0
11136839,612,-8308,140,-1,-1,0,0
11136844,613,-8308,130,-1,-1,-1,0
11136849,617,-8306,114,-1,-1,-1,0
11136854,622,-8303,108,-1,-1,-1,0
11136859,626,-8303,108,-1,0,-1,0
11136864,627,-8299,111,-1,0,-1,0
11136869,629,-8298,120,-1,0,-1,0
11136874,632,-8297,130,-1,0,-1,0
11136879,636,-8297,135,-1,0,0,0
11136885,640,-8297,143,-1,0,-1,0
11136889,640,-8300,156,-1,0,-1,0
11136894,638,-8300,164,-1,0,-1,0
11136899,631,-8300,184,-1,0,-1,0
11136904,630,-8300,205,-1,-1,-1,0
11136909,624,-8298,222,-1,-1,-1,0
11136914,618,-8297,233,-1,-1,-1,0
11136920,619,-8299,234,-1,-1,-1,0
11136924,626,-8299,230,-1,-1,-1,0
11136929,634,-8297,212,-1,-1,-1,0
11136935,644,-8299,192,-1,-1,-1,0
11136939,654,-8302,172,-1,-1,-1,0
11136945,660,-8301,157,-1,-1,-1,0
11136949,664,-8303,139,-1,-1,-1,0
11136954,665,-8302,120,-1,-1,-1,0
11136959,665,-8305,102,-1,-1,-1,0
11136965,662,-8301,86,-1,-1,-1,0
11136969,656,-8301,77,-1,-1,-1,0
11136974,648,-8301,72,-1,-1,-1,0
11136979,637,-8300,70,-1,-1,-1,0
11136984,624,-8299,79,-1,-1,-1,0
11136989,607,-8301,90,-1,-1,-1,0
11136994,590,-8301,102,-1,-1,-1,0
11136999,575,-8300,110,-1,-1,-1,0
11137004,564,-8301,115,-1,-1,-1,0
11137010,556,-8304,111,-1,-1,-1,0
11137014,553,-8305,108,-1,-1,-1,0
11137019,551,-8304,98,-1,-1,-1,0
11137024,555,-8303,81,-1,-1,-1,0
11137029,566,-8304,72,-1,-1,-1,0
11137035,581,-8302,58,-1,-1,-1,0
11137040,598,-8300,47,-1,-1,-1,0
11137045,611,-8300,38,-1,-1,-1,0
11137049,624,-8301,33,-1,-1,-1,0
11137054,635,-8303,32,-1,-1,-1,0
11137059,640,-8303,37,-1,-1,-1,0
11137064,641,-8302,44,-1,-1,-1,0
11137069,640,-8303,62,-1,-1,-1,0
11137074,636,-8303,74,-1,-1,-1,0
11137080,632,-8304,83,-1,-1,-1,0
11137084,632,-8303,90,-1,-1,-1,0
11137090,635,-8302,89,-1,-1,-1,0
11137095,644,-8302,82,-1,-1,-1,0
11137099,655,-8302,69,-1,-2,-1,0
11137105,667,-8302,58,-1,-2,-1,0
11137109,678,-8303,46,-1,-2,-1,0
11137114,687,-8301,34,-1,-2,-1,0
11137120,692,-8303,24,-1,-1,-1,0
11137124,695,-8305,20,-1,-1,-1,0
11137129,697,-8306,20,-1,-1,-1,0
11137135,697,-8303,14,-1,-1,-1,0
11137140,696,-8305,16,-1,-1,-1,0
11137145,695,-8305,16,-1,-1,-1,0
11137150,696,-8304,14,-1,-1,-1,0
11137154,698,-8304,22,-1,-1,-1,0
11137159,699,-8306,31,-1,-1,-1,0
11137165,705,-8307,36,-1,-1,-1,0
11137169,715,-8308,38,-1,-1,-1,0
11137175,722,-8306,38,-1,-1,-1,0
11137180,728,-8306,37,0,-1,-1,0
11137185,739,-8307,38,-1,-1,-1,0
11137190,750,-8309,40,0,-1,-1,0
11137195,756,-8311,46,0,-1,-1,0
11137200,759,-8309,45,-1,-1,-1,0
11137204,761,-8308,51,0,-1,-1,0
11137210,762,-8308,53,0,-1,-1,0
11137214,766,-8307,56,0,-1,-1,0
11137220,768,-8307,60,0,-1,-1,0
11137224,772,-8308,59,0,-1,-1,0
11137229,776,-8308,50,0,-1,-1,0
11137235,783,-8308,43,0,-1,-1,0
11137239,789,-8309,35,0,-1,-1,0
11137245,795,-8307,29,0,-1,-1,0
11137249,799,-8308,27,0,-1,-1,0
11137255,803,-8307,28,0,-1,-1,0
11137259,804,-8305,30,0,-1,-1,0
11137265,808,-8305,30,0,-1,-1,0
11137269,816,-8302,28,0,-1,-1,0
11137275,823,-8301,28,0,-1,-1,0
11137279,823,-8298,24,0,-1,-1,0
11137285,822,-8298,19,0,-1,-1,0
11137289,816,-8301,17,0,-1,-1,0
11137295,804,-8301,17,0,-1,-1,0
11137300,793,-8300,16,0,-1,-1,0
11137305,787,-8301,13,0,-1,0,0
11137310,782,-8302,4,0,-1,0,0
11137315,781,-8305,-5,0,-1,0,0
11137320,781,-8303,-8,0,-1,0,0
11137325,782,-8302,-10,0,-1,0,0
11137330,784,-8302,-11,0,-1,0,0
11137335,788,-8302,-14,0,-1,0,0
11137340,789,-8301,-16,0,-1,0,0
11137345,787,-8302,-12,0,-1,0,0
11137350,782,-8303,-6,0,-1,0,0
11137355,776,-8302,-2,0,-1,0,0
11137360,768,-8301,6,0,-1,0,0
11137365,759,-8299,15,0,-1,0,0
11137370,750,-8302,24,0,-1,0,0
11137375,744,-8305,37,0,-1,0,0
11137380,735,-8306,55,0,-1,0,0
11137385,731,-8305,72,0,-1,0,0
11137390,728,-8305,86,0,-1,0,0
11137395,723,-8304,93,0,-1,0,0
11137400,723,-8306,103,0,-1,0,0
11137405,723,-8309,111,0,-1,0,0
11137410,717,-8307,117,0,-1,0,0
11137415,710,-8306,117,0,-1,0,0
11137420,698,-8307,120,0,-1,0,0
11137425,690,-8307,120,0,-1,0,0
11137430,683,-8308,119,0,-1,0,0
11137435,674,-8308,115,0,-1,0,0
11137440,663,-8309,114,0,-1,0,0
11137445,654,-8310,113,0,-1,0,0
11137450,648,-8310,117,0,-1,0,0
11137455,646,-8310,129,0,-1,0,0
11137460,646,-8310,149,0,-1,0,0
11137465,647,-8308,166,0,-1,0,0
11137470,651,-8309,181,0,-1,-1,0
11137475,649,-8307,196,0,-1,-1,0
11137480,649,-8302,214,0,-1,-1,0
11137485,645,-8302,235,0,-1,-1,0
11137490,645,-8303,247,0,-1,-1,0
11137495,644,-8300,254,0,-1,-1,0
11137500,641,-8300,259,0,-1,-1,0
11137505,638,-8303,253,0,-1,-1,0
11137510,634,-8304,248,0,-1,-1,0
11137515,632,-8304,242,0,-1,-1,0
11137520,633,-8304,233,0,-1,-1,0
11137525,631,-8303,226,0,-1,-1,0
11137530,637,-8303,225,0,-1,-1,0
11137535,644,-8304,230,-1,-1,-1,0
11137540,656,-8306,237,-1,-1,-1,0
11137545,669,-8306,244,-1,-1,-1,0
11137550,683,-8305,247,-1,-1,-1,0
11137555,694,-8301,246,-1,-1,-1,0
11137560,706,-8298,249,-1,-1,-1,0
11137565,718,-8299,248,-1,-1,-1,0
11137570,725,-8299,246,-1,-1,-1,0
11137575,731,-8299,245,-1,-1,-1,0
11137580,739,-8296,239,-1,-1,-1,0
11137585,748,-8296,239,-1,-2,-1,0
11137590,755,-8298,228,-1,-2,-1,0
11137595,766,-8297,220,-1,-2,-1,0
11137600,773,-8295,211,-1,-2,-1,0
11137605,783,-8296,202,-1,-3,-1,0
11137610,791,-8296,194,-1,-3,-1,0
11137615,797,-8294,187,-1,-3,0,0
11137620,803,-8295,180,-1,-3,0,0
11137625,810,-8297,168,-1,-3,0,0
11137630,812,-8298,161,-1,-2,0,0
11137635,810,-8299,147,-1,-2,0,0
11137640,809,-8301,133,-1,-2,0,0
11137645,803,-8301,126,-1,-2,0,0
11137650,800,-8299,120,-1,-1,0,0
11137655,794,-8300,114,-1,-1,0,0
11137660,793,-8299,111,-1,-1,0,0
11137665,790,-8296,110,-1,-1,0,0
11137670,784,-8294,112,-1,-1,0,0
11137675,775,-8294,115,-1,-1,0,0
11137680,769,-8294,115,-1,-1,0,0
11137685,761,-8297,116,-1,-1,0,0
11137690,752,-8300,119,-1,-1,0,0
11137695,746,-8305,116,-1,-1,0,0
11137700,742,-8306,109,-1,-1,0,0
11137705,735,-8306,98,-1,-1,0,0
11137710,733,-8306,85,-1,-1,0,0
11137715,728,-8305,81,-1,-1,0,0
11137720,720,-8306,79,-1,-1,0,0
11137725,714,-8306,73,-1,-1,0,0
11137730,708,-8307,68,-1,-1,0,0
11137735,701,-8307,63,-1,-1,0,0
11137740,692,-8308,62,-1,-1,0,0
11137745,681,-8311,62,-1,-1,0,0
11137750,668,-8310,64,-1,-1,0,0
11137755,656,-8310,69,-1,-1,0,0
11137760,640,-8310,74,-1,-1,0,0
11137765,628,-8312,73,-1,-1,0,0
11137770,616,-8312,74,-1,-1,0,0
11137775,609,-8310,72,-1,0,0,0
11137780,604,-8310,65,-1,-1,0,8
11137785,601,-8314,56,-1,-1,-1,8
11137790,599,-8311,50,-1,0,-1,8
11137795,600,-8310,42,-1,0,-1,8
11137800,596,-8310,42,-1,0,-1,8
11137805,594,-8308,44,-1,0,-1,8
11137810,592,-8307,48,-1,0,-1,8
11137815,594,-8308,57,-1,0,-1,8
11137820,597,-8307,69,-1,0,-1,8
11137825,602,-8308,78,-1,-1,-1,8
11137830,606,-8306,89,-1,-1,-1,8
11137835,604,-8305,95,-1,-1,-1,8
11137840,603,-8304,98,-1,-1,-1,8
11137845,599,-8302,96,-1,-1,-1,8
11137850,593,-8302,92,-1,-1,-1,8
11137855,584,-8303,88,-1,-1,-1,8
11137860,580,-8304,76,-1,-1,-1,8
11137865,578,-8305,68,0,-1,-1,8
11137870,580,-8306,58,0,-1,-1,8
11137875,587,-8307,50,0,-1,-1,8
11137880,593,-8311,43,0,-1,-1,8
11137885,596,-8312,47,0,-1,-1,8
11137890,597,-8311,54,-1,-1,-1,8
11137895,595,-8309,61,0,-1,-1,8
11137900,589,-8308,65,0,-1,-1,8
11137905,583,-8307,75,0,-1,-1,8
11137910,573,-8307,83,0,-1,-1,8
11137915,564,-8305,87,0,-1,-2,8
11137920,555,-8304,89,0,-1,-2,8
11137925,550,-8304,82,0,-1,-2,8
11137930,545,-8305,82,0,-1,-2,8
11137935,537,-8309,76,0,-1,-2,8
11137940,528,-8308,79,0,-1,-2,8
11137945,517,-8307,76,0,-1,-2,8
11137950,504,-8307,81,0,-1,-2,8
11137955,489,-8305,81,0,-1,-2,8
11137960,477,-8305,86,0,-1,-2,8
11137965,463,-8305,93,0,-1,-2,8
11137970,452,-8307,98,0,-1,-2,8
11137975,446,-8310,108,-1,-1,-2,8
11137980,443,-8310,116,-1,-1,-2,8
11137985,449,-8308,130,-1,-1,-2,8
11137990,454,-8308,144,-1,-1,-3,8
11137995,459,-8309,155,-1,-1,-3,8
11138000,465,-8310,159,-1,-1,-3,8
11138005,467,-8310,158,-1,-1,-3,8
11138010,469,-8309,154,-1,-1,-3,8
11138015,472,-8309,140,-1,-1,-3,8
11138020,474,-8305,127,-1,-1,-3,8
11138025,477,-8306,120,-1,-1,-3,8
11138030,488,-8306,116,-1,0,-3,8
11138035,509,-8305,114,-1,0,-3,8
11138040,538,-8304,115,-1,0,-3,8
11138045,575,-8302,111,-1,-1,-3,8
11138050,615,-8302,107,-1,-1,-3,8
11138055,657,-8301,103,-1,-1,-3,8
11138060,699,-8301,96,0,-1,-3,8
11138065,736,-8302,90,0,-1,-3,8
11138070,765,-8302,76,0,-1,-3,8
11138075,787,-8299,69,0,-1,-3,8
11138080,806,-8299,69,-1,-1,-3,8
11138085,824,-8297,78,-1,-1,-3,8
11138090,845,-8295,88,-1,-1,-3,8
11138095,868,-8294,100,-1,-1,-3,8
11138100,897,-8296,110,0,-1,-3,8
11138105,930,-8294,118,0,0,-3,8
11138110,970,-8293,115,0,0,-3,8
11138115,1014,-8292,101,0,0,-2,8
11138120,1064,-8292,84,0,0,-2,8
11138125,1114,-8290,56,0,0,-2,8
11138130,1160,-8287,27,0,0,-2,8
11138135,1201,-8284,-1,0,0,-2,8
11138140,1240,-8285,-29,0,1,-2,8
11138145,1270,-8285,-53,0,1,-2,8
11138150,1294,-8286,-76,0,1,-1,8
11138155,1319,-8288,-99,0,3,-1,8
11138160,1348,-8287,-117,0,5,-1,8
11138165,1385,-8284,-124,0,8,0,8
11138170,1436,-8282,-125,0,12,0,8
11138175,1516,-8282,-128,0,17,0,8
11138180,1627,-8279,-121,0,22,1,8
11138185,1776,-8274,-116,0,27,2,8
11138190,1970,-8268,-111,0,30,2,8
11138195,2209,-8260,-119,0,33,3,8
11138200,2479,-8255,-128,0,34,4,8
11138205,2751,-8250,-122,0,35,5,8
11138210,3012,-8243,-103,0,34,6,8
11138215,3254,-8237,-86,0,33,8,8
11138220,3468,-8233,-57,0,31,9,8
11138225,3660,-8231,-20,0,29,11,8
11138230,3828,-8227,5,0,27,12,8
11138235,3969,-8220,25,0,25,14,8
11138240,4086,-8214,38,0,23,16,8
11138245,4217,-8207,32,0,22,18,8
11138250,4408,-8196,36,0,22,19,8
11138255,4585,-8186,95,0,23,19,8
11138260,4745,-8184,143,0,23,18,8
11138265,5106,-8172,164,0,26,19,8
11138270,5442,-8162,170,0,35,23,8
11138275,5647,-8146,190,0,35,25,8
11138280,5860,-8124,175,0,24,26,8
11138285,5997,-8099,157,0,22,27,8
11138290,6017,-8074,151,0,22,28,8
11138295,5934,-8045,144,-1,20,29,8
11138300,5780,-8016,144,-1,18,30,8
11138305,5558,-7984,154,-1,17,32,8
11138310,5267,-7954,188,-1,16,33,8
11138315,4972,-7925,245,-1,15,34,8
11138320,4701,-7897,304,-2,16,35,8
11138325,4444,-7871,392,-2,18,37,8
11138330,4184,-7847,507,-3,19,37,8
11138335,3938,-7827,595,-4,19,38,8
11138340,3679,-7808,676,-5,18,38,8
11138345,3450,-7765,732,-6,16,37,8
11138350,3255,-7718,724,-6,15,38,8
11138355,3052,-7718,795,-4,12,40,8
11138360,2437,-7711,1628,-6,7,39,8
11138365,1941,-7694,2040,-9,-4,36,8
11138370,1515,-7669,2292,-10,-7,35,8
11138375,977,-7655,2780,-9,-2,35,8
11138380,371,-7649,3095,-9,-5,36,8
11138385,-170,-7650,3344,-10,-14,36,8
11138390,-573,-7651,3551,-10,-18,36,8
11138395,-1010,-7660,3704,-11,-19,35,8
11138400,-1377,-7668,3782,-12,-29,35,8
11138405,-1653,-7675,3823,-13,-37,33,8
11138410,-1973,-7686,3854,-14,-43,32,8
11138415,-2325,-7695,3839,-15,-53,30,8
11138420,-2690,-7706,3853,-16,-62,29,8
11138425,-3144,-7727,3877,-16,-69,27,8
11138430,-3683,-7741,3843,-17,-78,26,8
11138435,-4253,-7761,3851,-19,-86,25,8
11138440,-4939,-7773,3824,-20,-87,24,8
11138445,-5711,-7800,3676,-21,-89,22,8
11138450,-6330,-7834,3627,-21,-90,19,8
11138455,-6987,-7872,3591,-22,-82,17,8
11138460,-7578,-7905,3529,-24,-78,15,8
11138465,-8037,-7930,3516,-25,-73,13,8
11138470,-8403,-7953,3509,-26,-63,11,8
11138475,-8631,-7967,3541,-27,-55,8,8
11138480,-8735,-7977,3589,-28,-50,6,8
11138485,-8767,-7983,3604,-29,-48,3,8
11138490,-8783,-7984,3623,-30,-49,0,8
11138495,-8774,-7979,3600,-31,-53,-3,8
11138500,-8786,-7969,3532,-31,-58,-5,8
11138505,-8828,-7953,3408,-32,-64,-8,8
11138510,-8861,-7931,3205,-33,-71,-10,8
11138515,-8894,-7909,2938,-33,-75,-12,8
11138520,-8891,-7886,2597,-33,-76,-14,8
11138525,-8820,-7858,2169,-33,-77,-15,8
11138530,-8710,-7831,1675,-33,-79,-17,8
11138535,-8577,-7804,1137,-33,-82,-19,8
11138540,-8427,-7777,590,-33,-86,-21,8
11138545,-8295,-7752,59,-33,-89,-23,8
11138550,-8190,-7729,-443,-33,-91,-25,8
11138555,-8099,-7706,-923,-33,-90,-27,8
11138560,-8034,-7684,-1360,-32,-86,-29,8
11138565,-7974,-7663,-1758,-32,-81,-30,8
11138570,-7903,-7645,-2134,-31,-75,-32,8
11138575,-7822,-7623,-2449,-31,-69,-33,8
11138580,-7699,-7599,-2715,-30,-64,-35,8
11138585,-7532,-7577,-2935,-30,-60,-37,8
11138590,-7346,-7552,-3094,-29,-58,-38,8
11138595,-7130,-7528,-3220,-28,-56,-39,8
11138600,-6892,-7499,-3327,-28,-52,-41,8
11138605,-6648,-7465,-3426,-27,-47,-42,8
11138610,-6380,-7436,-3535,-26,-45,-44,8
11138615,-6113,-7404,-3644,-25,-45,-45,8
11138620,-5865,-7375,-3765,-24,-45,-46,8
11138625,-5602,-7349,-3901,-23,-43,-47,8
11138630,-5325,-7324,-4035,-23,-38,-48,8
11138635,-5029,-7301,-4155,-22,-33,-49,8
11138640,-4701,-7278,-4275,-21,-28,-49,8
11138645,-4354,-7254,-4386,-20,-21,-50,8
11138650,-3975,-7232,-4486,-19,-12,-50,8
11138655,-3545,-7216,-4568,-18,-4,-51,8
11138660,-3092,-7190,-4645,-17,3,-51,8
11138665,-2620,-7166,-4718,-15,6,-50,8
11138670,-2124,-7149,-4811,-14,6,-50,8
11138675,-1630,-7139,-4923,-12,4,-50,8
11138680,-1151,-7132,-5031,-11,0,-50,8
11138685,-693,-7133,-5141,-10,-3,-50,8
11138690,-270,-7135,-5225,-9,-5,-49,8
11138695,127,-7140,-5339,-7,-7,-49,8
11138700,534,-7145,-5537,-5,-7,-48,8
11138705,922,-7161,-5755,-3,-5,-47,8
11138710,1243,-7183,-5972,-1,-3,-45,8
11138715,1518,-7200,-6236,1,-2,-44,8
11138720,1879,-7215,-6598,2,1,-43,8
11138725,2255,-7236,-6909,4,9,-40,8
11138730,2622,-7260,-7115,5,18,-39,8
11138735,3046,-7281,-7278,7,28,-38,8
11138740,3559,-7297,-7294,8,45,-38,8
11138745,4155,-7315,-7312,10,63,-38,8
11138750,4716,-7329,-7252,12,77,-37,8
11138755,5209,-7346,-7142,14,82,-35,8
11138760,5621,-7368,-7040,17,79,-33,8
11138765,5916,-7389,-6891,19,74,-31,8
11138770,6138,-7413,-6773,21,68,-29,8
11138775,6284,-7433,-6627,22,65,-27,8
11138780,6389,-7452,-6492,24,66,-25,8
11138785,6482,-7469,-6394,26,69,-22,8
11138790,6568,-7484,-6286,28,75,-20,8
11138795,6641,-7497,-6219,29,83,-18,8
11138800,6705,-7510,-6126,31,89,-16,8
11138805,6791,-7516,-6013,32,95,-14,8
11138810,6850,-7516,-5857,33,103,-12,8
11138815,6867,-7514,-5635,34,109,-10,8
11138820,6926,-7506,-5360,35,113,-8,8
11138825,7045,-7503,-5009,36,118,-5,8
11138830,7117,-7498,-4605,36,124,-2,8
11138835,7169,-7487,-4191,37,124,1,8
11138840,7214,-7478,-3735,38,121,2,8
11138845,7222,-7471,-3273,38,117,4,8
11138850,7123,-7459,-2823,38,114,6,8
11138855,6931,-7453,-2398,39,108,7,8
11138860,6774,-7459,-1939,39,100,9,8
11138865,6612,-7468,-1436,38,97,12,8
11138870,6379,-7464,-992,37,99,15,8
11138875,6188,-7456,-573,36,101,16,8
11138880,6046,-7461,-135,35,107,17,8
11138885,5943,-7463,260,34,114,19,8
11138890,5838,-7464,609,33,116,20,8
11138895,5735,-7470,928,31,115,22,8
11138900,5626,-7478,1212,30,110,23,8
11138905,5487,-7488,1500,28,107,25,8
11138910,5382,-7476,1784,27,105,26,8
11138915,5265,-7482,2099,27,106,28,8
11138920,5135,-7503,2668,26,106,29,8
11138925,4972,-7505,3291,24,104,31,8
11138930,4801,-7504,3792,22,99,32,8
11138935,4659,-7507,4252,20,95,33,8
11138940,4513,-7517,4690,19,91,34,8
11138945,4356,-7530,5082,17,83,35,8
11138950,4190,-7543,5421,16,72,36,8
11138955,4018,-7557,5685,14,61,36,8
11138960,3839,-7569,5898,12,53,37,8
11138965,3660,-7577,6069,10,46,38,8
11138970,3489,-7586,6183,8,40,38,8
11138975,3323,-7591,6238,7,35,39,8
11138980,3157,-7596,6238,5,33,40,8
11138985,2999,-7597,6190,4,32,40,8
11138990,2844,-7598,6110,2,32,40,8
11138995,2685,-7603,6018,0,31,40,8
11139000,2629,-7598,5777,-1,29,41,8
11139005,2608,-7594,5501,-2,31,42,8
11139010,2407,-7607,5617,-4,29,42,8
11139015,2164,-7602,5645,-7,20,41,8
11139020,1953,-7583,5585,-9,18,40,8
11139025,1601,-7574,5743,-11,23,40,8
11139030,1181,-7563,5928,-12,19,38,8
11139035,775,-7549,6020,-13,7,37,8
11139040,391,-7545,6083,-14,3,37,8
11139045,-61,-7540,6073,-15,-3,37,8
11139050,-527,-7540,6073,-15,-18,37,8
11139055,-888,-7541,5968,-16,-30,37,8
11139060,-1195,-7544,5768,-16,-36,37,8
11139065,-1417,-7552,5509,-17,-41,36,8
11139070,-1540,-7558,5180,-18,-44,35,8
11139075,-1647,-7564,4867,-18,-44,33,8
11139080,-1790,-7573,4553,-19,-47,32,8
11139085,-1936,-7594,4289,-20,-53,30,8
11139090,-2222,-7604,4048,-21,-58,30,8
11139095,-2631,-7616,3843,-22,-65,30,8
11139100,-3101,-7631,3619,-23,-69,30,8
11139105,-3585,-7648,3425,-23,-69,29,8
11139110,-3986,-7670,3258,-24,-65,28,8
11139115,-4275,-7692,3105,-24,-59,27,8
11139120,-4466,-7710,2951,-24,-51,26,8
11139125,-4541,-7726,2772,-24,-45,25,8
11139130,-4530,-7741,2569,-24,-41,23,8
11139135,-4485,-7758,2335,-24,-40,22,8
11139140,-4409,-7775,2110,-24,-42,20,8
11139145,-4347,-7788,1864,-25,-43,19,8
11139150,-4387,-7807,1544,-24,-43,18,8
11139155,-4425,-7826,1265,-24,-46,16,8
11139160,-4501,-7848,1033,-24,-45,15,8
11139165,-4620,-7869,812,-24,-43,14,8
11139170,-4737,-7890,626,-24,-42,13,8
11139175,-4802,-7909,495,-24,-39,13,8
11139180,-4827,-7922,400,-24,-36,11,8
11139185,-4810,-7934,341,-24,-33,10,8
11139190,-4740,-7945,269,-24,-33,9,8
11139195,-4674,-7956,172,-23,-34,7,8
11139200,-4642,-7969,41,-22,-39,6,8
11139205,-4625,-7986,-127,-22,-46,5,8
11139210,-4681,-8000,-347,-21,-51,4,8
11139215,-4801,-8015,-611,-21,-57,2,8
11139220,-4942,-8033,-876,-20,-60,1,8
11139225,-5119,-8050,-1123,-20,-60,0,8
11139230,-5308,-8065,-1368,-19,-58,-1,8
11139235,-5462,-8079,-1613,-18,-53,-3,8
11139240,-5595,-8094,-1842,-18,-44,-4,8
11139245,-5685,-8112,-2053,-17,-34,-5,8
11139250,-5706,-8127,-2241,-16,-24,-7,8
11139255,-5686,-8137,-2398,-16,-16,-8,8
11139260,-5627,-8147,-2515,-15,-11,-10,8
11139265,-5525,-8152,-2585,-15,-8,-11,8
11139270,-5403,-8155,-2620,-14,-6,-12,8
11139275,-5265,-8156,-2627,-13,-6,-14,8
11139280,-5123,-8152,-2617,-12,-7,-15,8
11139285,-5005,-8148,-2614,-11,-9,-16,8
11139290,-4898,-8145,-2633,-10,-12,-18,8
11139295,-4803,-8140,-2677,-9,-15,-19,8
11139300,-4724,-8139,-2739,-8,-18,-20,8
11139305,-4654,-8138,-2807,-7,-21,-21,8
11139310,-4598,-8133,-2865,-7,-23,-22,8
11139315,-4556,-8126,-2912,-6,-23,-23,8
11139320,-4512,-8117,-2947,-6,-21,-24,8
11139325,-4453,-8106,-2971,-5,-15,-25,8
11139330,-4373,-8090,-2991,-4,-9,-26,8
11139335,-4279,-8077,-2998,-3,-4,-27,8
11139340,-4179,-8061,-2986,-3,0,-28,8
11139345,-4069,-8047,-2954,-2,5,-29,8
11139350,-3951,-8031,-2893,-2,9,-30,8
11139355,-3820,-8015,-2780,-1,14,-31,8
11139360,-3675,-7999,-2620,-1,19,-32,8
11139365,-3507,-7976,-2424,0,24,-32,8
11139370,-3304,-7955,-2207,0,28,-33,8
11139375,-3067,-7933,-1995,1,29,-34,8
11139380,-2806,-7910,-1789,1,26,-34,8
11139385,-2542,-7891,-1613,2,22,-34,8
11139390,-2270,-7873,-1479,2,20,-34,8
11139395,-1976,-7858,-1375,3,23,-34,8
11139400,-1646,-7844,-1290,3,29,-34,8
11139405,-1280,-7837,-1213,3,36,-34,8
11139410,-903,-7833,-1071,3,42,-33,8
11139415,-495,-7831,-937,2,49,-33,8
11139420,-42,-7827,-809,2,55,-32,8
11139425,420,-7823,-638,3,60,-31,8
11139430,897,-7825,-462,3,60,-30,8
11139435,1376,-7831,-304,3,56,-29,8
11139440,1788,-7840,-181,3,47,-26,8
11139445,2127,-7852,-103,3,35,-24,8
11139450,2346,-7849,-79,3,22,-21,8
11139455,2479,-7870,-43,4,14,-22,8
11139460,2593,-7896,46,4,13,-25,8
11139465,3283,-7908,176,3,14,-25,8
11139470,3911,-7935,213,3,36,-20,8
11139475,4246,-7949,316,3,53,-18,8
11139480,4670,-7967,378,3,50,-18,8
11139485,5138,-7987,422,4,45,-18,8
11139490,5412,-8005,479,3,37,-17,8
11139495,5500,-8025,496,3,18,-16,8
11139500,5514,-8046,495,3,-1,-14,8
11139505,5423,-8072,499,3,-7,-13,8
11139510,5203,-8090,492,3,-7,-11,8
11139515,5054,-8109,449,3,-9,-10,8
11139520,4951,-8127,414,3,-7,-8,8
11139525,4790,-8139,386,3,-4,-7,8
11139530,4712,-8157,303,3,-7,-6,8
11139535,4668,-8172,231,3,-7,-5,8
11139540,4564,-8180,175,3,-7,-4,8
11139545,4499,-8188,84,3,-11,-3,8
11139550,4412,-8195,23,3,-13,-3,8
11139555,4257,-8201,-28,3,-16,-2,8
11139560,4085,-8208,-114,3,-20,-1,8
11139565,3888,-8218,-168,4,-22,-1,8
11139570,3647,-8222,-207,4,-21,0,8
11139575,3404,-8230,-268,4,-20,1,8
11139580,3193,-8238,-313,4,-17,1,8
11139585,2971,-8244,-333,4,-11,2,8
11139590,2732,-8247,-346,4,-7,2,8
11139595,2523,-8251,-332,4,-4,2,8
11139600,2333,-8257,-303,4,-1,2,8
11139605,2153,-8262,-255,4,0,3,8
11139610,1971,-8264,-197,4,0,3,8
11139615,1789,-8266,-132,4,-1,3,8
11139620,1632,-8270,-69,4,0,3,8
11139625,1491,-8273,-21,4,0,2,8
11139630,1380,-8277,16,4,0,2,8
11139635,1284,-8281,57,3,0,2,8
11139640,1189,-8281,85,3,0,1,8
11139645,1117,-8281,115,3,0,1,8
11139650,1057,-8283,141,3,1,0,8
11139655,1040,-8284,170,3,1,0,8
11139660,992,-8282,219,3,1,1,8
11139665,805,-8283,286,3,-1,2,8
11139670,543,-8291,366,4,-1,1,8
11139675,324,-8299,462,4,-1,1,8
11139680,141,-8307,543,4,-1,0,8
11139685,-32,-8313,610,4,-1,1,8
11139690,-173,-8316,642,4,0,1,8
11139695,-230,-8321,649,3,0,1,8
11139700,-221,-8327,642,3,0,1,8
11139705,-181,-8329,610,2,0,1,8
11139710,-109,-8328,583,2,0,0,8
11139715,-27,-8326,567,2,0,0,8
11139720,37,-8322,552,1,-1,-1,8
11139725,70,-8317,542,1,-1,-1,8
11139730,82,-8316,525,1,-1,-1,8
11139735,81,-8317,515,1,-1,-1,8
11139740,57,-8316,504,1,-1,-1,8
11139745,34,-8319,489,1,-1,-2,8
11139750,16,-8323,491,1,-1,-2,8
11139755,8,-8325,502,0,-1,-2,8
11139760,27,-8321,532,0,0,-2,8
11139765,63,-8318,576,0,0,-2,8
11139770,113,-8313,613,0,0,-2,8
11139775,178,-8312,646,0,0,-2,8
11139780,236,-8313,662,0,-1,-2,0
11139785,292,-8310,653,0,-1,-2,0
11139790,342,-8310,637,0,-1,-3,0
11139795,372,-8315,616,-1,-1,-3,0
11139800,403,-8315,588,-1,-1,-3,0
11139805,435,-8317,566,-1,-1,-3,0
11139810,466,-8318,548,-1,-1,-3,0
11139815,520,-8315,521,-1,-1,-2,0
11139820,587,-8312,500,-1,-1,-2,0
11139825,658,-8310,473,-1,-1,-2,0
11139830,737,-8308,444,-1,-1,-2,0
11139835,804,-8309,422,-1,-2,-2,0
11139840,854,-8308,396,-1,-2,-2,0
11139845,880,-8304,375,-2,-3,-2,0
11139850,882,-8301,358,-2,-3,-2,0
11139855,866,-8299,347,-2,-4,-2,0
11139860,845,-8300,327,-1,-5,-2,0
11139865,819,-8302,306,-1,-5,-2,0
11139870,800,-8302,275,-2,-5,-2,0
11139875,798,-8303,244,-2,-5,-2,0
11139880,801,-8303,223,-2,-4,-2,0
11139885,820,-8305,200,-2,-4,-2,0
11139890,852,-8304,183,-2,-4,-2,0
11139895,881,-8302,169,-2,-4,-2,0
11139900,920,-8302,147,-2,-4,-2,0
11139905,951,-8300,132,-1,-4,-1,0
11139910,969,-8300,107,-1,-5,-1,0
11139915,986,-8302,74,-1,-5,-1,0
11139920,991,-8301,42,-1,-5,-1,0
11139925,984,-8299,10,-1,-6,-1,0
11139930,974,-8299,-12,-1,-6,-1,0
11139935,952,-8298,-19,-1,-6,-1,0
11139940,925,-8297,-21,-1,-6,-1,0
11139945,899,-8298,-18,-1,-6,-1,0
11139950,877,-8297,-17,-1,-5,-1,0
11139955,856,-8294,-19,-1,-5,-1,0
11139960,841,-8296,-27,-1,-5,-1,0
11139965,828,-8301,-33,-1,-5,-1,0
11139970,817,-8305,-44,-1,-5,-1,0
11139975,812,-8306,-48,-1,-4,-1,0
11139980,802,-8308,-41,-1,-4,-1,0
11139985,788,-8306,-25,-1,-4,-1,0
11139990,780,-8304,-5,-1,-3,-1,0
11139995,771,-8303,16,-1,-3,-1,0
11140000,763,-8302,34,-1,-3,-1,0
11140005,760,-8301,46,-1,-3,-1,0
11140010,754,-8300,56,-1,-3,-1,0
11140015,752,-8300,56,-1,-3,-1,0
11140020,753,-8299,57,-1,-4,-1,0
11140025,748,-8301,56,-1,-4,-1,0
11140030,747,-8303,52,-1,-3,-1,0
11140035,744,-8303,46,-1,-3,-1,0
11140040,738,-8305,38,-1,-2,-1,0
11140045,733,-8306,29,-1,-1,-1,0
11140050,729,-8308,27,-1,-1,-1,0
11140055,726,-8309,26,-1,0,-1,0
11140060,725,-8310,32,-1,0,-1,0
11140065,730,-8308,41,-1,0,-1,0
11140070,737,-8307,54,-1,0,-1,0
11140075,744,-8306,64,-1,0,-1,0
11140080,754,-8306,68,-1,0,-1,0
11140085,762,-8308,74,-1,0,-1,0
11140090,769,-8307,69,-1,-1,-1,0
11140095,780,-8307,63,-1,-1,-1,0
11140100,790,-8305,49,-1,-1,-1,0
11140105,807,-8305,32,-1,-1,-1,0
11140110,818,-8303,16,-1,-1,-1,0
11140115,830,-8303,1,-1,-1,-1,0
11140120,850,-8300,-12,-1,-1,-1,0
11140125,868,-8301,-14,-1,-1,-1,0
11140130,884,-8300,-11,-1,-1,-1,0
11140135,897,-8301,3,-1,-1,-1,0
11140140,910,-8300,29,-1,-1,-1,0
11140145,917,-8299,55,-1,-1,-1,0
11140150,922,-8298,76,-1,-1,-1,0
11140155,927,-8298,94,-1,-2,-1,0
11140160,924,-8298,105,-1,-3,-1,0
11140165,921,-8296,105,-1,-3,-1,0
11140170,917,-8297,101,-1,-4,-1,0
11140175,912,-8298,96,-1,-5,0,0
11140180,911,-8296,84,-1,-5,0,0
11140185,907,-8295,76,-1,-5,0,0
11140190,899,-8294,68,-1,-4,0,0
11140195,895,-8292,62,-1,-4,0,0
11140200,888,-8295,62,-1,-3,0,0
11140205,883,-8298,62,-1,-3,0,0
11140210,880,-8299,67,-1,-3,0,0
11140215,872,-8300,76,-1,-3,0,0
11140220,864,-8298,81,-1,-3,0,0
11140225,856,-8297,87,-1,-3,0,0
11140230,847,-8297,88,-1,-3,0,0
11140235,838,-8296,91,-1,-3,0,0
11140240,824,-8298,95,-1,-4,0,0
11140245,810,-8298,97,-1,-4,0,0
11140250,797,-8301,92,-1,-4,0,0
11140255,783,-8302,81,-1,-4,0,0
11140260,769,-8302,66,-1,-4,0,0
11140265,756,-8303,46,-1,-4,0,0
11140270,744,-8301,24,-1,-3,0,0
11140275,738,-8302,2,-1,-3,0,0
11140280,734,-8301,-9,-1,-3,0,0
11140285,728,-8299,-17,-1,-2,0,0
11140290,725,-8299,-23,-1,-2,0,0
11140295,723,-8297,-24,-1,-2,0,0
11140300,721,-8296,-15,-1,-2,-1,0
11140305,720,-8296,-10,0,-2,-1,0
11140310,723,-8298,-12,0,-3,0,0
11140315,728,-8301,-15,0,-3,0,0
11140320,732,-8301,-22,0,-4,0,0
11140325,739,-8300,-31,0,-4,0,0
11140330,745,-8299,-45,0,-5,0,0
11140335,751,-8298,-58,0,-5,0,0
11140340,753,-8298,-68,0,-5,-1,0
11140345,748,-8299,-77,0,-4,-1,0
11140350,739,-8302,-79,0,-4,-1,0
11140355,727,-8304,-75,0,-3,-1,0
11140360,713,-8306,-66,0,-3,-1,0
11140365,699,-8304,-51,0,-3,-1,0
11140370,696,-8306,-33,0,-3,-1,0
11140375,696,-8303,-20,0,-3,-1,0
11140380,700,-8302,-9,0,-3,-1,0
11140385,709,-8301,1,0,-3,-1,0
11140390,717,-8304,6,0,-3,-1,0
11140395,729,-8304,9,0,-3,-1,0
11140400,738,-8303,14,0,-2,-1,0
11140405,745,-8304,18,0,-2,-1,0
11140410,754,-8305,28,0,-2,-1,0
11140415,761,-8308,40,0,-2,-1,0
11140420,767,-8308,50,0,-2,-1,0
11140425,778,-8307,68,0,-2,-1,0
11140430,788,-8305,89,0,-1,-1,0
11140435,797,-8304,111,0,-1,-1,0
11140440,805,-8303,126,0,-1,-1,0
11140445,812,-8304,135,0,-1,-1,0
11140450,822,-8303,139,0,-2,-1,0
11140455,831,-8300,141,0,-2,-1,0
11140460,837,-8301,134,0,-3,-1,0
11140465,841,-8302,125,0,-3,0,0
11140470,849,-8302,106,0,-3,0,0
11140475,858,-8303,86,0,-2,0,0
11140480,868,-8301,69,0,-2,0,0
11140485,876,-8303,54,0,-2,0,0
11140490,883,-8304,46,0,-1,0,0
11140495,887,-8304,53,0,-1,0,0
11140500,888,-8305,61,0,-1,0,0
11140505,890,-8305,80,0,-1,0,0
11140510,892,-8303,98,0,-1,0,0
11140515,894,-8303,113,0,-1,0,0
11140520,894,-8304,120,0,-1,0,0
11140525,896,-8303,119,0,-1,0,0
11140530,896,-8306,116,0,-2,0,0
11140535,888,-8310,104,0,-2,0,0
11140540,882,-8311,93,0,-3,0,0
11140545,873,-8311,76,0,-3,0,0
11140550,862,-8312,68,0,-4,0,0
11140555,845,-8312,64,0,-4,0,0
11140560,830,-8310,60,0,-4,0,0
11140565,812,-8310,58,0,-4,0,0
11140570,796,-8312,58,0,-5,0,0
11140575,779,-8312,63,0,-4,0,0
11140580,765,-8309,74,0,-4,0,0
11140585,755,-8308,78,0,-5,0,0
11140590,749,-8309,82,0,-5,0,0
11140595,745,-8310,82,0,-6,0,0
11140600,740,-8309,74,0,-6,0,0
11140605,738,-8308,59,0,-6,0,0
11140610,734,-8310,38,0,-5,0,0
11140615,724,-8309,11,0,-5,0,0
11140620,713,-8306,-4,0,-5,0,0
11140625,698,-8308,-23,0,-5,0,0
11140630,684,-8307,-42,0,-4,0,0
11140635,674,-8308,-56,0,-3,0,0
11140640,672,-8308,-70,0,-3,0,0
11140645,670,-8311,-72,0,-2,0,0
11140650,671,-8310,-66,0,-1,0,0
11140655,677,-8307,-56,0,-1,0,0
11140660,681,-8304,-46,0,-1,0,0
11140665,683,-8302,-34,0,-1,0,0
11140670,687,-8305,-27,0,-1,0,0
11140675,692,-8307,-17,0,0,0,0
11140680,692,-8308,-5,0,-1,0,0
11140685,694,-8309,3,0,-1,0,0
11140690,702,-8306,12,0,0,0,0
11140695,709,-8306,28,0,-1,0,0
11140700,717,-8308,44,0,-1,0,0
11140705,728,-8306,60,0,0,0,0
11140710,737,-8307,76,0,-1,-1,0
11140715,749,-8307,87,0,-1,0,0
11140720,758,-8308,93,0,-1,-1,0
11140725,762,-8308,105,0,-1,-1,0
11140730,763,-8310,111,0,-1,-1,0
11140735,763,-8310,122,0,-1,-1,0
11140740,761,-8307,135,0,-1,0,0
11140745,758,-8305,138,0,-1,-1,0
11140750,753,-8304,145,0,-1,-1,0
11140755,749,-8300,160,0,-1,-1,0
11140760,751,-8299,166,0,-1,0,0
11140765,751,-8299,173,0,-1,-1,0
11140770,755,-8299,179,0,-1,-1,0
11140775,757,-8302,184,0,-1,-1,0
11140780,760,-8302,186,0,-2,-1,0
11140786,758,-8304,197,0,-1,-1,0
11140790,752,-8304,219,0,-1,0,0
11140795,752,-8302,238,0,-1,-1,0
11140801,748,-8303,256,-1,-1,-1,0
11140805,742,-8304,274,-1,-2,-1,0
11140810,738,-8307,286,-1,-2,-1,0
11140815,738,-8306,290,-1,-2,-1,0
11140820,740,-8306,293,-1,-3,-1,0
11140825,744,-8305,292,-1,-3,-1,0
11140830,749,-8305,296,-1,-3,-1,0
11140835,757,-8306,298,-1,-4,-1,0
11140840,763,-8304,297,-1,-5,-1,0
11140845,765,-8302,295,-1,-6,-1,0
11140850,768,-8303,291,-1,-7,-1,0
11140855,769,-8305,273,-1,-8,-1,0
11140860,766,-8306,257,-1,-8,-1,0
11140865,757,-8306,237,-1,-8,-1,0
11140870,746,-8306,220,-1,-8,-1,0
11140875,735,-8307,199,-1,-8,-1,0
11140881,725,-8307,181,-1,-7,-1,0
11140885,718,-8310,159,-1,-6,-1,0
11140890,720,-8311,143,-1,-5,-1,0
11140896,733,-8309,128,-1,-4,-1,0
11140900,743,-8306,116,-1,-3,-1,0
11140906,759,-8306,115,-1,-2,-1,0
11140910,772,-8304,112,-1,-3,-1,0
11140915,787,-8305,114,-1,-3,-1,0
11140920,797,-8305,122,-1,-3,-1,0
11140926,807,-8304,127,-1,-4,-1,0
11140930,816,-8302,126,-1,-4,-1,0
11140936,819,-8301,119,-1,-5,-1,0
11140940,820,-8298,110,-1,-5,-1,0
11140946,825,-8299,96,-1,-5,0,0
11140951,830,-8301,83,-1,-6,0,0
11140955,834,-8299,71,-1,-6,0,0
11140960,842,-8299,60,-1,-6,0,0
11140965,846,-8298,50,-1,-5,0,0
11140971,851,-8295,39,-1,-5,0,0
11140976,859,-8297,28,-1,-5,0,0
11140980,867,-8298,16,-1,-4,0,0
11140986,876,-8298,5,-1,-4,0,0
11140990,892,-8300,-11,-1,-3,0,0
11140995,905,-8303,-22,-1,-3,0,0
11141000,912,-8304,-25,-1,-3,0,0
11141005,914,-8304,-19,-1,-3,0,0
11141011,910,-8302,-2,-1,-3,0,0
11141016,900,-8299,14,-1,-3,0,0
11141021,887,-8299,30,-1,-3,0,0
11141025,872,-8298,46,-1,-3,0,0
11141030,857,-8296,53,-1,-3,0,0
11141035,844,-8298,54,-1,-3,0,0
11141040,832,-8298,50,-1,-2,0,0
11141045,822,-8298,50,-1,-2,0,0
11141051,814,-8297,51,-1,-2,0,0
11141056,808,-8300,61,-1,-2,0,0
11141061,805,-8302,70,-1,-2,0,0
11141066,803,-8302,77,-1,-2,0,0
11141070,799,-8301,81,-1,-3,0,0
11141075,792,-8303,74,-1,-3,0,0
11141081,786,-8304,67,-1,-3,0,0
11141086,776,-8300,60,-1,-3,0,0
11141090,764,-8300,48,-1,-3,0,0
11141096,749,-8298,43,-1,-3,0,0
11141101,735,-8300,38,-1,-3,0,0
11141105,723,-8303,39,-1,-2,0,0
11141110,717,-8304,39,-1,-2,0,0
11141115,715,-8302,41,-1,-2,0,0
11141121,718,-8303,49,-1,-1,0,0
11141126,723,-8303,55,-1,-1,0,0
11141131,726,-8302,59,-1,-1,0,0
11141136,728,-8304,67,-1,-1,0,0
11141141,725,-8306,75,-1,-1,0,0
11141146,720,-8309,85,-1,-2,0,0
11141150,712,-8311,104,-1,-2,0,0
11141156,701,-8311,122,-1,-2,0,0
11141160,692,-8311,135,-1,-2,0,0
11141165,686,-8309,138,-1,-2,0,0
11141171,683,-8308,135,-1,-2,0,0
11141176,683,-8302,135,-1,-2,0,0
11141181,685,-8301,121,-1,-2,0,0
11141186,693,-8301,103,-1,-2,0,0
11141191,699,-8298,77,-1,-2,0,0
11141196,701,-8299,59,-1,-3,0,0
11141201,701,-8302,43,-1,-3,0,0
11141206,699,-8300,27,-1,-3,0,0
11141211,692,-8301,19,-1,-2,0,0
11141216,685,-8302,12,-1,-2,0,0
11141221,676,-8299,12,-1,-2,0,0
11141226,675,-8299,15,-1,-1,0,0
11141231,670,-8302,21,-1,-1,0,0
11141236,675,-8300,32,-1,-1,0,0
11141241,681,-8300,42,-1,-1,0,0
11141246,692,-8301,52,-1,-1,0,0
11141251,704,-8303,51,-1,-1,0,0
11141256,720,-8304,52,-1,-1,0,0
11141261,733,-8304,55,-1,-1,0,0
11141266,743,-8302,55,-1,-2,0,0
11141271,750,-8299,51,-1,-2,0,0
11141276,757,-8298,45,-1,-2,-1,0
11141281,760,-8298,43,-1,-3,0,0
11141286,758,-8298,42,-1,-3,-1,0
11141291,757,-8297,33,-1,-3,0,0
11141296,756,-8301,23,-1,-3,0,0
11141301,757,-8302,6,-1,-3,0,0
11141306,756,-8301,-7,-1,-2,0,0
11141311,755,-8303,-18,-1,-2,0,0
11141316,753,-8305,-32,-1,-2,0,0
11141321,754,-8307,-41,-1,-2,0,0
11141326,753,-8306,-50,-1,-2,0,0
11141331,750,-8304,-50,-1,-2,0,0
11141336,746,-8304,-48,-1,-2,0,0
11141341,738,-8301,-43,-1,-2,0,0
11141346,731,-8301,-38,-1,-2,0,0
11141351,724,-8303,-34,-1,-1,0,0
11141356,722,-8307,-34,-1,-1,0,0
11141361,721,-8307,-35,-1,-1,0,0
11141366,720,-8307,-33,-1,-1,0,0
11141371,719,-8306,-26,-1,-1,0,0
11141376,718,-8306,-20,-1,-1,-1,0
11141381,720,-8306,-9,-1,-1,0,0
11141386,721,-8307,3,-1,-1,-1,0
11141391,722,-8310,20,-1,-1,0,0
11141396,723,-8307,27,-1,-1,0,0
11141401,727,-8305,38,-1,-1,0,0
11141406,736,-8304,46,-1,0,0,0
11141411,748,-8301,54,-1,0,0,0
11141416,759,-8302,60,-1,0,0,0
11141421,771,-8300,58,-1,-1,0,0
11141426,778,-8303,56,-1,-1,0,0
11141431,784,-8305,49,-1,-1,-1,0
11141436,784,-8306,43,-1,-1,0,0
11141441,781,-8306,34,-1,-1,0,0
11141446,773,-8306,31,-1,-1,0,0
11141451,761,-8302,33,-1,-1,0,0
11141456,747,-8300,36,-1,-1,0,0
11141461,737,-8299,36,-1,-1,0,0
11141466,730,-8297,41,-1,-1,0,0
11141471,727,-8296,44,-1,-1,0,0
11141476,730,-8296,50,-1,-1,0,0
11141481,732,-8295,50,-1,-1,0,0
11141486,734,-8297,46,-1,-1,0,0
11141491,732,-8296,44,-1,-1,0,0
11141496,733,-8296,43,-1,-1,0,0
11141501,734,-8298,42,-1,-1,0,0
11141506,733,-8300,45,-1,-1,0,0
11141511,732,-8302,44,-1,-1,0,0
11141516,732,-8300,35,-1,-1,0,0
11141521,739,-8297,25,-1,-1,0,0
11141526,746,-8296,14,-1,-1,0,0
11141531,755,-8295,0,-1,-1,0,0
11141536,762,-8294,-7,-1,-1,0,0
11141541,762,-8294,-5,-1,-1,-1,0
11141546,762,-8297,2,-1,-1,0,0
11141551,757,-8298,8,-1,-1,0,0
11141556,750,-8296,16,-1,-1,0,0
11141561,745,-8295,30,-1,-1,0,0
11141566,740,-8296,39,-1,-1,0,0
11141571,732,-8296,50,-1,-1,0,0
11141576,730,-8299,56,-1,-1,0,0
11141581,729,-8300,66,-1,-1,0,0
11141586,727,-8300,71,-1,-1,0,0
11141591,725,-8298,69,-1,-1,0,0
11141596,726,-8299,63,-1,-1,0,0
11141601,725,-8301,53,-1,-2,0,0
11141606,726,-8302,40,-1,-2,0,0
11141611,724,-8301,28,-1,-3,0,0
11141616,722,-8303,18,-1,-3,-1,0
11141621,719,-8303,10,-1,-3,0,0
11141626,718,-8304,5,-1,-2,-1,0
11141631,716,-8302,1,0,-2,-1,0
11141636,714,-8301,-4,0,-2,0,0
11141641,713,-8303,-10,0,-1,0,0
11141646,720,-8304,-19,0,-1,0,0
11141651,727,-8307,-26,0,0,0,0
11141656,738,-8305,-24,-1,0,-1,0
11141661,753,-8301,-15,-1,0,-1,0
11141666,766,-8298,2,-1,0,0,0
11141671,776,-8299,23,-1,-1,0,0
11141676,782,-8297,42,-1,-1,0,0
11141681,786,-8296,62,0,-1,0,0
11141686,785,-8296,74,0,-1,0,0
11141691,779,-8297,84,-1,-1,0,0
11141696,770,-8302,86,-1,-1,0,0
11141701,759,-8301,94,-1,-2,0,0
11141706,757,-8304,98,-1,-2,0,0
11141711,755,-8304,103,-1,-2,0,0
11141716,756,-8304,107,-1,-2,0,0
11141721,759,-8307,112,-1,-2,0,0
11141726,765,-8307,110,-1,-2,0,0
11141731,773,-8307,100,-1,-2,0,0
11141736,777,-8307,81,-1,-2,0,0
11141741,777,-8309,57,-1,-2,0,0
11141746,775,-8312,44,-1,-2,0,0
11141751,769,-8311,31,-1,-2,0,0
11141756,765,-8308,22,-1,-2,0,0
11141761,754,-8310,9,-1,-2,0,0
11141766,745,-8313,-2,-1,-2,0,0
11141771,740,-8311,-6,-1,-2,0,0
11141776,734,-8309,-6,-1,-2,0,0
11141781,729,-8307,3,-1,-2,0,0
11141786,723,-8305,10,-1,-2,0,0
11141791,721,-8305,24,-1,-2,0,0
11141796,724,-8306,36,-1,-2,0,0
11141801,727,-8304,45,-1,-2,0,0
11141806,730,-8305,56,-1,-2,0,0
11141811,734,-8307,64,-1,-2,0,0
11141816,739,-8308,64,-1,-2,0,0
11141821,742,-8307,62,-1,-2,0,0
11141826,742,-8308,55,-1,-2,0,0
11141831,737,-8308,52,-1,-2,0,0
11141836,734,-8309,42,-1,-1,0,0
11141841,729,-8307,33,-1,-1,0,0
11141846,725,-8307,28,-1,-1,0,0
11141851,725,-8310,25,-1,-1,0,0
11141856,719,-8306,32,-1,-1,0,0
11141861,725,-8304,32,-1,0,0,0
11141866,744,-8303,27,-1,0,0,0
11141871,735,-8301,36,-1,-1,0,0
11141876,737,-8301,34,-1,0,0,0
11141881,752,-8304,29,-1,0,-1,0
11141886,751,-8303,32,-1,-1,0,0
11141891,739,-8303,28,-1,-1,0,0
11141896,739,-8303,25,-1,-1,0,0
11141901,739,-8303,19,-1,-1,0,0
11141906,732,-8304,5,-1,-1,0,0
11141911,730,-8303,0,-1,-1,0,0
11141916,728,-8303,-5,-1,-1,0,0
11141921,719,-8305,-6,-1,-1,0,0
11141926,713,-8307,-4,-1,-1,0,0
11141931,707,-8308,2,-1,0,0,0
11141936,699,-8307,12,-1,0,0,0
11141941,685,-8304,25,-1,0,0,0
11141946,690,-8302,32,-1,1,0,0
11141951,691,-8304,35,-1,0,0,0
11141956,689,-8302,41,0,0,0,0
11141961,697,-8302,40,-1,0,0,0
11141966,707,-8301,40,-1,0,0,0
11141971,707,-8302,43,-1,0,0,0
11141976,707,-8303,43,-1,0,-1,0
11141981,705,-8300,47,-1,0,-1,0
11141986,699,-8303,49,-1,0,-1,0
11141991,688,-8304,58,-1,0,-1,0
11141996,678,-8304,70,-1,0,-1,0
11142001,661,-8309,81,-1,0,-1,0
11142006,665,-8308,86,-1,0,-1,0
11142011,661,-8307,88,-1,-1,-1,0
11142016,660,-8307,86,-1,-1,-1,0
11142021,668,-8308,81,-1,0,-1,0
11142026,676,-8306,68,-1,0,-1,0
11142031,669,-8304,57,-1,-1,-1,0
11142036,667,-8303,44,-1,0,-1,0
11142041,669,-8302,32,-1,0,-1,0
11142046,669,-8302,23,-1,0,-1,0
11142051,672,-8304,15,-1,0,-1,0
11142056,680,-8305,12,-1,0,-1,0
11142061,678,-8305,17,-1,-1,-1,0
11142066,706,-8304,16,-1,0,-1,0
11142071,731,-8300,16,-1,0,-1,0
11142076,739,-8298,21,-1,-1,-1,0
11142081,752,-8300,22,-1,-1,-1,0
11142086,760,-8301,27,-1,-1,-1,0
11142091,753,-8300,31,-1,-1,-1,0
11142096,744,-8296,38,-1,-2,-1,0
11142101,735,-8295,40,-1,-1,-1,0
11142106,728,-8295,43,-1,-1,-1,0
11142111,728,-8295,32,0,-2,-1,0
11142116,739,-8296,21,0,-1,-1,0
11142121,757,-8299,1,0,-1,-1,0
11142126,787,-8301,-17,0,-1,-1,0
11142131,828,-8302,-38,0,0,0,0
11142136,861,-8302,-60,0,-1,0,0
11142141,878,-8306,-76,0,-2,0,0
11142146,884,-8309,-86,0,-1,-1,0
11142151,872,-8309,-86,0,-1,-1,0
11142156,853,-8312,-84,0,-1,-1,0
11142161,824,-8311,-77,0,-1,-1,0
11142166,791,-8308,-63,0,-1,0,0
11142171,758,-8307,-52,0,-1,0,0
11142176,739,-8306,-43,0,0,0,0
11142181,724,-8304,-34,0,-1,0,0
11142186,715,-8302,-26,0,-1,0,0
11142191,715,-8301,-20,0,0,0,0
11142196,721,-8298,-21,0,0,-1,0
11142201,726,-8299,-23,0,-1,0,0
11142206,733,-8297,-29,0,-1,0,0
11142211,747,-8296,-37,0,0,-1,0
11142216,750,-8298,-41,0,0,-1,0
11142221,745,-8299,-45,0,-1,-1,0
11142226,741,-8301,-46,0,0,-1,0
11142231,742,-8306,-35,0,0,0,0
11142236,743,-8307,-21,0,0,0,0
11142241,742,-8307,-4,0,0,0,0
11142246,747,-8307,17,0,0,0,0
11142251,757,-8307,36,0,0,-1,0
11142256,766,-8308,52,0,-1,0,0
11142261,776,-8306,60,0,-1,0,0
11142266,787,-8306,66,0,-1,0,0
11142271,794,-8305,62,0,-1,0,0
11142276,799,-8304,51,0,-1,0,0
11142281,802,-8303,41,0,-1,0,0
11142286,796,-8301,28,0,-1,0,0
11142291,794,-8298,16,0,-1,0,0
11142296,787,-8298,6,0,-1,0,0
11142301,782,-8298,-2,0,-1,0,0
11142306,777,-8298,1,0,-1,0,0
11142311,768,-8297,5,0,-1,0,0
11142316,760,-8296,15,0,-1,0,0
11142321,752,-8294,28,0,-1,0,0
11142326,749,-8297,41,0,-1,0,0
11142331,744,-8298,53,0,-1,0,0
11142336,739,-8300,61,0,-1,0,0
11142341,735,-8300,66,0,-1,0,0
11142346,731,-8299,72,0,-1,0,0
11142351,730,-8298,83,0,-1,0,0
11142356,730,-8299,92,0,-1,0,0
11142361,737,-8302,102,0,-1,0,0
11142366,747,-8304,101,0,-1,0,0
11142371,754,-8302,100,0,-1,0,0
11142376,761,-8298,99,0,-1,0,0
11142381,764,-8300,103,0,-1,0,0
11142386,763,-8301,105,0,0,0,0
11142391,760,-8301,114,0,0,0,0
11142396,757,-8301,115,0,0,0,0
11142401,757,-8300,118,0,0,0,0
11142406,754,-8298,121,0,0,0,0
11142411,756,-8297,122,0,0,0,0
11142416,761,-8299,123,0,0,0,0
11142421,758,-8298,124,0,0,0,0
11142426,755,-8299,123,0,-1,0,0
11142431,751,-8301,127,-1,-1,0,0
11142436,745,-8301,126,-1,-1,0,0
11142441,737,-8302,126,-1,-1,0,0
11142446,727,-8304,124,-1,-1,0,0
11142451,715,-8303,115,-1,-1,0,0
11142456,703,-8302,116,-1,-1,0,0
11142461,696,-8301,110,-1,-1,0,0
11142466,696,-8302,107,-1,-1,0,0
11142471,690,-8301,100,-1,-1,0,0
11142476,693,-8301,92,-1,-1,0,0
11142481,702,-8300,86,-1,-1,0,0
11142486,707,-8300,82,-1,-1,0,0
11142491,708,-8298,78,-1,-1,0,0
11142496,709,-8298,77,-1,-1,0,0
11142501,704,-8300,82,-1,-1,-1,0
11142506,699,-8302,86,-1,-1,0,0
11142511,697,-8302,90,-1,-1,-1,0
11142516,697,-8302,91,-1,-1,0,0
11142521,697,-8301,87,-1,-1,0,0
11142526,707,-8302,89,-1,-1,-1,0
11142531,719,-8301,92,-1,-1,0,0
11142536,732,-8298,93,-1,-1,0,0
11142541,750,-8295,90,-1,-1,0,0
11142546,768,-8296,83,-1,-1,-1,0
11142551,780,-8298,77,-1,-1,0,0
11142556,789,-8302,66,-1,-2,0,0
11142561,792,-8303,59,-1,-2,0,0
11142566,787,-8304,56,-1,-3,0,0
11142571,781,-8303,56,-1,-3,0,0
11142576,771,-8304,59,-1,-4,0,0
11142581,764,-8305,64,-1,-4,0,0
11142586,755,-8305,74,-1,-4,0,0
11142591,749,-8303,76,-1,-5,0,0
11142596,749,-8302,72,-1,-5,0,0
11142601,746,-8302,69,-1,-5,0,0
11142606,742,-8301,60,-1,-6,0,0
11142611,735,-8300,51,-1,-5,0,0
11142616,730,-8299,37,-1,-5,0,0
11142621,726,-8302,18,-1,-5,0,0
11142626,716,-8304,4,-1,-4,0,0
11142631,709,-8306,-10,-1,-4,0,0
11142636,695,-8305,-14,-1,-3,-1,0
11142641,684,-8303,-17,-1,-3,0,0
11142646,678,-8301,-11,-1,-2,0,0
11142651,670,-8301,-7,-1,-1,-1,0
11142656,669,-8302,3,-1,-1,0,0
11142661,674,-8302,15,-1,-1,0,0
11142666,685,-8299,31,-1,-1,0,0
11142671,695,-8301,37,-1,-1,-1,0
11142676,707,-8301,44,-1,-1,-1,0
11142681,718,-8300,46,-1,-1,-1,0
11142686,729,-8302,42,-1,-1,-1,0
11142691,734,-8302,35,-1,-1,-1,0
11142696,736,-8303,27,-1,-1,-1,0
11142701,735,-8302,15,-1,-1,-1,0
11142706,734,-8303,14,-1,-1,0,0
11142711,732,-8304,13,-1,-1,-1,0
11142716,729,-8304,17,-1,0,-1,0
11142721,734,-8304,17,-1,0,0,0
11142726,737,-8305,17,-1,0,0,0
11142731,742,-8304,18,-1,0,0,0
11142736,745,-8300,18,-1,0,0,0
11142741,748,-8300,16,-1,0,0,0
11142746,746,-8301,17,-1,0,-1,0
11142751,740,-8303,17,-1,0,-1,0
11142756,737,-8303,12,-1,0,0,0
11142761,739,-8304,3,-1,0,0,0
11142766,743,-8306,-1,-1,0,0,0
11142771,747,-8308,-12,-1,0,0,0
11142776,753,-8307,-23,-1,0,0,0
11142781,757,-8306,-26,-1,0,0,0
11142786,756,-8306,-24,-1,0,0,0
11142791,757,-8305,-8,-1,0,0,0
11142796,753,-8304,7,-1,0,0,0
11142801,746,-8303,16,-1,0,0,0
11142806,733,-8301,31,-1,0,-1,0
11142811,721,-8301,41,-1,0,0,0
11142816,714,-8301,46,-1,0,0,0
11142821,715,-8303,52,-1,0,0,0
11142826,716,-8303,55,-1,0,0,0
11142831,718,-8305,53,-1,-1,0,0
11142836,724,-8305,51,-1,-1,0,0
11142841,728,-8303,45,-1,-1,0,0
11142846,736,-8301,29,-1,-1,0,0
11142851,741,-8298,7,0,-1,-1,0
11142856,741,-8298,-18,0,-1,0,0
11142861,739,-8297,-31,-1,-1,0,0
11142866,727,-8300,-35,-1,-1,-1,0
11142871,714,-8301,-32,-1,-1,-1,0
11142876,707,-8303,-17,-1,-1,-1,0
11142881,693,-8304,0,-1,-1,-1,0
11142886,684,-8302,16,0,-1,-1,0
11142891,680,-8301,31,0,-1,-1,0
11142896,679,-8300,39,0,-1,-1,0
11142901,683,-8302,46,0,-2,-1,0
11142906,688,-8302,52,0,-2,-1,0
11142911,696,-8301,45,0,-2,-1,0
11142916,703,-8302,34,0,-2,-1,0
11142921,711,-8305,19,0,-3,-1,0
11142926,717,-8308,6,0,-4,-1,0
11142931,718,-8309,-15,0,-4,-1,0
11142936,719,-8308,-28,0,-3,-1,0
11142941,720,-8309,-27,0,-3,-1,0
11142946,720,-8308,-31,0,-2,-1,0
11142951,717,-8305,-24,0,-2,-1,0
11142956,719,-8305,-17,0,-1,-1,0
11142961,723,-8305,-10,0,-1,-1,0
11142966,729,-8306,-6,0,-1,-1,0
11142971,737,-8306,2,0,-1,-1,0
11142976,748,-8308,10,0,-1,-1,0
11142981,759,-8309,19,0,-1,-1,0
11142986,768,-8304,32,0,-1,-1,0
11142991,772,-8302,43,0,-1,-1,0
11142996,771,-8302,48,0,-1,-1,0
11143001,768,-8302,50,0,-2,-1,0
11143006,759,-8302,50,0,-2,-1,0
11143011,749,-8301,54,0,-2,-1,0
11143016,737,-8304,54,0,-2,-1,0
11143021,726,-8305,52,0,-2,-1,0
11143026,720,-8305,53,0,-2,-1,0
11143031,716,-8305,55,0,-1,0,0
11143036,718,-8304,57,0,-1,-1,0
11143041,725,-8304,61,0,-1,-1,0
11143046,736,-8307,64,-1,-1,0,0
11143051,744,-8309,63,-1,-1,-1,0
11143056,753,-8311,65,-1,-1,-1,0
11143061,759,-8314,60,-1,-1,-1,0
11143066,759,-8312,58,-1,-1,-1,0
11143071,757,-8311,53,-1,-1,0,0
11143076,758,-8313,49,-1,-1,0,0
11143081,754,-8311,51,-1,-1,-1,0
11143086,751,-8310,46,-1,-1,-1,0
11143091,748,-8309,44,-1,-1,0,0
11143096,750,-8308,49,-1,-1,0,0
11143101,751,-8304,57,-1,-1,0,0
11143106,750,-8304,56,-1,-1,0,0
11143111,749,-8306,55,-1,-1,-1,0
11143116,749,-8306,60,-1,-1,0,0
11143121,751,-8305,59,-1,-1,0,0
11143126,749,-8304,54,-1,-1,0,0
11143131,748,-8306,51,-1,-1,-1,0
11143136,747,-8306,47,-1,-1,0,0
11143141,745,-8305,45,-1,-1,0,0
11143146,745,-8301,50,-1,-1,0,0
11143151,745,-8299,48,-1,-1,0,0
11143156,745,-8294,45,-1,-1,-1,0
11143161,746,-8296,39,-1,-1,0,0
11143166,746,-8299,36,-1,-1,0,0
11143171,743,-8300,30,-1,-2,-1,0
11143176,740,-8300,25,-1,-2,0,0
11143181,734,-8304,18,-1,-2,-1,0
11143186,724,-8306,18,-1,-2,-1,0
11143191,712,-8308,23,-1,-2,-1,0
11143196,704,-8305,15,-1,-2,-1,0
11143201,699,-8305,13,-1,-1,-1,0
11143206,694,-8305,8,0,-1,-1,0
11143211,692,-8305,8,-1,-1,-1,0
11143216,697,-8305,4,-1,-1,-1,0
11143221,704,-8304,5,-1,-1,-1,0
11143226,710,-8307,5,-1,-1,-1,0
11143231,717,-8306,8,-1,-1,-1,0
11143236,725,-8304,10,-1,-1,-1,0
11143241,734,-8299,11,-1,-1,-1,0
11143246,740,-8300,7,0,-1,-1,0
11143251,743,-8300,7,0,-1,-1,0
11143256,746,-8300,12,0,-1,-1,0
11143261,748,-8301,14,0,-1,-1,0
11143266,741,-8297,18,-1,-1,-1,0
11143271,744,-8301,16,0,0,-1,0
11143276,744,-8302,15,0,-1,0,0
11143281,740,-8303,21,0,-1,0,0
11143286,740,-8301,14,0,-1,-1,0
11143291,746,-8300,12,0,-1,-1,0
11143296,752,-8298,11,0,-1,-1,0
11143301,755,-8300,14,0,-1,-1,0
11143306,756,-8301,25,-1,-1,-1,0
11143311,757,-8303,33,-1,-1,-1,0
11143316,752,-8302,44,-1,-1,-1,0
11143321,750,-8302,54,0,-1,-1,0
11143326,746,-8301,64,-1,-1,-1,0
11143331,744,-8303,73,-1,-1,-1,0
11143336,749,-8303,75,-1,-1,-1,0
11143341,750,-8302,80,-1,-1,-1,0
11143346,755,-8298,77,-1,-1,-1,0
11143351,756,-8297,72,-1,-2,-1,0
11143356,755,-8298,65,-1,-2,-1,0
11143361,757,-8297,56,-1,-2,-1,0
11143366,756,-8294,44,-1,-2,-1,0
11143371,757,-8294,33,-1,-2,-1,0
11143376,759,-8294,25,-1,-2,-1,0
11143381,754,-8294,21,-1,-2,-1,0
11143386,748,-8297,17,-1,-1,0,0
11143391,742,-8299,12,-1,-1,-1,0
11143396,741,-8298,15,-1,-1,-1,0
11143401,746,-8300,14,-1,-1,0,0
11143406,752,-8300,11,-1,-1,0,0
11143411,759,-8299,16,-1,-1,0,0
11143416,763,-8300,25,-1,-1,0,0
11143421,768,-8301,30,0,-1,0,0
11143426,773,-8301,26,-1,-1,0,0
11143431,774,-8302,26,-1,-1,0,0
11143436,771,-8304,28,-1,-1,0,0
11143441,768,-8303,30,-1,-1,-1,0
11143446,764,-8302,32,-1,-1,0,0
11143451,760,-8303,35,-1,-1,0,0
11143456,756,-8300,38,-1,-1,0,0
11143461,755,-8300,38,-1,-1,0,0
11143466,760,-8301,32,0,-1,0,0
11143471,764,-8301,25,0,-1,0,0
11143476,770,-8302,18,0,-1,0,0
11143481,774,-8301,13,0,-1,0,0
11143486,779,-8304,4,0,-1,0,0
11143491,778,-8308,-3,0,-1,0,0
11143496,776,-8307,-5,0,-1,0,0
11143501,769,-8307,-3,-1,-1,0,0
11143506,763,-8307,7,0,-1,0,0
11143511,754,-8307,23,-1,-1,0,0
11143516,745,-8306,40,-1,-1,0,0
11143521,740,-8307,55,0,-1,0,0
11143526,742,-8307,63,0,-2,0,0
11143531,745,-8307,69,0,-2,0,0
11143536,751,-8311,67,0,-3,0,0
11143541,758,-8310,62,0,-3,0,0
11143546,763,-8308,49,0,-4,0,0
11143551,762,-8306,33,0,-4,0,0
11143556,760,-8306,15,0,-3,0,0
11143561,753,-8306,-2,0,-3,0,0
11143566,746,-8306,-11,0,-2,0,0
11143571,741,-8308,-15,0,-2,0,0
11143576,733,-8306,-15,0,-2,0,0
11143581,726,-8306,-8,-1,-1,0,8
11143586,720,-8307,8,-1,-1,0,8
11143591,717,-8309,34,-1,-1,0,8
11143596,713,-8308,60,0,-1,0,8
11143601,713,-8309,75,0,-1,0,8
11143606,717,-8308,79,0,-1,0,8
11143611,717,-8305,78,0,-1,0,8
11143616,719,-8304,79,0,-1,0,8
11143621,720,-8301,76,-1,-1,0,8
11143626,716,-8302,72,-1,-1,0,8
11143631,716,-8303,56,0,-1,-1,8
11143636,720,-8307,42,0,-1,-1,8
11143641,723,-8309,31,0,-1,-1,8
11143646,720,-8308,20,0,-1,-1,8
11143651,721,-8308,11,-1,-1,-1,8
11143656,720,-8310,14,-1,-1,-1,8
11143661,716,-8309,30,-1,0,-1,8
11143666,713,-8309,48,-1,0,-1,8
11143671,711,-8310,70,-1,0,-1,8
11143676,708,-8310,84,-1,0,-1,8
11143681,709,-8309,94,-1,0,-1,8
11143686,712,-8307,100,-1,-1,-1,8
11143691,714,-8309,98,-1,-1,-1,8
11143696,715,-8310,89,-1,-1,-1,8
11143701,711,-8314,78,-1,-1,-1,8
11143706,707,-8313,77,-1,-1,-1,8
11143711,699,-8311,79,-1,-1,-1,8
11143716,688,-8312,78,-1,-1,-1,8
11143721,675,-8313,76,-1,-1,-1,8
11143726,663,-8313,72,-1,-1,-1,8
11143731,652,-8309,69,-1,-1,-1,8
11143736,648,-8307,65,-1,0,-1,8
11143741,650,-8307,64,-1,0,-1,8
11143746,653,-8305,62,-1,-1,-1,8
11143751,658,-8304,58,-1,-1,-1,8
11143756,659,-8306,52,-1,-1,-1,8
11143761,655,-8306,51,-1,-1,-1,8
11143766,648,-8309,53,-1,-1,-1,8
11143771,636,-8309,55,-1,-1,-1,8
11143776,622,-8309,58,-1,-1,-1,8
11143781,609,-8309,63,-1,-1,-1,8
11143786,600,-8310,71,-1,-1,-1,8
11143791,597,-8311,77,-1,-2,-1,8
11143796,592,-8312,81,-1,-2,-1,8
11143801,589,-8312,90,-1,-2,-1,8
11143806,585,-8306,102,-1,-2,-2,8
11143811,581,-8304,115,-1,-2,-2,8
11143816,580,-8305,130,-1,-2,-2,8
11143821,575,-8309,146,-1,-2,-2,8
11143826,569,-8310,161,-1,-2,-2,8
11143831,559,-8311,177,-1,-2,-2,8
11143836,549,-8313,190,-1,-2,-2,8
11143841,537,-8317,201,-1,-2,-2,8
11143846,526,-8320,203,-1,-2,-2,8
11143851,512,-8319,196,-1,-2,-2,8
11143856,496,-8320,185,-1,-3,-2,8
11143861,484,-8321,169,-1,-3,-2,8
11143866,481,-8319,149,-1,-2,-2,8
11143871,487,-8317,127,-1,-2,-2,8
11143876,500,-8314,113,-1,-2,-3,8
11143881,509,-8314,109,-1,-1,-3,8
11143886,519,-8313,106,-2,-1,-3,8
11143891,520,-8312,107,-1,-1,-3,8
11143896,514,-8312,100,-1,-2,-3,8
11143901,507,-8312,87,-1,-2,-3,8
11143906,494,-8310,78,-1,-2,-3,8
11143911,480,-8310,68,-1,-2,-3,8
11143916,466,-8312,58,-1,-2,-3,8
11143921,456,-8311,50,-1,-1,-3,8
11143926,454,-8311,45,-2,-1,-4,8
11143931,464,-8312,40,-2,-1,-4,8
11143936,479,-8314,32,-1,0,-4,8
11143941,502,-8313,19,-1,0,-4,8
11143946,523,-8312,3,-1,0,-4,8
11143951,546,-8311,-10,-1,0,-4,8
11143956,565,-8311,-30,-1,0,-4,8
11143961,591,-8308,-61,-1,0,-4,8
11143966,633,-8306,-89,-1,1,-4,8
11143971,674,-8305,-122,-1,1,-4,8
11143976,729,-8306,-164,-1,2,-4,8
11143981,805,-8305,-208,-1,4,-4,8
11143986,890,-8302,-263,-1,6,-3,8
11143991,990,-8297,-321,-1,8,-3,8
11143996,1113,-8294,-373,-1,10,-3,8
11144001,1237,-8287,-436,0,12,-3,8
11144006,1372,-8277,-505,0,16,-2,8
11144011,1524,-8275,-581,0,20,-2,8
11144016,1688,-8273,-667,0,23,-1,8
11144021,1864,-8272,-750,1,26,-1,8
11144026,2067,-8269,-826,1,28,0,8
11144031,2290,-8265,-894,1,30,1,8
11144036,2520,-8254,-939,2,31,2,8
11144041,2753,-8245,-970,2,32,3,8
11144046,2989,-8239,-984,2,35,4,8
11144051,3221,-8232,-963,3,40,5,8
11144056,3472,-8225,-940,3,45,7,8
11144061,3727,-8217,-919,3,49,9,8
11144066,3969,-8212,-884,4,54,11,8
11144071,4204,-8208,-835,3,58,13,8
11144076,4424,-8202,-754,3,62,15,8
11144081,4631,-8194,-655,3,65,17,8
11144086,4902,-8178,-545,2,67,19,8
11144091,5183,-8164,-371,2,73,20,8
11144096,5434,-8147,-138,1,80,19,8
11144101,5731,-8125,74,0,81,19,8
11144106,6308,-8119,231,0,83,22,8
11144111,6727,-8129,426,0,88,26,8
11144116,6927,-8113,600,0,72,29,8
11144121,7090,-8084,752,0,59,31,8
11144126,7223,-8049,880,0,59,32,8
11144131,7274,-8009,985,-1,60,33,8
11144136,7237,-7965,1074,-2,53,34,8
11144141,7143,-7920,1133,-2,41,35,8
11144146,6934,-7876,1188,-3,30,37,8
11144151,6636,-7831,1233,-3,19,39,8
11144156,6351,-7785,1273,-4,10,41,8
11144161,6071,-7736,1306,-4,7,42,8
11144166,5750,-7691,1349,-5,6,44,8
11144171,5405,-7649,1400,-5,4,44,8
11144176,5052,-7605,1429,-6,3,45,8
11144181,4635,-7568,1454,-6,5,45,8
11144186,4118,-7540,1481,-7,4,45,8
11144191,3588,-7516,1469,-9,1,42,8
11144196,3249,-7488,1373,-11,1,40,8
11144201,2731,-7468,1522,-12,7,40,8
11144206,1977,-7448,1834,-12,0,40,8
11144211,1123,-7435,2104,-12,-18,40,8
11144216,299,-7425,2347,-12,-24,41,8
11144221,-755,-7429,2724,-11,-19,42,8
11144226,-1613,-7440,2873,-10,-19,43,8
11144231,-2295,-7464,2902,-11,-10,42,8
11144236,-2782,-7496,2887,-12,2,41,8
11144241,-3045,-7528,2784,-14,5,39,8
11144246,-3264,-7555,2759,-16,0,37,8
11144251,-3496,-7575,2763,-18,-11,34,8
11144256,-3873,-7601,2858,-19,-24,31,8
11144261,-4345,-7629,3022,-19,-39,29,8
11144266,-4985,-7643,3171,-20,-49,27,8
11144271,-5835,-7680,3258,-20,-59,25,8
11144276,-6606,-7725,3347,-20,-72,22,8
11144281,-7464,-7779,3369,-21,-77,20,8
11144286,-8309,-7830,3371,-22,-82,18,8
11144291,-9018,-7876,3392,-23,-83,15,8
11144296,-9606,-7918,3442,-25,-75,12,8
11144301,-10043,-7951,3543,-26,-65,9,8
11144306,-10324,-7972,3628,-27,-58,6,8
11144311,-10493,-7980,3668,-28,-52,2,8
11144316,-10598,-7988,3655,-28,-49,-1,8
11144321,-10609,-7987,3575,-29,-51,-4,8
11144326,-10563,-7986,3435,-30,-57,-7,8
11144331,-10503,-7976,3234,-31,-64,-9,8
11144336,-10376,-7954,2974,-32,-73,-12,8
11144341,-10211,-7926,2668,-32,-79,-14,8
11144346,-10024,-7894,2315,-32,-82,-16,8
11144351,-9765,-7864,1902,-32,-82,-18,8
11144356,-9465,-7834,1472,-33,-82,-21,8
11144361,-9150,-7805,1038,-33,-84,-23,8
11144366,-8814,-7773,605,-33,-89,-25,8
11144371,-8499,-7742,195,-33,-97,-26,8
11144376,-8233,-7712,-187,-33,-105,-28,8
11144381,-8005,-7684,-569,-33,-111,-29,8
11144386,-7821,-7656,-955,-32,-113,-31,8
11144391,-7674,-7628,-1350,-31,-111,-32,8
11144396,-7548,-7604,-1750,-31,-108,-34,8
11144401,-7434,-7579,-2154,-30,-104,-35,8
11144406,-7316,-7557,-2549,-30,-98,-36,8
11144411,-7167,-7534,-2926,-29,-92,-37,8
11144416,-6979,-7513,-3242,-29,-86,-38,8
11144421,-6756,-7490,-3502,-29,-80,-39,8
11144426,-6483,-7463,-3707,-28,-74,-40,8
11144431,-6190,-7435,-3864,-27,-69,-42,8
11144436,-5882,-7408,-3983,-26,-64,-43,8
11144441,-5569,-7383,-4090,-25,-61,-44,8
11144446,-5277,-7359,-4199,-24,-60,-45,8
11144451,-5003,-7345,-4306,-24,-59,-45,8
11144456,-4730,-7329,-4426,-23,-57,-46,8
11144461,-4448,-7313,-4557,-22,-55,-46,8
11144466,-4146,-7300,-4692,-21,-52,-47,8
11144471,-3837,-7285,-4852,-20,-49,-47,8
11144476,-3506,-7270,-5030,-18,-44,-47,8
11144481,-3153,-7260,-5181,-17,-38,-48,8
11144486,-2800,-7251,-5307,-16,-32,-48,8
11144491,-2432,-7237,-5457,-15,-27,-48,8
11144496,-2050,-7231,-5630,-14,-21,-48,8
11144501,-1659,-7228,-5735,-12,-15,-48,8
11144506,-1283,-7237,-5802,-11,-10,-47,8
11144511,-910,-7241,-5837,-10,-6,-47,8
11144516,-526,-7241,-5814,-9,-4,-47,8
11144521,-162,-7243,-5721,-8,-2,-47,8
11144526,179,-7251,-5595,-7,-2,-47,8
11144531,511,-7259,-5455,-5,-1,-46,8
11144536,828,-7270,-5348,-4,-1,-46,8
11144541,1104,-7295,-5229,-2,-1,-45,8
11144546,1322,-7308,-5019,-2,-1,-44,8
11144551,1507,-7316,-4904,-1,1,-44,8
11144556,1752,-7310,-5001,0,8,-43,8
11144561,2074,-7322,-5256,4,18,-41,8
11144566,2358,-7347,-5458,8,21,-38,8
11144571,2529,-7379,-5803,9,15,-36,8
11144576,2765,-7396,-6210,8,11,-35,8
11144581,3089,-7425,-6557,9,19,-33,8
11144586,3454,-7440,-6687,10,36,-32,8
11144591,3882,-7446,-6677,11,52,-31,8
11144596,4373,-7456,-6541,13,69,-31,8
11144601,4869,-7466,-6424,16,84,-31,8
11144606,5272,-7482,-6335,18,93,-30,8
11144611,5571,-7504,-6272,20,91,-29,8
11144616,5769,-7527,-6236,22,82,-27,8
11144621,5835,-7539,-6144,23,71,-24,8
11144626,5836,-7554,-6023,24,66,-22,8
11144631,5813,-7563,-5815,25,71,-20,8
11144636,5813,-7571,-5532,26,84,-18,8
11144641,5863,-7578,-5260,28,100,-16,8
11144646,5924,-7580,-4985,29,113,-14,8
11144651,6015,-7583,-4740,30,119,-12,8
11144656,6138,-7589,-4519,31,122,-10,8
11144661,6257,-7596,-4288,32,125,-8,8
11144666,6357,-7597,-4047,32,127,-6,8
11144671,6413,-7595,-3755,32,129,-4,8
11144676,6424,-7590,-3428,33,129,-2,8
11144681,6547,-7588,-3067,33,129,0,8
11144686,6652,-7585,-2665,34,133,3,8
11144691,6721,-7579,-2296,34,135,6,8
11144696,6797,-7572,-1951,34,132,8,8
11144701,6859,-7569,-1585,34,129,9,8
11144706,6879,-7567,-1241,34,123,11,8
11144711,6780,-7564,-928,33,116,12,8
11144716,6594,-7557,-652,33,107,14,8
11144721,6372,-7560,-386,33,97,15,8
11144726,6142,-7565,-91,32,91,17,8
11144731,5901,-7575,227,31,89,19,8
11144736,5662,-7582,564,30,90,21,8
11144741,5474,-7580,908,29,94,23,8
11144746,5356,-7587,1224,27,98,24,8
11144751,5264,-7593,1503,25,100,25,8
11144757,5183,-7600,1756,24,97,26,8
11144761,5100,-7599,1997,22,92,27,8
11144767,5003,-7601,2243,21,88,28,8
11144771,4883,-7579,2430,20,84,29,8
11144776,4756,-7574,2613,21,81,30,8
11144782,4617,-7589,3035,21,79,32,8
11144786,4411,-7596,3462,19,74,33,8
11144791,4204,-7595,3778,17,68,34,8
11144796,4020,-7596,4033,16,66,35,8
11144801,3850,-7598,4256,15,67,36,8
11144807,3704,-7602,4411,14,64,36,8
11144812,3574,-7607,4518,13,59,37,8
11144816,3448,-7614,4581,11,53,38,8
11144822,3313,-7621,4615,10,49,38,8
11144827,3176,-7625,4646,8,45,39,8
11144831,3054,-7627,4677,6,41,39,8
11144837,2934,-7626,4714,5,37,40,8
11144841,2825,-7621,4736,4,33,40,8
11144847,2740,-7611,4706,3,27,41,8
11144852,2653,-7605,4664,2,21,41,8
11144856,2551,-7595,4607,1,13,41,8
11144861,2463,-7588,4509,0,4,42,8
11144866,2336,-7596,4463,-1,-4,42,8
11144871,2091,-7601,4604,-3,-13,41,8
11144877,1804,-7593,4614,-5,-22,41,8
11144881,1458,-7590,4653,-6,-28,40,8
11144887,1022,-7585,4799,-6,-31,39,8
11144891,550,-7575,4838,-7,-35,37,8
11144897,88,-7576,4826,-7,-35,37,8
11144902,-377,-7584,4819,-7,-34,37,8
11144907,-803,-7594,4768,-8,-36,37,8
11144912,-1169,-7609,4700,-9,-39,36,8
11144916,-1481,-7627,4605,-10,-39,36,8
11144921,-1771,-7644,4491,-11,-37,35,8
11144926,-2027,-7659,4388,-12,-36,34,8
11144931,-2241,-7675,4285,-13,-34,33,8
11144936,-2455,-7690,4195,-14,-32,32,8
11144941,-2682,-7706,4135,-15,-32,31,8
11144946,-2924,-7721,4102,-15,-33,30,8
11144952,-3182,-7738,4083,-16,-36,29,8
11144957,-3447,-7754,4060,-17,-40,28,8
11144962,-3711,-7773,4040,-18,-43,26,8
11144967,-3981,-7789,4017,-18,-45,25,8
11144971,-4227,-7809,3970,-19,-49,24,8
11144977,-4476,-7830,3894,-20,-52,22,8
11144982,-4749,-7850,3794,-20,-57,21,8
11144987,-5001,-7866,3658,-21,-61,19,8
11144992,-5220,-7884,3516,-21,-61,18,8
11144997,-5403,-7905,3356,-22,-59,17,8
11145001,-5534,-7923,3165,-23,-56,16,8
11145007,-5689,-7933,2942,-23,-52,14,8
11145012,-5862,-7951,2662,-23,-50,11,8
11145017,-6013,-7972,2424,-23,-51,9,8
11145021,-6218,-7994,2205,-24,-50,7,8
11145026,-6426,-8014,1971,-24,-53,6,8
11145032,-6614,-8028,1789,-25,-53,5,8
11145037,-6738,-8039,1637,-25,-48,3,8
11145041,-6791,-8046,1514,-25,-38,2,8
11145046,-6757,-8049,1419,-25,-27,0,8
11145051,-6631,-8048,1292,-25,-19,-2,8
11145056,-6470,-8046,1155,-25,-16,-4,8
11145061,-6281,-8044,989,-25,-18,-6,8
11145067,-6086,-8042,783,-25,-23,-7,8
11145072,-5912,-8042,561,-24,-30,-9,8
11145077,-5740,-8038,296,-24,-36,-10,8
11145081,-5576,-8036,-2,-23,-42,-11,8
11145086,-5424,-8034,-297,-23,-46,-12,8
11145091,-5267,-8033,-602,-22,-47,-13,8
11145097,-5118,-8033,-918,-22,-46,-14,8
11145102,-4969,-8035,-1209,-21,-42,-15,8
11145106,-4798,-8036,-1488,-21,-39,-16,8
11145111,-4629,-8036,-1740,-20,-37,-17,8
11145117,-4466,-8036,-1966,-19,-36,-18,8
11145122,-4301,-8034,-2156,-19,-35,-19,8
11145126,-4140,-8034,-2310,-18,-34,-20,8
11145131,-3981,-8030,-2443,-17,-32,-21,8
11145136,-3818,-8027,-2554,-16,-32,-21,8
11145142,-3670,-8027,-2640,-15,-32,-22,8
11145147,-3535,-8026,-2698,-15,-32,-23,8
11145152,-3409,-8026,-2762,-14,-30,-24,8
11145156,-3289,-8024,-2815,-13,-26,-24,8
11145161,-3171,-8024,-2866,-12,-21,-25,8
11145166,-3033,-8023,-2903,-12,-16,-25,8
11145171,-2883,-8020,-2918,-11,-13,-26,8
11145177,-2724,-8019,-2896,-11,-10,-26,8
11145182,-2546,-8014,-2834,-10,-6,-27,8
11145187,-2345,-8009,-2729,-10,-1,-27,8
11145192,-2121,-8000,-2587,-9,3,-27,8
11145196,-1879,-7992,-2430,-9,5,-28,8
11145201,-1628,-7989,-2271,-8,5,-28,8
11145207,-1373,-7985,-2126,-7,3,-28,8
11145212,-1122,-7980,-2012,-7,1,-28,8
11145217,-888,-7978,-1920,-6,-1,-28,8
11145221,-660,-7977,-1868,-6,-1,-28,8
11145227,-448,-7977,-1765,-6,0,-28,8
11145232,-242,-7981,-1678,-6,3,-27,8
11145236,-12,-7980,-1684,-5,7,-27,8
11145241,257,-7976,-1713,-4,12,-26,8
11145247,526,-7982,-1700,-3,17,-25,8
11145252,813,-7989,-1693,-3,18,-24,8
11145257,1110,-7997,-1706,-2,17,-23,8
11145262,1411,-8005,-1698,-2,15,-22,8
11145267,1695,-8016,-1637,-2,13,-21,8
11145271,1967,-8024,-1548,-2,11,-21,8
11145277,2207,-8029,-1437,-2,10,-20,8
11145282,2418,-8033,-1321,-2,8,-18,8
11145287,2606,-8044,-1234,-1,7,-17,8
11145292,2776,-8054,-1169,-1,5,-16,8
11145297,2951,-8067,-1138,0,2,-15,8
11145302,3085,-8080,-1104,0,1,-15,8
11145307,3220,-8093,-1012,-1,1,-16,8
11145312,3360,-8104,-934,-1,0,-16,8
11145317,3492,-8110,-901,-1,0,-15,8
11145322,3579,-8118,-867,0,-1,-13,8
11145327,3610,-8133,-815,0,-2,-12,8
11145332,3611,-8148,-760,0,-3,-11,8
11145337,3622,-8156,-748,0,-2,-11,8
11145342,3652,-8164,-765,0,0,-10,8
11145347,3680,-8173,-782,1,0,-9,8
11145352,3699,-8183,-777,1,-1,-7,8
11145357,3718,-8190,-769,1,-2,-6,8
11145362,3754,-8194,-776,1,-1,-6,8
11145367,3765,-8200,-760,1,-1,-5,8
11145372,3739,-8203,-712,1,-2,-4,8
11145377,3684,-8209,-663,1,-5,-4,8
11145382,3587,-8214,-606,1,-7,-3,8
11145387,3455,-8224,-565,2,-10,-3,8
11145392,3291,-8229,-542,2,-13,-2,8
11145396,3114,-8232,-520,2,-16,-1,8
11145402,2922,-8240,-522,2,-16,-1,8
11145407,2722,-8249,-531,2,-15,0,8
11145412,2540,-8258,-546,2,-13,0,8
11145417,2380,-8262,-556,2,-11,0,8
11145422,2237,-8268,-564,2,-9,1,8
11145427,2099,-8269,-576,2,-7,1,8
11145432,1968,-8271,-592,3,-5,1,8
11145437,1844,-8271,-607,3,-4,1,8
11145442,1722,-8271,-631,3,-2,1,8
11145447,1597,-8270,-662,3,-1,1,8
11145452,1471,-8271,-685,3,0,1,8
11145457,1345,-8275,-697,3,0,1,8
11145462,1222,-8278,-698,3,1,1,8
11145467,1110,-8279,-685,3,1,1,8
11145472,1009,-8281,-652,3,2,1,8
11145477,920,-8281,-598,3,3,1,8
11145482,843,-8286,-536,3,4,1,8
11145487,776,-8291,-472,3,5,1,8
11145492,716,-8293,-405,3,6,0,8
11145497,665,-8295,-345,3,6,0,8
11145502,616,-8298,-287,3,6,0,8
11145507,570,-8298,-243,3,7,0,8
11145512,528,-8298,-205,3,6,0,8
11145517,492,-8297,-169,3,6,0,8
11145522,458,-8297,-139,3,6,0,8
11145527,434,-8300,-107,3,7,0,8
11145532,410,-8301,-77,3,8,0,8
11145537,398,-8305,-42,3,9,0,8
11145542,396,-8308,-4,3,10,0,8
11145547,399,-8309,34,3,10,0,8
11145552,411,-8310,75,3,10,0,8
11145557,432,-8309,118,3,9,0,8
11145562,454,-8306,165,2,8,0,8
11145567,474,-8305,203,2,7,0,8
11145572,490,-8303,240,2,6,0,8
11145577,507,-8306,272,2,5,0,8
11145582,528,-8308,300,2,4,0,0
11145587,546,-8309,310,2,3,0,0
11145592,560,-8308,319,2,1,0,0
11145597,567,-8308,316,2,-1,0,0
11145602,572,-8303,303,2,-2,0,0
11145607,574,-8302,284,2,-2,0,0
11145612,568,-8301,258,2,-2,0,0
11145617,552,-8303,232,2,-2,0,0
11145622,535,-8306,203,2,-2,-1,0
11145627,516,-8307,178,1,-1,-1,0
11145632,496,-8306,161,1,-1,-1,0
11145637,483,-8306,143,1,0,-1,0
11145642,480,-8305,135,1,0,-1,0
11145647,482,-8304,132,1,1,-1,0
11145652,489,-8303,134,1,1,-1,0
11145657,501,-8302,137,1,1,-1,0
11145662,514,-8301,140,1,2,-1,0
11145667,530,-8303,150,1,2,-1,0
11145672,548,-8305,163,1,2,-1,0
11145677,564,-8303,182,1,2,-1,0
11145682,581,-8302,199,1,1,-1,0
11145687,591,-8301,212,1,1,-1,0
11145692,595,-8299,226,1,0,-1,0
11145697,595,-8295,244,1,-1,-1,0
11145702,590,-8292,250,1,-1,-1,0
11145707,582,-8288,250,0,-1,-1,0
11145712,573,-8287,245,0,-1,-1,0
11145717,568,-8292,234,0,-1,-1,0
11145722,566,-8294,216,0,-2,-1,0
11145727,566,-8295,198,0,-2,-1,0
11145732,568,-8297,175,0,-2,-1,0
11145737,574,-8299,152,0,-1,-1,0
11145742,583,-8301,122,0,-1,-1,0
11145747,593,-8303,94,0,-1,-1,0
11145752,601,-8302,57,0,-1,-1,0
11145757,610,-8301,22,0,-1,-1,0
11145762,612,-8302,-8,0,-1,-1,0
11145767,615,-8304,-37,0,-1,-1,0
11145772,615,-8305,-62,0,-1,-1,0
11145777,611,-8305,-75,0,-1,-1,0
11145782,604,-8307,-87,0,-1,-1,0
11145787,595,-8309,-84,0,-1,-2,0
11145792,589,-8312,-72,0,0,-1,0
11145797,588,-8312,-48,0,0,-2,0
11145802,590,-8311,-16,0,0,-1,0
11145807,595,-8312,11,0,-1,-2,0
11145812,602,-8315,34,0,-1,-2,0
11145817,609,-8319,55,0,-1,-2,0
11145822,616,-8318,71,0,-1,-2,0
11145827,623,-8317,86,0,-1,-2,0
11145832,628,-8315,95,0,-1,-2,0
11145837,633,-8314,103,0,-2,-2,0
11145842,643,-8313,110,0,-2,-2,0
11145847,655,-8310,112,0,-2,-2,0
11145852,664,-8307,112,0,-2,-2,0
11145857,678,-8304,107,0,-2,-2,0
11145862,690,-8305,101,0,-1,-2,0
11145867,700,-8306,97,0,-1,-2,0
11145872,712,-8304,90,0,-1,-2,0
11145877,726,-8303,97,0,-1,-2,0
11145882,738,-8301,104,0,-1,-2,0
11145887,755,-8302,110,0,0,-2,0
11145892,771,-8302,118,0,0,-2,0
11145897,791,-8301,118,0,0,-1,0
11145902,813,-8298,110,0,0,-1,0
11145907,836,-8298,98,0,-1,-1,0
11145912,853,-8299,80,0,-1,-1,0
11145917,868,-8297,61,0,-1,-1,0
11145922,882,-8298,41,0,-1,-1,0
11145927,887,-8300,24,0,0,-1,0
11145932,889,-8301,11,0,0,-1,0
11145937,894,-8300,-3,0,0,-1,0
11145942,900,-8299,-11,0,0,-1,0
11145947,904,-8300,-16,0,0,-1,0
11145952,906,-8299,-11,0,0,-1,0
11145957,912,-8298,-7,0,0,-1,0
11145962,920,-8298,3,0,0,-1,0
11145967,924,-8298,9,0,-1,-1,0
11145972,927,-8297,8,0,-1,0,0
11145977,934,-8298,8,0,-1,0,0
11145982,935,-8300,4,0,-1,0,0
11145987,940,-8299,-9,0,-1,0,0
11145992,942,-8299,-19,0,-1,0,0
11145997,944,-8300,-35,0,-1,0,0
11146002,943,-8299,-59,0,-1,0,0
11146007,937,-8299,-83,0,-1,0,0
11146012,926,-8300,-104,0,-1,0,0
11146017,917,-8302,-116,0,-1,0,0
11146022,905,-8302,-125,0,-1,0,0
11146027,892,-8301,-136,0,-1,0,0
11146032,876,-8299,-137,0,-1,0,0
11146037,861,-8298,-134,0,0,0,0
11146042,845,-8298,-129,0,0,0,0
11146047,830,-8300,-107,0,0,0,0
11146052,814,-8302,-89,0,0,0,0
11146057,803,-8300,-77,0,0,0,0
11146062,792,-8300,-60,0,0,0,0
11146067,784,-8300,-38,0,0,0,0
11146072,777,-8300,-22,0,0,0,0
11146077,771,-8301,-11,0,0,0,0
11146082,764,-8303,-5,0,0,0,0
11146087,755,-8304,1,0,0,0,0
11146092,749,-8306,4,0,0,0,0
11146097,740,-8306,6,0,0,0,0
11146102,730,-8305,9,0,0,0,0
11146107,719,-8306,12,0,0,0,0
11146112,704,-8306,16,0,0,0,0
11146117,690,-8307,16,0,0,0,0
11146122,677,-8309,19,0,0,0,0
11146127,665,-8308,30,0,0,0,0
11146132,657,-8307,48,0,0,0,0
11146137,651,-8306,68,0,0,0,0
11146142,649,-8306,81,0,0,0,0
11146147,648,-8306,98,0,0,0,0
11146152,650,-8305,114,0,0,0,0
11146157,650,-8305,125,0,-1,0,0
11146162,653,-8303,130,0,-1,0,0
11146167,655,-8301,127,0,-1,0,0
11146172,657,-8301,117,0,-1,0,0
11146177,658,-8299,101,0,-1,0,0
11146182,662,-8299,91,0,-1,0,0
11146187,664,-8298,75,-1,-1,0,0
11146192,667,-8300,62,-1,-1,0,0
11146197,675,-8302,59,-1,-1,0,0
