millis,ax,ay,az,gx,gy,gz,label
15234,381,-8197,-290,-2,-2,0,0
15239,380,-8199,-290,-2,-2,0,0
15244,382,-8200,-286,-2,-2,0,0
15249,387,-8199,-281,-2,-2,0,0
15254,397,-8198,-277,-2,-2,0,0
15259,404,-8198,-279,-2,-2,0,0
15264,409,-8197,-277,-2,-2,0,0
15268,414,-8196,-275,-2,-2,0,0
15273,417,-8193,-275,-2,-2,0,0
15278,422,-8190,-278,-2,-2,0,0
15283,420,-8189,-284,-2,-2,0,0
15288,414,-8188,-289,-2,-2,0,0
15293,402,-8190,-294,-2,-2,0,0
15298,394,-8193,-300,-2,-2,0,0
15303,387,-8194,-306,-2,-2,0,0
15308,381,-8193,-310,-2,-2,0,0
15313,383,-8192,-312,-2,-2,0,0
15318,389,-8194,-314,-2,-1,0,0
15323,395,-8195,-320,-2,-1,0,0
15328,398,-8196,-322,-2,-1,0,0
15333,395,-8198,-321,-2,-1,0,0
15338,391,-8199,-325,-2,-1,0,0
15343,386,-8197,-325,-2,-1,0,0
15348,385,-8200,-327,-2,-1,0,0
15353,385,-8198,-328,-2,-1,0,0
15358,385,-8198,-330,-2,-1,0,0
15363,390,-8196,-330,-2,-1,0,0
15368,392,-8197,-328,-2,-1,0,0
15373,392,-8195,-322,-2,-1,0,0
15378,390,-8196,-324,-2,-1,0,0
15383,380,-8195,-318,-2,-1,0,0
15388,367,-8196,-315,-2,-1,0,0
15393,355,-8198,-309,-2,-1,0,0
15398,347,-8199,-308,-2,-1,0,0
15403,342,-8200,-305,-2,-1,0,0
15408,337,-8201,-301,-2,-1,0,0
15413,340,-8200,-298,-2,-1,0,0
15418,344,-8200,-296,-2,-1,0,0
15423,350,-8199,-291,-2,-1,0,0
15428,356,-8198,-284,-2,-1,0,0
15433,355,-8196,-276,-2,-1,0,0
15438,358,-8196,-272,-2,-1,0,0
15444,357,-8197,-268,-2,-1,0,0
15449,356,-8196,-268,-2,-1,0,0
15454,359,-8199,-266,-2,-1,0,0
15459,363,-8199,-261,-2,-1,0,0
15464,372,-8199,-262,-2,-1,0,0
15469,375,-8197,-257,-2,-1,0,0
15475,377,-8195,-254,-2,-1,0,0
15479,377,-8193,-255,-2,-1,0,0
15485,373,-8194,-252,-2,-1,0,0
15490,367,-8193,-250,-2,-1,0,0
15496,359,-8193,-250,-2,-1,0,0
15500,353,-8195,-245,-2,-2,0,0
15506,352,-8197,-245,-2,-2,0,0
15511,353,-8197,-246,-2,-1,0,0
15516,358,-8195,-246,-2,-2,0,0
15522,365,-8192,-246,-2,-2,0,0
15527,373,-8195,-248,-2,-2,0,0
15532,377,-8195,-252,-2,-2,0,0
15537,380,-8196,-253,-2,-2,0,0
15543,382,-8194,-253,-2,-2,0,0
15548,384,-8193,-258,-2,-2,0,0
15553,387,-8192,-261,-2,-2,0,0
15558,387,-8194,-267,-2,-2,0,0
15563,388,-8194,-270,-2,-2,0,0
15568,391,-8194,-271,-2,-2,0,0
15573,392,-8194,-272,-2,-2,0,0
15578,388,-8193,-277,-2,-2,0,0
15583,384,-8192,-278,-2,-2,0,0
15589,379,-8194,-278,-2,-2,0,0
15594,378,-8196,-285,-2,-2,0,0
15599,374,-8195,-288,-2,-2,0,0
15604,371,-8194,-288,-2,-2,0,0
15609,371,-8195,-292,-2,-1,0,0
15615,374,-8194,-299,-2,-1,0,0
15620,377,-8194,-299,-2,-1,0,0
15625,382,-8193,-298,-2,-1,0,0
15630,387,-8193,-301,-2,-2,0,0
15636,393,-8190,-306,-2,-2,0,0
15641,394,-8191,-304,-2,-1,0,0
15646,395,-8191,-306,-2,-1,0,0
15652,393,-8191,-304,-2,-1,0,0
15657,390,-8189,-308,-2,-1,0,0
15662,385,-8191,-308,-2,-1,0,0
15668,377,-8192,-305,-2,-1,0,0
15673,372,-8195,-305,-2,-1,0,0
15677,368,-8194,-303,-2,-1,0,0
15682,365,-8191,-301,-2,-1,0,0
15688,360,-8191,-297,-2,-1,0,0
15693,354,-8192,-298,-2,-1,0,0
15698,352,-8194,-297,-2,-1,0,0
15703,347,-8192,-293,-2,-1,0,0
15708,345,-8192,-287,-2,-1,0,0
15714,345,-8190,-282,-2,-1,0,0
15718,349,-8188,-275,-2,-1,0,0
15723,358,-8189,-268,-2,-1,0,0
15729,364,-8194,-263,-2,-1,0,0
15735,368,-8194,-262,-2,-1,0,0
15740,368,-8193,-263,-2,-1,0,0
15746,363,-8188,-264,-2,-1,0,0
15751,357,-8189,-267,-2,-1,0,0
15757,351,-8190,-270,-2,-1,0,0
15763,350,-8191,-272,-2,-1,0,0
15768,349,-8191,-273,-2,-1,0,0
15774,350,-8192,-275,-2,-1,0,0
15779,350,-8191,-272,-2,-1,0,0
15785,351,-8189,-273,-2,-1,0,0
15790,347,-8188,-274,-2,-1,0,0
15796,347,-8194,-273,-2,-1,0,0
15801,345,-8195,-274,-2,-1,0,0
15807,345,-8195,-275,-2,-1,0,0
15812,347,-8192,-274,-2,-1,0,0
15817,353,-8192,-272,-2,-1,0,0
15823,358,-8192,-272,-2,-1,0,0
15829,366,-8195,-274,-2,-1,0,0
15834,373,-8195,-273,-2,-1,0,0
15839,376,-8194,-275,-2,-1,0,0
15845,377,-8191,-275,-2,-1,0,0
15851,378,-8191,-278,-2,-1,0,0
15857,379,-8189,-280,-2,-1,0,0
15862,377,-8189,-283,-2,-1,0,0
15868,378,-8189,-288,-2,-1,0,0
15873,378,-8189,-291,-2,-1,0,0
15879,375,-8193,-291,-2,-1,0,0
15884,370,-8195,-294,-2,-2,0,0
15889,364,-8194,-297,-2,-2,0,0
15894,356,-8194,-300,-2,-2,0,0
15898,348,-8193,-306,-2,-2,0,0
15902,343,-8194,-312,-2,-2,0,0
15906,343,-8194,-320,-2,-2,0,0
15912,345,-8195,-328,-2,-1,0,0
15916,350,-8196,-332,-2,-1,0,0
15920,355,-8197,-334,-2,-1,0,0
15926,359,-8196,-329,-2,-1,0,0
15932,360,-8195,-322,-2,-1,0,0
15937,361,-8194,-312,-2,-1,0,0
15943,362,-8193,-310,-2,-1,0,0
15949,365,-8194,-311,-2,-1,0,0
15953,369,-8193,-313,-2,-1,0,0
15958,376,-8192,-311,-2,-1,0,0
15962,387,-8192,-312,-2,-1,0,0
15966,395,-8192,-316,-2,-1,0,0
15971,398,-8195,-317,-2,-1,0,0
15977,399,-8196,-318,-2,-1,0,0
15982,399,-8199,-322,-2,-1,0,0
15988,394,-8198,-326,-2,0,0,0
15993,390,-8197,-322,-2,0,0,0
15998,382,-8197,-318,-2,0,0,0
16004,378,-8196,-313,-2,0,0,0
16009,376,-8193,-304,-2,1,0,0
16014,377,-8194,-299,-2,1,0,0
16018,380,-8192,-297,-2,1,0,0
16022,384,-8190,-293,-2,0,0,0
16028,391,-8190,-289,-2,0,0,0
16033,400,-8191,-280,-2,0,0,0
16037,407,-8192,-277,-2,0,0,0
16042,408,-8190,-274,-2,-1,0,0
16048,402,-8188,-272,-2,-1,0,0
16053,395,-8188,-277,-2,-1,0,0
16058,387,-8189,-282,-2,-1,0,0
16065,381,-8188,-287,-2,-1,0,0
16070,376,-8188,-290,-2,-1,0,0
16075,374,-8189,-290,-2,-1,0,0
16081,375,-8191,-286,-2,-1,0,0
16086,378,-8192,-281,-2,-1,0,0
16092,385,-8193,-271,-2,-1,0,0
16097,392,-8195,-266,-2,-1,0,0
16103,400,-8194,-263,-2,-1,0,0
16109,402,-8194,-271,-2,-2,0,0
16114,400,-8195,-277,-2,-2,0,0
16119,399,-8196,-283,-2,-2,0,0
16124,395,-8193,-289,-2,-2,0,0
16130,392,-8193,-298,-2,-1,0,0
16135,386,-8193,-307,-2,-1,0,0
16140,383,-8195,-313,-2,-1,0,0
16146,375,-8193,-315,-2,-1,0,0
16150,376,-8193,-320,-2,-1,0,0
16154,375,-8194,-324,-2,-1,0,0
16158,374,-8193,-329,-2,-1,0,0
16162,374,-8192,-334,-2,-1,0,0
16166,373,-8191,-340,-2,-1,0,0
16170,369,-8189,-342,-2,-1,0,0
16174,371,-8188,-343,-2,-1,0,0
16178,371,-8188,-342,-2,-1,0,0
16182,369,-8186,-343,-2,-1,0,0
16187,370,-8187,-344,-2,-1,0,0
16191,370,-8188,-347,-2,-1,0,0
16195,371,-8189,-350,-2,-1,0,0
16198,372,-8188,-353,-2,0,0,0
16202,374,-8189,-349,-2,0,0,0
16206,376,-8190,-343,-2,0,0,0
16210,374,-8192,-334,-2,0,0,0
16214,371,-8193,-328,-2,0,0,0
16218,368,-8191,-324,-2,0,0,0
16222,369,-8192,-318,-2,0,0,0
16226,368,-8191,-313,-2,1,0,0
16230,365,-8192,-314,-2,1,0,0
16234,363,-8190,-314,-2,1,0,0
16238,359,-8189,-309,-2,1,0,0
16242,356,-8192,-307,-2,1,0,0
16246,354,-8193,-300,-2,1,0,0
16250,353,-8193,-290,-2,1,0,0
16254,354,-8196,-279,-2,1,0,0
16258,358,-8199,-268,-2,1,0,0
16262,359,-8200,-259,-2,0,0,0
16266,363,-8202,-254,-2,0,0,0
16270,364,-8200,-251,-2,0,0,0
16274,359,-8200,-252,-2,0,0,0
16278,355,-8200,-253,-2,-1,0,0
16282,348,-8200,-254,-2,-1,0,0
16287,338,-8198,-253,-2,0,0,0
16292,326,-8197,-249,-2,0,0,0
16297,317,-8196,-245,-2,0,0,0
16302,311,-8197,-240,-2,0,0,0
16307,307,-8198,-232,-2,0,0,0
16312,307,-8194,-225,-2,0,0,0
16317,308,-8193,-222,-2,0,0,0
16322,314,-8194,-219,-2,0,0,0
16327,322,-8194,-217,-2,0,0,0
16332,328,-8196,-217,-2,0,0,0
16337,328,-8197,-215,-2,0,0,0
16342,330,-8197,-210,-2,0,0,0
16347,327,-8198,-210,-2,0,0,0
16352,330,-8200,-211,-2,0,0,0
16357,327,-8201,-210,-2,0,0,0
16362,330,-8200,-215,-2,-1,0,0
16367,331,-8198,-224,-2,-1,0,0
16372,335,-8195,-230,-2,-1,0,0
16377,343,-8195,-236,-2,-1,0,0
16382,349,-8193,-239,-2,0,0,0
16387,350,-8195,-235,-2,0,0,0
16392,347,-8198,-234,-2,0,0,0
16397,344,-8199,-230,-2,0,0,0
16402,337,-8199,-227,-2,0,0,0
16407,330,-8197,-224,-2,-1,0,0
16412,332,-8198,-221,-2,-1,0,0
16417,335,-8200,-221,-2,-1,0,0
16422,345,-8199,-227,-2,-1,0,0
16427,355,-8199,-229,-2,-1,0,0
16432,367,-8199,-230,-2,-1,0,0
16437,375,-8200,-228,-2,-1,0,0
16442,380,-8198,-226,-2,-1,0,0
16447,384,-8194,-226,-2,-1,0,0
16452,387,-8196,-229,-2,-1,0,0
16457,392,-8196,-231,-2,-1,0,0
16462,397,-8196,-235,-2,-1,0,0
16467,406,-8198,-237,-2,-1,0,0
16472,415,-8199,-236,-2,-1,0,0
16477,422,-8199,-237,-2,-1,0,0
16482,426,-8198,-237,-2,-1,0,0
16487,426,-8196,-236,-2,-1,0,0
16492,424,-8196,-234,-2,-1,0,0
16497,419,-8196,-232,-2,-1,0,0
16502,416,-8195,-231,-2,-1,0,0
16507,412,-8193,-237,-2,-1,0,0
16512,409,-8192,-245,-2,-1,0,0
16517,412,-8192,-254,-2,-1,0,0
16522,415,-8193,-267,-2,-1,0,0
16527,417,-8192,-278,-2,-1,0,0
16532,423,-8193,-287,-2,-1,0,0
16537,425,-8194,-297,-2,-1,0,0
16542,428,-8194,-298,-2,-1,0,0
16547,433,-8192,-301,-2,0,0,0
16552,436,-8192,-305,-2,0,1,0
16557,440,-8192,-307,-2,0,1,0
16562,443,-8190,-308,-2,0,1,0
16567,449,-8190,-310,-2,0,1,0
16571,449,-8192,-317,-2,0,1,0
16576,446,-8193,-322,-2,0,1,0
16581,442,-8192,-323,-2,1,1,0
16586,435,-8189,-323,-2,1,1,0
16591,426,-8188,-327,-2,1,1,0
16596,419,-8188,-331,-2,1,1,0
16601,415,-8189,-332,-2,1,1,0
16606,411,-8191,-336,-2,1,1,0
16611,406,-8191,-339,-2,1,1,0
16616,402,-8189,-344,-2,1,1,0
16621,398,-8191,-345,-2,1,1,0
16626,395,-8190,-348,-2,2,1,0
16631,391,-8191,-351,-2,2,1,0
16636,384,-8191,-352,-1,2,1,0
16641,377,-8190,-352,-2,2,1,0
16646,367,-8190,-354,-1,3,1,0
16651,360,-8188,-353,-1,3,1,0
16656,351,-8186,-354,-1,3,1,0
16661,338,-8185,-353,-1,3,1,0
16666,324,-8184,-348,-1,4,1,0
16671,310,-8184,-337,-1,4,1,0
16676,297,-8183,-325,-1,4,1,0
16681,286,-8184,-312,-1,5,1,0
16686,277,-8185,-302,-1,5,1,0
16691,265,-8186,-289,-1,5,1,0
16696,254,-8190,-274,-1,5,1,0
16701,246,-8192,-262,-1,4,1,0
16706,240,-8196,-251,-1,4,1,0
16711,233,-8196,-239,-1,4,1,0
16716,222,-8198,-230,-1,4,1,0
16721,209,-8199,-222,-1,3,1,0
16726,196,-8199,-214,-1,3,1,0
16731,183,-8198,-211,-1,3,1,0
16736,174,-8195,-207,-1,3,1,0
16741,160,-8193,-204,-1,3,1,0
16746,150,-8194,-202,-1,3,0,0
16751,142,-8194,-196,-2,4,0,0
16756,134,-8194,-192,-2,4,0,0
16761,128,-8196,-181,-2,4,0,0
16766,128,-8197,-167,-2,4,0,0
16771,130,-8199,-150,-2,3,0,0
16776,132,-8199,-135,-2,3,0,0
16781,137,-8199,-120,-2,3,0,0
16786,143,-8197,-109,-2,2,0,0
16791,148,-8199,-103,-2,1,0,0
16796,150,-8198,-99,-2,1,0,0
16801,150,-8197,-102,-2,1,0,0
16806,153,-8198,-104,-2,0,0,0
16811,158,-8199,-111,-2,0,0,0
16816,170,-8195,-117,-2,0,0,0
16821,182,-8194,-118,-2,0,0,0
16826,197,-8197,-121,-2,0,0,0
16831,214,-8198,-125,-2,0,0,0
16836,233,-8201,-126,-2,0,0,0
16841,250,-8201,-129,-2,0,0,0
16846,261,-8201,-131,-2,0,0,0
16851,267,-8198,-134,-2,0,0,0
16856,272,-8198,-138,-2,-1,0,0
16861,271,-8196,-144,-2,-1,0,0
16866,272,-8198,-147,-2,-1,0,0
16871,273,-8198,-154,-2,-1,0,0
16876,278,-8197,-159,-2,-1,0,0
16881,283,-8197,-168,-2,-1,0,0
16886,288,-8196,-179,-2,-1,0,0
16891,291,-8195,-193,-2,-1,0,0
16896,289,-8194,-207,-2,-1,0,0
16901,283,-8194,-218,-2,-1,0,0
16906,278,-8193,-229,-2,-1,0,0
16911,270,-8193,-240,-2,-1,0,0
16916,261,-8190,-252,-2,-1,0,0
16921,252,-8191,-261,-2,-1,0,0
16926,246,-8190,-265,-2,-1,0,0
16931,247,-8191,-270,-2,-1,0,0
16936,247,-8192,-276,-2,0,0,0
16941,247,-8192,-277,-2,0,0,0
16946,249,-8192,-277,-2,0,0,0
16951,248,-8193,-278,-2,0,0,0
16956,245,-8192,-274,-2,0,0,0
16961,235,-8194,-268,-2,0,0,0
16966,231,-8196,-263,-2,0,0,0
16971,226,-8196,-257,-2,0,0,0
16976,221,-8197,-248,-2,0,0,0
16981,221,-8197,-248,-2,-1,0,0
16986,225,-8196,-249,-2,-1,0,0
16991,230,-8196,-249,-2,-1,0,0
16996,234,-8197,-243,-2,-1,0,0
17001,237,-8198,-236,-2,-1,0,0
17006,234,-8198,-232,-2,-1,0,0
17011,226,-8195,-231,-2,-1,0,0
17016,221,-8192,-232,-2,-1,0,0
17021,221,-8190,-228,-2,-1,0,0
17026,221,-8192,-223,-2,-1,0,0
17031,223,-8193,-215,-2,-1,0,0
17036,225,-8193,-214,-2,-1,0,0
17041,229,-8195,-210,-2,-1,0,0
17046,231,-8197,-200,-2,-1,0,0
17051,227,-8197,-195,-2,-1,-1,0
17056,221,-8199,-190,-2,-1,-1,0
17061,217,-8200,-186,-2,-1,-1,0
17066,209,-8200,-180,-2,-1,0,0
17071,205,-8198,-177,-2,-1,0,0
17076,207,-8197,-175,-2,-1,-1,0
17081,211,-8197,-177,-2,-1,-1,0
17086,213,-8197,-178,-2,-1,-1,0
17091,213,-8196,-175,-2,-2,-1,0
17096,210,-8199,-173,-2,-2,-1,0
17101,203,-8200,-171,-2,-1,-1,0
17106,197,-8201,-171,-2,-2,-1,0
17111,187,-8199,-175,-2,-2,-1,0
17116,180,-8198,-177,-2,-2,-1,0
17121,179,-8198,-176,-2,-2,-1,0
17126,180,-8199,-176,-2,-2,-1,0
17131,184,-8198,-179,-2,-2,-1,0
17136,189,-8199,-179,-2,-2,-1,0
17141,190,-8200,-175,-2,-2,-1,0
17146,191,-8198,-170,-2,-2,-1,0
17151,190,-8194,-170,-2,-2,-1,0
17156,190,-8195,-171,-2,-2,-1,0
17161,189,-8198,-172,-2,-2,-1,0
17166,189,-8201,-173,-2,-2,-1,0
17171,191,-8204,-174,-2,-2,-1,0
17176,192,-8204,-171,-2,-2,-1,0
17181,199,-8202,-170,-2,-2,-1,0
17186,205,-8202,-167,-2,-2,-1,0
17191,208,-8201,-166,-2,-2,-1,0
17196,212,-8198,-165,-2,-2,-1,0
17201,218,-8198,-163,-2,-2,-1,0
17206,223,-8198,-162,-2,-2,-1,0
17211,231,-8198,-161,-2,-2,-1,0
17216,241,-8197,-164,-3,-2,-1,0
17221,251,-8194,-168,-3,-2,-1,0
17226,261,-8195,-170,-3,-2,-1,0
17231,272,-8196,-168,-3,-2,-1,0
17236,279,-8193,-168,-3,-2,-1,0
17241,286,-8194,-167,-3,-2,-1,0
17246,290,-8194,-170,-3,-2,-1,0
17250,294,-8196,-175,-3,-3,-1,0
17255,299,-8196,-180,-3,-3,-1,0
17260,304,-8193,-182,-3,-3,-1,0
17265,308,-8194,-189,-3,-3,-1,0
17270,316,-8193,-197,-3,-3,-1,0
17275,325,-8193,-199,-3,-3,-1,0
17280,336,-8191,-202,-3,-3,-1,0
17285,346,-8191,-205,-3,-3,-1,0
17290,354,-8190,-210,-3,-4,-1,0
17295,360,-8193,-221,-3,-4,-1,0
17300,365,-8193,-233,-3,-4,-1,0
17305,369,-8193,-248,-3,-4,-1,0
17310,373,-8194,-269,-2,-4,-1,0
17315,372,-8192,-282,-2,-4,-1,0
17320,368,-8191,-294,-3,-4,-1,0
17325,366,-8189,-303,-3,-3,-1,0
17330,365,-8191,-310,-2,-3,-1,0
17335,364,-8193,-313,-2,-3,-1,0
17340,365,-8192,-321,-2,-3,-1,0
17345,366,-8190,-332,-2,-3,-1,0
17350,365,-8190,-344,-2,-3,-1,0
17355,361,-8192,-352,-2,-2,-1,0
17360,355,-8193,-364,-2,-2,-1,0
17365,351,-8194,-366,-2,-2,-1,0
17370,344,-8196,-361,-2,-2,-1,0
17375,340,-8194,-358,-2,-2,-1,0
17380,335,-8194,-355,-2,-1,-1,0
17385,332,-8195,-351,-2,-1,-1,0
17390,326,-8194,-342,-2,-1,-1,0
17395,323,-8194,-335,-2,-1,-1,0
17400,320,-8197,-331,-2,-1,-1,0
17405,321,-8197,-326,-2,-1,-1,0
17410,324,-8195,-316,-2,-1,-1,0
17415,325,-8192,-307,-2,-1,-1,0
17420,325,-8191,-298,-2,-1,-1,0
17425,323,-8193,-291,-2,-1,-1,0
17430,320,-8191,-284,-2,-1,-1,0
17435,315,-8190,-276,-2,-1,-1,0
17440,314,-8191,-267,-2,-1,-1,0
17445,316,-8192,-260,-2,-1,-1,0
17450,318,-8192,-259,-2,-1,-1,0
17455,319,-8195,-254,-2,-1,-1,0
17460,318,-8196,-248,-2,-1,-1,0
17465,320,-8194,-244,-2,-1,-1,0
17470,321,-8197,-240,-2,-1,-1,0
17475,326,-8198,-234,-2,-1,-1,0
17480,334,-8195,-229,-2,-1,-1,0
17485,341,-8195,-221,-2,-1,-1,0
17490,349,-8196,-216,-2,-1,-1,0
17495,354,-8197,-208,-2,-1,-1,0
17500,361,-8196,-199,-2,-2,0,0
17505,362,-8196,-190,-2,-2,0,0
17510,362,-8196,-186,-2,-2,0,0
17515,360,-8195,-186,-2,-2,0,0
17520,356,-8196,-183,-2,-2,0,0
17525,354,-8195,-183,-2,-2,0,0
17530,352,-8192,-187,-2,-2,0,0
17535,347,-8191,-189,-2,-2,0,0
17540,340,-8190,-186,-2,-1,0,0
17545,333,-8189,-178,-2,-1,0,0
17550,328,-8192,-178,-2,-1,0,0
17555,328,-8193,-174,-2,-1,0,0
17560,331,-8191,-172,-2,-1,0,0
17565,334,-8189,-172,-2,-1,0,0
17570,339,-8189,-169,-2,-1,0,0
17575,338,-8189,-167,-2,-1,0,0
17580,337,-8190,-164,-2,-2,0,0
17585,334,-8191,-166,-2,-2,0,0
17590,334,-8195,-168,-2,-2,0,0
17595,332,-8195,-170,-2,-2,0,0
17600,332,-8194,-173,-2,-2,0,0
17605,331,-8192,-176,-3,-2,0,0
17610,331,-8193,-176,-2,-2,0,0
17615,333,-8193,-185,-2,-2,0,0
17620,334,-8195,-188,-2,-2,0,0
17625,331,-8195,-195,-2,-2,0,0
17630,326,-8195,-201,-2,-2,0,0
17635,324,-8198,-209,-2,-2,0,0
17640,320,-8199,-218,-2,-2,0,0
17645,316,-8199,-225,-3,-2,0,0
17650,316,-8199,-230,-3,-2,0,0
17655,315,-8197,-235,-3,-2,0,0
17660,315,-8197,-243,-3,-1,0,0
17665,315,-8196,-251,-3,-1,0,0
17670,319,-8196,-258,-3,-1,0,0
17675,320,-8200,-265,-2,-1,0,0
17680,322,-8203,-274,-2,-1,0,0
17685,323,-8206,-281,-2,-1,0,0
17690,326,-8208,-281,-2,-1,0,0
17695,326,-8205,-290,-2,-2,0,0
17700,325,-8200,-295,-2,-2,0,0
17705,328,-8198,-300,-2,-1,0,0
17710,332,-8195,-306,-2,-1,0,0
17715,335,-8197,-310,-2,-1,0,0
17720,340,-8198,-320,-2,-1,0,0
17725,341,-8199,-327,-2,-1,0,0
17730,337,-8199,-331,-2,-1,0,0
17735,334,-8198,-334,-2,-1,0,0
17740,330,-8195,-331,-2,-1,0,0
17745,319,-8195,-331,-2,-1,0,0
17750,310,-8195,-331,-2,-1,0,0
17755,303,-8198,-328,-2,-1,0,0
17760,298,-8197,-326,-2,-1,0,0
17765,297,-8198,-325,-2,-1,0,0
17770,295,-8196,-325,-2,-1,0,0
17775,292,-8195,-325,-2,-1,0,0
17780,285,-8194,-324,-2,-1,0,0
17785,277,-8194,-319,-2,-1,0,0
17790,267,-8194,-314,-2,-1,0,0
17795,261,-8194,-303,-2,-1,0,0
17800,258,-8195,-293,-2,-1,0,0
17805,260,-8198,-283,-2,-1,0,0
17810,261,-8195,-272,-2,-1,0,0
17815,261,-8194,-257,-2,-1,0,0
17820,258,-8193,-242,-2,-1,0,0
17825,252,-8191,-232,-2,-1,0,0
17830,252,-8194,-228,-2,-1,0,0
17835,250,-8196,-224,-2,-1,0,0
17840,250,-8197,-224,-2,-1,0,0
17845,249,-8196,-222,-2,-1,0,0
17850,252,-8194,-214,-2,-1,0,0
17855,252,-8195,-206,-2,-1,0,0
17860,250,-8196,-197,-2,-1,0,0
17865,248,-8197,-191,-2,-1,0,0
17870,243,-8196,-183,-2,-1,0,0
17875,242,-8197,-181,-2,-1,0,0
17880,243,-8199,-181,-2,-2,0,0
17885,249,-8198,-180,-2,-2,0,0
17890,260,-8195,-186,-2,-2,0,0
17895,269,-8194,-188,-2,-2,-1,0
17900,273,-8196,-192,-2,-2,-1,0
17905,276,-8198,-195,-2,-2,-1,0
17910,275,-8197,-200,-2,-2,-1,0
17915,274,-8195,-209,-2,-2,-1,0
17920,271,-8195,-211,-2,-1,0,0
17925,275,-8196,-210,-2,-1,-1,0
17930,283,-8198,-210,-2,-1,-1,0
17935,293,-8199,-213,-2,-1,-1,0
17940,300,-8198,-215,-2,-2,-1,0
17945,304,-8196,-216,-2,-2,-1,0
17950,304,-8195,-218,-2,-2,-1,0
17955,301,-8194,-223,-2,-2,-1,0
17960,294,-8193,-227,-2,-2,-1,0
17965,288,-8191,-236,-2,-2,-1,0
17970,288,-8190,-246,-2,-2,-1,0
17975,293,-8190,-254,-2,-2,0,0
17980,300,-8191,-262,-2,-2,0,0
17985,311,-8192,-269,-2,-2,0,0
17990,320,-8193,-274,-2,-2,-1,0
17994,330,-8191,-276,-2,-2,-1,0
17999,336,-8192,-277,-2,-2,-1,0
18004,338,-8190,-277,-2,-2,-1,0
18009,336,-8187,-285,-2,-2,-1,0
18014,332,-8186,-296,-2,-2,0,0
18019,332,-8182,-308,-2,-2,0,0
18025,332,-8183,-313,-2,-2,0,0
18030,332,-8182,-318,-2,-2,0,0
18035,333,-8183,-328,-2,-2,0,0
18040,333,-8183,-332,-2,-1,0,0
18045,330,-8180,-340,-2,-1,0,0
18050,327,-8181,-344,-2,-1,0,0
18056,326,-8183,-349,-2,-1,0,0
18060,327,-8185,-350,-2,-1,0,0
18065,323,-8187,-348,-2,-1,0,0
18071,318,-8187,-345,-2,-1,0,0
18076,316,-8189,-345,-2,-1,0,0
18081,313,-8192,-349,-2,-1,0,0
18086,310,-8194,-351,-2,-1,0,0
18091,308,-8195,-348,-2,-1,0,0
18096,305,-8194,-344,-2,-1,0,0
18101,305,-8191,-342,-2,-1,0,0
18105,301,-8191,-337,-2,-1,0,0
18109,293,-8194,-326,-2,-1,0,0
18114,286,-8195,-315,-2,-1,0,0
18119,283,-8194,-306,-2,-1,0,0
18124,281,-8192,-300,-2,-1,0,0
18129,281,-8191,-292,-2,-1,0,0
18134,283,-8194,-283,-2,-1,0,0
18139,285,-8195,-278,-2,-1,0,0
18144,286,-8197,-276,-2,-1,0,0
18149,288,-8198,-271,-2,-1,-1,0
18154,286,-8197,-267,-2,-1,0,0
18159,281,-8195,-261,-2,-1,0,0
18164,279,-8195,-254,-2,-1,-1,0
18169,277,-8195,-249,-2,-1,-1,0
18174,278,-8194,-245,-2,-1,0,0
18179,280,-8195,-241,-2,-1,0,0
18184,284,-8195,-233,-2,-1,0,0
18189,288,-8197,-224,-2,-1,-1,0
18194,293,-8197,-217,-2,-1,0,0
18199,301,-8197,-211,-2,-1,0,0
18204,305,-8195,-197,-2,-1,-1,0
18209,308,-8195,-185,-2,-1,-1,0
18214,311,-8195,-180,-2,-1,-1,0
18219,313,-8193,-180,-2,-2,0,0
18224,319,-8194,-181,-2,-2,0,0
18230,321,-8194,-182,-2,-2,-1,0
18234,320,-8197,-181,-2,-2,-1,0
18239,320,-8200,-182,-2,-2,-1,0
18245,320,-8199,-185,-2,-2,0,0
18250,315,-8200,-186,-2,-2,0,0
18255,313,-8201,-188,-2,-2,0,0
18260,315,-8201,-191,-2,-2,0,0
18265,316,-8201,-193,-2,-2,0,0
18270,320,-8200,-199,-2,-2,0,0
18274,326,-8200,-207,-2,-2,0,0
18279,327,-8200,-214,-2,-2,0,0
18284,329,-8198,-224,-2,-2,0,0
18290,330,-8197,-232,-2,-2,0,0
18295,331,-8193,-241,-2,-2,0,0
18300,331,-8191,-247,-2,-2,0,0
18305,331,-8191,-253,-2,-2,0,0
18310,331,-8194,-260,-2,-2,0,0
18316,333,-8194,-265,-2,-2,0,0
18321,330,-8194,-269,-2,-2,0,0
18326,327,-8193,-273,-2,-2,0,0
18332,323,-8194,-279,-2,-2,0,0
18336,318,-8195,-285,-2,-2,0,0
18341,317,-8194,-287,-2,-2,0,0
18346,316,-8195,-292,-2,-2,0,0
18351,318,-8193,-297,-2,-1,0,0
18356,316,-8192,-304,-2,-1,0,0
18361,315,-8192,-312,-2,-1,0,0
18367,311,-8192,-310,-2,-1,0,0
18371,307,-8190,-304,-2,-1,0,0
18375,300,-8191,-298,-2,-1,0,0
18379,297,-8189,-296,-2,-1,0,0
18384,297,-8189,-290,-2,-1,0,0
18389,300,-8188,-287,-2,-1,0,0
18394,308,-8187,-284,-2,-1,0,0
18400,315,-8188,-281,-2,-1,0,0
18405,316,-8191,-278,-2,-2,0,0
18411,315,-8193,-277,-2,-2,0,0
18416,311,-8195,-275,-2,-2,0,0
18420,304,-8198,-271,-2,-2,0,0
18425,298,-8199,-269,-2,-2,0,0
18430,294,-8198,-272,-2,-1,0,0
18436,293,-8199,-276,-2,-1,0,0
18441,289,-8200,-277,-2,-1,0,0
18446,286,-8200,-277,-2,-1,0,0
18452,284,-8195,-274,-2,-1,0,0
18457,277,-8195,-266,-2,-1,0,0
18462,275,-8194,-257,-2,-1,0,0
18467,271,-8192,-249,-2,-1,0,0
18473,269,-8191,-246,-2,-1,0,0
18478,269,-8192,-244,-2,-1,0,0
18483,272,-8191,-243,-2,-1,0,0
18489,277,-8188,-238,-2,-1,0,0
18494,282,-8187,-233,-2,-1,0,0
18499,289,-8187,-231,-2,-1,0,0
18504,295,-8187,-232,-2,-1,0,0
18509,299,-8191,-224,-2,-1,0,0
18515,297,-8192,-223,-2,-1,0,0
18520,296,-8193,-220,-2,-2,0,0
18525,292,-8196,-221,-2,-1,-1,0
18531,287,-8196,-223,-2,-2,0,0
18536,285,-8197,-222,-2,-2,-1,0
18541,283,-8196,-223,-2,-2,0,0
18546,286,-8197,-223,-2,-2,0,0
18552,289,-8197,-221,-2,-2,-1,0
18557,293,-8198,-217,-2,-2,-1,0
18563,294,-8197,-210,-2,-2,-1,0
18568,294,-8196,-206,-2,-2,-1,0
18574,294,-8197,-207,-2,-2,-1,0
18580,293,-8195,-210,-2,-2,0,0
18585,293,-8194,-216,-2,-2,0,0
18590,291,-8193,-214,-2,-2,-1,0
18596,294,-8198,-214,-2,-2,0,0
18601,297,-8200,-215,-2,-2,0,0
18606,301,-8200,-217,-2,-2,0,0
18612,309,-8199,-221,-2,-2,0,0
18617,317,-8200,-227,-2,-2,0,0
18622,321,-8200,-229,-2,-2,0,0
18627,323,-8199,-229,-2,-2,0,0
18633,323,-8197,-231,-2,-2,0,0
18639,320,-8196,-232,-2,-2,0,0
18645,318,-8194,-232,-2,-2,0,0
18651,314,-8194,-233,-2,-2,0,0
18656,315,-8193,-239,-2,-2,0,0
18661,315,-8192,-245,-2,-2,0,0
18667,319,-8195,-250,-2,-2,0,0
18672,319,-8195,-251,-2,-2,0,0
18677,322,-8195,-253,-2,-2,0,0
18681,329,-8196,-254,-2,-2,0,0
18686,334,-8193,-259,-2,-2,0,0
18690,337,-8190,-265,-2,-1,0,0
18694,340,-8193,-271,-2,-1,0,0
18698,338,-8194,-272,-2,-2,0,0
18702,333,-8193,-271,-2,-1,0,0
18707,332,-8193,-269,-2,-1,0,0
18711,332,-8195,-268,-2,-1,0,0
18715,331,-8193,-267,-2,-1,0,0
18719,330,-8193,-264,-2,-1,0,0
18723,329,-8194,-264,-2,-1,0,0
18727,326,-8191,-262,-2,-1,0,0
18731,324,-8189,-264,-2,-1,0,0
18735,323,-8188,-264,-2,-1,0,0
18739,323,-8190,-263,-2,-1,0,0
18743,325,-8191,-257,-2,-1,0,0
18747,327,-8193,-255,-2,-2,0,0
18751,327,-8193,-254,-2,-2,0,0
18755,325,-8192,-256,-2,-2,0,0
18759,324,-8193,-258,-2,-2,0,0
18763,324,-8192,-260,-2,-1,0,0
18768,323,-8192,-261,-2,-1,0,0
18773,325,-8190,-261,-2,-1,0,0
18778,324,-8189,-262,-2,-1,0,0
18783,321,-8190,-256,-2,-1,0,0
18788,315,-8190,-255,-2,-1,0,0
18793,307,-8190,-250,-2,-1,0,0
18798,297,-8190,-249,-2,-1,0,0
18803,290,-8191,-249,-2,-1,0,0
18808,283,-8189,-249,-2,-1,0,0
18813,280,-8187,-246,-2,-1,0,0
18818,279,-8185,-243,-2,-1,0,0
18823,277,-8187,-242,-2,-1,0,0
18828,275,-8189,-237,-2,-1,0,0
18833,273,-8187,-231,-2,-1,0,0
18838,272,-8189,-221,-2,-1,0,0
18843,269,-8188,-213,-2,-1,0,0
18848,269,-8189,-208,-2,-2,0,0
18853,268,-8191,-208,-2,-2,0,0
18858,269,-8189,-214,-2,-2,0,0
18863,268,-8193,-218,-2,-2,0,0
18868,267,-8194,-212,-2,-2,0,0
18873,268,-8195,-210,-2,-2,0,0
18878,267,-8195,-211,-2,-2,0,0
18883,267,-8191,-212,-2,-2,0,0
18888,262,-8190,-213,-2,-2,-1,0
18893,265,-8188,-217,-2,-1,0,0
18898,271,-8186,-220,-2,-1,-1,0
18903,276,-8187,-225,-2,-1,-1,0
18908,283,-8189,-227,-2,-2,0,0
18913,292,-8191,-226,-2,-2,-1,0
18918,300,-8193,-224,-2,-2,0,0
18923,306,-8194,-223,-2,-2,0,0
18928,312,-8194,-222,-2,-2,-1,0
18933,319,-8193,-216,-2,-2,0,0
18938,321,-8191,-215,-2,-2,0,0
18943,319,-8189,-220,-2,-2,0,0
18948,316,-8192,-225,-2,-2,-1,0
18953,312,-8194,-230,-2,-2,-1,0
18958,311,-8194,-237,-2,-2,-1,0
18963,313,-8193,-243,-2,-2,0,0
18968,317,-8192,-246,-2,-2,0,0
18973,322,-8194,-253,-2,-2,0,0
18978,329,-8194,-257,-2,-2,0,0
18983,334,-8197,-261,-2,-2,0,0
18988,340,-8197,-267,-2,-2,0,0
18993,341,-8199,-272,-2,-2,0,0
18998,336,-8199,-277,-2,-2,0,0
19003,331,-8198,-285,-2,-2,0,0
19008,323,-8196,-289,-2,-2,0,0
19013,319,-8195,-296,-2,-1,0,0
19018,316,-8192,-309,-2,-1,0,0
19023,315,-8193,-319,-2,-1,0,0
19028,315,-8193,-323,-2,-1,0,0
19033,314,-8192,-322,-2,-1,0,0
19038,312,-8190,-315,-2,-1,0,0
19043,312,-8190,-305,-2,-1,0,0
19048,307,-8190,-297,-2,-1,0,0
19053,298,-8190,-288,-2,-1,0,0
19058,289,-8192,-284,-2,-1,0,0
19063,280,-8191,-280,-2,-1,0,0
19068,277,-8192,-278,-2,-1,0,0
19073,277,-8192,-278,-2,-1,0,0
19078,278,-8192,-278,-2,-1,0,0
19083,281,-8192,-281,-2,-1,0,0
19088,281,-8190,-278,-2,-1,0,0
19093,281,-8190,-278,-2,-1,0,0
19098,281,-8192,-272,-2,-1,0,0
19103,279,-8194,-266,-2,-1,-1,0
19108,279,-8192,-261,-2,-1,-1,0
19113,276,-8192,-254,-2,-1,-1,0
19118,275,-8192,-254,-2,-1,-1,0
19123,275,-8192,-250,-2,-1,-1,0
19128,279,-8193,-248,-2,-1,-1,0
19133,279,-8194,-247,-2,-1,-1,0
19138,281,-8193,-241,-2,-1,-1,0
19143,279,-8192,-234,-2,-2,-1,0
19148,279,-8194,-225,-2,-2,-1,0
19153,279,-8199,-217,-2,-1,-1,0
19158,285,-8201,-211,-2,-1,-1,0
19163,292,-8203,-210,-2,-1,-1,0
19168,296,-8200,-207,-2,-2,-1,0
19173,300,-8200,-201,-2,-2,-1,0
19178,304,-8198,-196,-2,-2,-1,0
19183,306,-8198,-195,-2,-2,-1,0
19188,305,-8196,-192,-2,-1,-1,0
19193,304,-8193,-189,-2,-1,-1,0
19198,308,-8189,-184,-2,-1,-1,0
19203,311,-8186,-180,-2,-2,-1,0
19208,318,-8185,-178,-2,-2,-1,0
19213,326,-8184,-179,-2,-2,0,0
19218,333,-8187,-180,-2,-2,-1,0
19223,336,-8186,-183,-2,-2,-1,0
19228,336,-8187,-184,-2,-2,-1,0
19233,335,-8187,-185,-2,-2,-1,0
19238,331,-8190,-186,-2,-2,-1,0
19243,325,-8189,-191,-2,-2,-1,0
19248,318,-8190,-196,-2,-2,-1,0
19253,318,-8191,-201,-2,-2,0,0
19258,319,-8189,-208,-2,-2,0,0
19263,324,-8190,-212,-2,-2,0,0
19268,335,-8190,-211,-2,-2,0,0
19273,343,-8190,-211,-2,-2,0,0
19278,351,-8188,-213,-2,-2,0,0
19283,353,-8187,-219,-2,-2,0,0
19288,350,-8188,-225,-2,-2,0,0
19293,345,-8187,-231,-2,-2,0,0
19298,340,-8192,-241,-2,-2,0,0
19303,332,-8194,-250,-2,-2,0,0
19308,326,-8194,-258,-2,-2,0,0
19313,325,-8193,-266,-2,-1,0,0
19318,323,-8192,-269,-2,-1,0,0
19323,322,-8194,-268,-2,-1,0,0
19328,322,-8194,-270,-2,-1,0,0
19333,322,-8194,-270,-2,-1,0,0
19338,320,-8193,-272,-2,-1,0,0
19343,320,-8196,-269,-2,-1,0,0
19348,320,-8194,-271,-2,-2,0,0
19353,319,-8194,-276,-2,-2,0,0
19358,318,-8195,-279,-2,-2,0,0
19363,313,-8192,-282,-2,-2,0,0
19368,314,-8193,-285,-2,-2,0,0
19373,311,-8192,-286,-2,-2,0,0
19378,310,-8191,-287,-2,-1,0,0
19383,314,-8191,-287,-2,-1,0,0
19388,315,-8188,-284,-2,-1,0,0
19393,317,-8189,-283,-2,-1,0,0
19398,324,-8190,-279,-2,-1,0,0
19403,324,-8189,-272,-2,-1,0,0
19408,319,-8190,-268,-2,-1,0,0
19413,315,-8192,-262,-2,-1,0,0
19418,312,-8193,-261,-2,-1,0,0
19423,314,-8191,-263,-2,-1,0,0
19428,316,-8192,-263,-2,-1,0,0
19433,322,-8190,-262,-2,-1,0,0
19438,328,-8191,-262,-2,-1,0,0
19443,332,-8192,-254,-2,-1,0,0
19448,337,-8192,-248,-2,-1,0,0
19453,341,-8194,-241,-2,-1,0,0
19458,342,-8196,-235,-2,-1,0,0
19463,342,-8197,-230,-2,-1,0,0
19468,344,-8195,-224,-2,-1,0,0
19473,346,-8195,-220,-2,-1,0,0
19478,348,-8197,-219,-2,-1,0,0
19483,348,-8195,-221,-2,-1,0,0
19487,347,-8195,-224,-2,-1,0,0
19492,343,-8192,-226,-2,-2,0,0
19497,337,-8194,-233,-2,-2,0,0
19502,327,-8195,-237,-2,-1,0,0
19507,321,-8193,-239,-2,-2,0,0
19512,314,-8190,-241,-2,-2,0,0
19517,311,-8191,-246,-2,-2,0,0
19522,307,-8190,-247,-2,-2,0,0
19527,306,-8189,-249,-2,-2,0,0
19532,306,-8190,-251,-2,-2,0,0
19537,303,-8189,-254,-2,-2,0,0
19542,296,-8189,-259,-2,-2,0,0
19547,289,-8189,-269,-2,-2,0,0
19552,284,-8187,-273,-2,-2,0,0
19557,280,-8187,-279,-2,-1,0,0
19562,280,-8186,-280,-2,-1,0,0
19567,283,-8186,-278,-2,-1,0,0
19572,283,-8189,-277,-2,-1,0,0
19577,280,-8189,-276,-2,-1,0,0
19582,282,-8191,-273,-2,-1,0,0
19587,280,-8190,-269,-2,-1,0,0
19592,281,-8193,-263,-2,-1,0,0
19597,273,-8193,-258,-2,-1,0,0
19602,268,-8193,-252,-2,-1,0,0
19607,264,-8194,-249,-2,-1,0,0
19612,263,-8194,-245,-2,-1,0,0
19617,268,-8196,-240,-2,-1,0,0
19622,274,-8196,-239,-2,-1,0,0
19627,284,-8197,-237,-2,-1,0,0
19632,293,-8195,-229,-2,-1,0,0
19637,304,-8193,-225,-2,-1,-1,0
19642,308,-8194,-225,-2,-1,-1,0
19647,309,-8194,-225,-2,-2,-1,0
19652,308,-8195,-219,-2,-2,-1,0
19657,307,-8195,-216,-2,-2,-1,0
19662,309,-8193,-220,-2,-2,0,0
19667,314,-8190,-216,-2,-2,0,0
19672,319,-8190,-215,-2,-2,0,0
19677,323,-8190,-211,-2,-2,0,0
19682,329,-8190,-211,-2,-2,0,0
19687,331,-8192,-218,-2,-2,0,0
19692,330,-8190,-228,-2,-2,0,0
19697,325,-8189,-237,-2,-2,0,0
19702,320,-8190,-243,-2,-2,0,0
19707,314,-8193,-243,-2,-2,0,0
19712,312,-8194,-244,-2,-1,0,0
19717,310,-8196,-240,-2,-1,0,0
19722,309,-8198,-233,-2,-2,0,0
19727,308,-8199,-233,-2,-2,0,0
19732,311,-8199,-233,-2,-2,0,0
19737,315,-8197,-232,-2,-2,0,0
19742,318,-8196,-232,-2,-2,0,0
19747,317,-8196,-234,-2,-2,0,0
19752,315,-8195,-233,-2,-2,0,0
19757,309,-8195,-238,-2,-2,0,0
19762,305,-8195,-242,-2,-2,0,0
19767,301,-8196,-245,-2,-2,0,0
19772,299,-8199,-246,-2,-2,0,0
19777,303,-8201,-245,-2,-2,0,0
19782,309,-8202,-238,-2,-2,0,0
19787,313,-8200,-234,-2,-2,0,0
19792,319,-8198,-231,-2,-2,0,0
19797,324,-8195,-231,-2,-2,-1,0
19802,325,-8196,-231,-2,-2,-1,0
19807,324,-8195,-234,-2,-2,0,0
19812,321,-8195,-233,-2,-2,0,0
19817,318,-8194,-235,-2,-2,0,0
19822,319,-8195,-237,-2,-2,0,0
19827,321,-8195,-240,-2,-2,0,0
19832,325,-8198,-242,-2,-2,0,0
19837,335,-8198,-241,-2,-2,0,0
19842,342,-8196,-242,-2,-1,0,0
19847,352,-8196,-242,-2,-1,0,0
19852,363,-8195,-243,-2,-1,0,0
19857,373,-8193,-241,-2,-1,0,0
19862,380,-8191,-239,-2,-1,0,0
19867,388,-8191,-243,-2,-1,0,0
19872,397,-8192,-242,-2,-1,0,0
19877,402,-8193,-243,-2,-1,0,0
19882,403,-8192,-247,-2,-1,0,0
19887,404,-8192,-247,-2,-1,0,0
19892,409,-8193,-249,-2,-1,0,0
19897,411,-8193,-253,-2,-1,0,0
19902,415,-8194,-259,-2,-1,0,0
19907,419,-8192,-262,-2,-1,0,0
19912,421,-8192,-268,-2,-1,0,0
19917,421,-8193,-273,-2,-1,0,0
19922,420,-8193,-275,-2,-1,0,0
19927,417,-8192,-277,-2,-1,0,0
19932,414,-8191,-279,-2,-1,0,0
19937,413,-8191,-285,-2,-1,0,0
19942,412,-8190,-292,-2,-1,0,0
19947,412,-8188,-297,-2,-1,0,0
19952,415,-8190,-299,-2,0,0,0
19957,418,-8189,-302,-2,0,0,0
19962,420,-8187,-300,-2,0,0,0
19967,420,-8188,-296,-2,0,0,0
19972,412,-8187,-290,-2,0,0,0
19977,400,-8190,-283,-2,0,0,0
19982,384,-8192,-275,-2,0,0,0
19987,365,-8191,-265,-2,0,0,0
19992,349,-8192,-263,-2,0,0,0
19997,336,-8193,-263,-2,0,0,0
20002,326,-8195,-264,-2,0,0,0
20007,318,-8195,-263,-2,0,0,0
20012,316,-8198,-258,-2,0,0,0
20017,308,-8199,-260,-2,0,0,0
20022,298,-8199,-253,-2,0,0,0
20027,285,-8202,-248,-2,0,0,0
20032,272,-8203,-243,-2,0,0,0
20037,258,-8202,-235,-2,0,0,0
20042,248,-8201,-231,-2,0,0,0
20047,243,-8199,-228,-2,0,0,0
20052,241,-8200,-227,-2,0,0,0
20057,237,-8200,-228,-2,-1,0,0
20062,234,-8198,-226,-2,-1,0,0
20067,227,-8200,-226,-2,-1,0,0
20072,218,-8199,-225,-2,0,0,0
20077,211,-8197,-224,-2,0,0,0
20082,208,-8198,-220,-2,0,0,0
20087,210,-8199,-213,-2,0,0,0
20092,221,-8199,-207,-2,0,0,0
20097,238,-8197,-198,-2,0,0,0
20102,256,-8195,-185,-2,0,0,0
20107,278,-8191,-180,-2,-1,0,0
20112,295,-8184,-174,-2,-1,0,0
20117,305,-8181,-173,-2,-1,0,0
20122,313,-8183,-180,-2,-2,0,0
20127,318,-8181,-188,-2,-2,0,0
20132,321,-8184,-196,-2,-2,0,0
20137,325,-8185,-207,-2,-2,0,0
20142,333,-8185,-215,-2,-2,0,0
20147,340,-8186,-223,-2,-1,0,0
20151,353,-8189,-228,-2,-1,0,0
20157,367,-8188,-228,-2,-1,0,0
20161,385,-8189,-229,-2,-1,0,0
20167,402,-8188,-228,-2,-1,0,0
20171,414,-8189,-230,-2,-1,0,0
20177,422,-8188,-236,-2,-1,0,0
20181,427,-8190,-245,-2,-1,0,0
20186,430,-8188,-254,-2,-1,1,0
20191,427,-8190,-264,-2,-1,1,0
20196,420,-8188,-272,-2,-1,1,0
20201,408,-8187,-277,-2,-1,1,0
20206,397,-8188,-282,-2,-1,1,0
20211,382,-8188,-292,-2,-1,1,0
20216,368,-8188,-298,-2,0,1,0
20222,358,-8190,-306,-2,0,1,0
20226,348,-8189,-314,-2,1,1,0
20231,340,-8191,-321,-2,1,1,0
20236,328,-8191,-321,-2,1,1,0
20241,312,-8191,-317,-2,2,1,0
20246,294,-8194,-318,-2,2,1,0
20251,273,-8197,-317,-2,3,1,0
20256,255,-8198,-311,-2,3,1,0
20261,239,-8198,-306,-2,4,1,0
20266,227,-8198,-301,-2,4,1,0
20271,219,-8195,-294,-2,4,1,0
20276,215,-8194,-282,-2,4,1,0
20281,207,-8192,-268,-2,4,1,0
20286,199,-8188,-255,-2,4,1,0
20291,189,-8188,-244,-2,4,1,0
20296,179,-8189,-232,-2,4,1,0
20301,168,-8191,-220,-2,3,1,0
20306,159,-8191,-207,-2,3,0,0
20311,149,-8190,-199,-2,3,0,0
20316,139,-8190,-187,-2,3,0,0
20321,130,-8191,-177,-2,2,0,0
20326,123,-8191,-168,-2,2,0,0
20331,115,-8191,-156,-2,2,0,0
20336,109,-8190,-146,-2,2,0,0
20341,104,-8191,-138,-2,1,0,0
20346,103,-8192,-131,-2,1,0,0
20351,102,-8192,-126,-2,1,0,0
20356,99,-8193,-121,-2,0,0,0
20361,98,-8196,-117,-2,0,0,0
20366,104,-8197,-109,-2,0,0,0
20371,108,-8200,-104,-2,0,0,0
20376,117,-8198,-104,-2,-1,0,0
20381,127,-8198,-104,-2,-1,0,0
20386,138,-8196,-105,-2,-1,0,0
20391,149,-8197,-110,-2,-1,0,0
20396,158,-8198,-120,-2,-1,0,0
20401,166,-8195,-129,-2,-1,0,0
20406,179,-8194,-136,-2,-1,0,0
20411,189,-8196,-141,-2,-2,0,0
20416,197,-8196,-145,-2,-2,0,0
20421,206,-8196,-150,-2,-2,0,0
20426,218,-8196,-154,-2,-2,0,0
20431,230,-8196,-172,-2,-2,0,0
20436,241,-8196,-188,-2,-2,0,0
20441,253,-8194,-199,-2,-2,0,0
20446,266,-8195,-215,-2,-2,0,0
20451,280,-8195,-229,-2,-2,0,0
20456,288,-8192,-238,-2,-2,0,0
20461,302,-8192,-244,-2,-2,0,0
20466,313,-8193,-247,-2,-2,0,0
20471,321,-8192,-258,-2,-2,0,0
20476,322,-8193,-264,-2,-2,0,0
20481,319,-8192,-267,-2,-2,0,0
20486,318,-8190,-278,-2,-2,0,0
20491,313,-8189,-289,-2,-2,0,0
20496,313,-8187,-300,-2,-1,0,0
20501,307,-8189,-307,-2,-1,0,0
20506,300,-8189,-312,-2,-1,0,0
20511,295,-8187,-316,-2,-1,0,0
20516,289,-8188,-321,-2,-1,0,0
20521,284,-8188,-320,-2,-1,0,0
20526,280,-8189,-318,-2,-1,0,0
20531,273,-8190,-313,-2,-1,0,0
20536,269,-8191,-311,-2,-1,0,0
20541,265,-8191,-309,-2,-1,0,0
20546,260,-8192,-299,-2,-1,0,0
20551,253,-8193,-291,-2,-1,0,0
20556,243,-8194,-283,-2,-1,0,0
20561,230,-8195,-278,-2,0,0,0
20566,213,-8194,-273,-2,0,0,0
20571,200,-8198,-267,-2,0,0,0
20576,185,-8201,-258,-2,0,0,0
20581,174,-8202,-254,-2,0,0,0
20586,160,-8201,-245,-2,0,0,0
20591,151,-8200,-239,-2,0,0,0
20596,147,-8199,-230,-2,0,0,0
20601,146,-8197,-224,-2,0,0,0
20606,149,-8200,-216,-2,0,0,0
20611,153,-8203,-205,-2,0,0,0
20616,159,-8204,-198,-2,-1,0,0
20621,161,-8203,-190,-2,-1,0,0
20626,157,-8203,-184,-2,-1,0,0
20631,152,-8201,-181,-2,-1,0,0
20636,145,-8199,-182,-2,-1,0,0
20641,134,-8203,-184,-2,-1,0,0
20646,128,-8203,-185,-2,-1,0,0
20651,128,-8205,-183,-2,-1,0,0
20656,128,-8203,-183,-2,-1,-1,0
20661,127,-8201,-179,-2,-1,-1,0
20666,129,-8201,-170,-2,-1,-1,0
20671,125,-8202,-166,-2,-2,-1,0
20676,122,-8203,-161,-2,-2,-1,0
20681,123,-8203,-158,-2,-2,-1,0
20686,124,-8205,-160,-2,-2,-1,0
20691,131,-8203,-156,-2,-2,-1,0
20696,141,-8202,-157,-2,-2,-1,0
20701,153,-8202,-157,-2,-2,-1,0
20706,171,-8201,-158,-2,-2,-1,0
20711,186,-8195,-159,-2,-2,-1,0
20716,198,-8194,-156,-2,-2,-1,0
20721,207,-8195,-159,-2,-2,-1,0
20726,217,-8193,-164,-2,-2,-1,0
20731,229,-8194,-170,-2,-2,-1,0
20736,242,-8192,-176,-2,-2,-1,0
20742,259,-8192,-185,-2,-2,-1,0
20746,277,-8191,-199,-2,-2,-1,0
20751,296,-8191,-210,-2,-2,-1,0
20756,316,-8189,-215,-2,-2,0,0
20761,340,-8189,-223,-2,-1,0,0
20766,367,-8189,-228,-2,-2,0,0
20771,392,-8188,-231,-2,-2,0,0
20776,412,-8186,-238,-2,-2,0,0
20781,430,-8188,-251,-2,-2,0,0
20786,445,-8187,-267,-2,-2,0,0
20791,456,-8185,-285,-2,-2,0,0
20796,470,-8185,-308,-2,-2,0,0
20801,483,-8185,-331,-2,-2,0,0
20806,494,-8184,-351,-2,-1,0,0
20811,511,-8182,-366,-2,-1,0,0
20816,527,-8180,-383,-2,-1,1,0
20821,545,-8182,-390,-2,-1,1,0
20825,558,-8180,-394,-2,-1,1,0
20830,566,-8182,-397,-2,-1,1,0
20835,568,-8183,-395,-2,-1,1,0
20840,568,-8184,-398,-2,-1,1,0
20845,559,-8185,-401,-2,-1,1,0
20850,540,-8188,-407,-1,-1,1,0
20855,524,-8187,-407,-1,0,1,0
20860,500,-8186,-413,-1,0,1,0
20865,473,-8187,-415,-1,1,1,0
20870,443,-8188,-419,-1,2,2,0
20875,412,-8190,-421,-1,4,2,0
20880,380,-8187,-419,-1,5,2,0
20885,346,-8186,-412,-1,7,2,0
20890,313,-8185,-403,-1,9,2,0
20895,283,-8188,-389,-1,11,2,0
20900,248,-8189,-370,-1,12,2,0
20905,217,-8187,-350,-1,12,2,0
20910,182,-8187,-327,-1,12,2,0
20915,150,-8188,-304,-1,12,1,0
20920,119,-8190,-279,-1,12,1,0
20925,90,-8190,-257,-1,11,1,0
20930,72,-8192,-237,-1,11,1,0
20935,59,-8194,-217,-1,10,1,0
20940,60,-8195,-196,-1,9,1,0
20945,62,-8195,-185,-1,8,1,0
20950,63,-8196,-176,-1,7,1,0
20955,61,-8195,-174,-1,7,1,0
20960,54,-8192,-169,-1,7,1,0
20965,45,-8194,-168,-1,7,1,0
20970,36,-8194,-161,-2,7,1,0
20975,29,-8194,-151,-2,7,1,0
20980,21,-8193,-136,-2,7,1,0
20985,22,-8192,-121,-2,7,1,0
20990,33,-8192,-101,-2,7,1,0
20995,45,-8192,-83,-2,6,1,0
21000,57,-8192,-67,-2,5,1,0
21005,66,-8194,-57,-2,4,1,0
21010,69,-8195,-50,-2,3,0,0
21015,67,-8197,-43,-2,2,0,0
21020,63,-8197,-39,-2,1,0,0
21025,60,-8198,-38,-2,1,0,0
21030,60,-8197,-44,-2,0,0,0
21035,65,-8196,-47,-2,0,0,0
21040,70,-8194,-54,-2,0,0,0
21045,73,-8196,-59,-2,-1,0,0
21050,79,-8197,-72,-2,-1,0,0
21055,80,-8198,-81,-2,-1,0,0
21060,82,-8199,-89,-2,-1,0,0
21065,80,-8199,-96,-2,-1,0,0
21070,77,-8200,-104,-2,-1,0,0
21075,76,-8198,-108,-2,-1,0,0
21080,74,-8198,-117,-2,-1,0,0
21085,73,-8199,-125,-2,-2,0,0
21090,71,-8199,-134,-2,-2,0,0
21095,73,-8199,-147,-2,-2,0,0
21100,77,-8199,-160,-2,-2,0,0
21105,86,-8198,-173,-2,-2,0,0
21110,101,-8194,-179,-2,-2,0,0
21115,112,-8191,-182,-2,-2,0,0
21120,120,-8190,-191,-2,-2,0,0
21125,125,-8189,-197,-2,-2,0,0
21130,127,-8190,-203,-2,-2,0,0
21135,128,-8190,-207,-2,-2,0,0
21140,131,-8191,-216,-2,-2,0,0
21145,140,-8193,-230,-2,-2,0,0
21150,149,-8194,-241,-2,-2,0,0
21155,157,-8194,-253,-2,-2,0,0
21160,165,-8191,-265,-2,-2,0,0
21165,171,-8191,-274,-2,-1,0,0
21170,173,-8191,-281,-2,-1,0,0
21175,174,-8192,-283,-2,-1,0,0
21180,172,-8193,-282,-2,-1,0,0
21185,169,-8192,-282,-2,-1,0,0
21190,166,-8191,-287,-2,-1,0,0
21195,166,-8192,-287,-2,-1,0,0
21200,170,-8191,-290,-2,-1,0,0
21205,174,-8188,-294,-2,-1,0,0
21210,175,-8188,-297,-2,-1,0,0
21215,174,-8189,-302,-2,-1,0,0
21220,171,-8191,-299,-2,-1,0,0
21225,165,-8192,-296,-2,-1,0,0
21230,155,-8190,-293,-2,-1,0,0
21235,143,-8189,-287,-2,-1,0,0
21240,134,-8193,-285,-2,-1,0,0
21245,127,-8196,-277,-2,0,0,0
21250,127,-8197,-273,-2,0,0,0
21255,127,-8196,-267,-2,0,0,0
21260,126,-8196,-259,-2,0,0,0
21265,122,-8196,-254,-2,0,0,0
21270,118,-8195,-249,-2,0,0,0
21275,109,-8194,-244,-2,0,0,0
21280,106,-8194,-239,-2,0,0,0
21285,99,-8194,-237,-2,1,0,0
21290,94,-8192,-227,-2,1,0,0
21295,86,-8192,-217,-2,1,0,0
21300,82,-8192,-206,-2,1,0,0
21305,76,-8192,-193,-2,0,0,0
21310,73,-8191,-181,-2,0,0,0
21315,69,-8189,-176,-2,0,0,0
21320,67,-8186,-171,-2,0,0,0
21325,66,-8185,-165,-2,-1,0,0
21330,65,-8185,-162,-2,-1,0,0
21335,66,-8189,-159,-2,-1,0,0
21340,70,-8190,-157,-2,-1,0,0
21345,76,-8188,-155,-2,-1,0,0
21350,84,-8189,-153,-2,-1,0,0
21355,89,-8189,-151,-2,-1,0,0
21360,95,-8190,-144,-2,-1,0,0
21365,99,-8190,-147,-2,-2,-1,0
21370,101,-8191,-147,-2,-2,-1,0
21375,97,-8190,-149,-2,-2,-1,0
21380,97,-8190,-151,-2,-2,-1,0
21385,99,-8190,-158,-2,-2,-1,0
21390,101,-8189,-166,-2,-2,-1,0
21395,106,-8188,-175,-2,-2,-1,0
21400,109,-8190,-183,-2,-2,-1,0
21405,114,-8189,-189,-2,-2,-1,0
21410,116,-8189,-198,-2,-2,-1,0
21415,113,-8189,-210,-2,-2,-1,0
21420,108,-8188,-225,-2,-2,-1,0
21425,106,-8190,-234,-2,-2,-1,0
21430,103,-8190,-246,-2,-2,-1,0
21435,103,-8189,-253,-2,-2,-1,0
21440,106,-8192,-258,-2,-2,-1,0
21445,111,-8192,-259,-2,-2,-1,0
21450,121,-8192,-254,-2,-1,-1,0
21455,129,-8193,-252,-2,-1,-1,0
21460,138,-8194,-242,-2,-1,-1,0
21465,143,-8194,-236,-2,-1,-1,0
21470,144,-8195,-230,-2,-1,-1,0
21475,143,-8196,-224,-2,-1,-1,0
21480,138,-8193,-212,-2,-1,-1,0
21485,136,-8191,-200,-2,-1,-1,0
21490,137,-8188,-183,-2,-1,-1,0
21495,142,-8186,-162,-2,-1,-1,0
21500,149,-8185,-147,-2,-1,-1,0
21505,156,-8185,-131,-2,-1,-1,0
21510,163,-8186,-123,-2,-1,-1,0
21515,167,-8186,-114,-2,-2,-1,0
21520,166,-8190,-112,-2,-2,-1,0
21525,161,-8191,-109,-2,-2,-1,0
21530,159,-8191,-106,-2,-2,-1,0
21535,154,-8193,-104,-2,-2,-1,0
21539,153,-8194,-101,-2,-2,-1,0
21545,152,-8194,-98,-2,-2,-1,0
21549,151,-8195,-97,-2,-2,-1,0
21555,149,-8198,-96,-2,-2,-1,0
21559,143,-8197,-92,-2,-2,-1,0
21565,136,-8192,-98,-2,-2,-1,0
21569,127,-8193,-100,-2,-2,-1,0
21574,114,-8195,-105,-2,-2,-1,0
21580,107,-8197,-115,-2,-3,-1,0
21584,104,-8195,-125,-2,-2,-1,0
21589,105,-8197,-135,-2,-3,-1,0
21594,111,-8197,-147,-2,-2,-1,0
21599,113,-8197,-159,-2,-2,-1,0
21604,120,-8197,-167,-2,-2,-1,0
21609,122,-8196,-180,-2,-2,-1,0
21614,124,-8198,-193,-2,-2,-1,0
21619,127,-8197,-194,-2,-2,-1,0
21624,130,-8196,-199,-2,-2,-1,0
21629,136,-8194,-205,-2,-2,-1,0
21634,142,-8194,-206,-2,-2,-1,0
21639,152,-8195,-205,-2,-2,-1,0
21644,166,-8194,-204,-2,-2,-1,0
21649,178,-8194,-208,-2,-2,-1,0
21654,186,-8192,-213,-2,-2,-1,0
21659,191,-8191,-222,-2,-2,-1,0
21664,194,-8191,-232,-2,-2,-1,0
21669,198,-8193,-237,-2,-2,-1,0
21674,203,-8195,-241,-2,-2,-1,0
21679,211,-8196,-245,-2,-2,-1,0
21684,220,-8198,-245,-2,-2,-1,0
21689,229,-8198,-237,-2,-2,-1,0
21694,244,-8194,-228,-2,-2,-1,0
21699,259,-8194,-222,-2,-2,-1,0
21704,270,-8194,-220,-2,-2,-1,0
21709,279,-8192,-221,-2,-2,-1,0
21714,286,-8191,-221,-2,-2,0,0
21719,288,-8196,-222,-2,-2,0,0
21724,285,-8196,-228,-2,-2,0,0
21729,280,-8196,-233,-2,-2,0,0
21734,276,-8196,-241,-2,-1,0,0
21739,271,-8194,-247,-2,-1,0,0
21744,268,-8192,-248,-2,-1,0,0
21749,265,-8191,-245,-2,-1,0,0
21754,262,-8190,-244,-2,-1,0,0
21759,258,-8188,-240,-2,-1,0,0
21764,255,-8190,-237,-2,-1,0,0
21769,251,-8189,-236,-2,-1,0,0
21774,249,-8191,-231,-2,-1,0,0
21779,248,-8190,-229,-2,-1,0,0
21784,245,-8191,-229,-2,-1,0,0
21789,240,-8192,-230,-2,-1,0,0
21794,237,-8190,-225,-2,-1,0,0
21799,232,-8192,-218,-2,-1,0,0
21804,223,-8190,-213,-2,-1,0,0
21809,212,-8190,-212,-2,-1,0,0
21814,202,-8189,-210,-2,-1,0,0
21819,192,-8188,-209,-2,-1,0,0
21824,180,-8187,-206,-2,-1,0,0
21829,168,-8189,-206,-2,-1,0,0
21834,151,-8191,-208,-2,-1,0,0
21839,129,-8192,-211,-2,-1,0,0
21844,104,-8192,-214,-2,-1,0,0
21849,82,-8197,-211,-2,-1,0,0
21854,61,-8199,-212,-2,-1,0,0
21859,48,-8198,-207,-2,-1,0,0
21864,40,-8198,-196,-2,-1,0,0
21869,35,-8200,-185,-2,-1,0,0
21874,33,-8201,-176,-2,-1,-1,0
21879,33,-8202,-171,-2,-1,-1,0
21884,35,-8198,-165,-2,-2,-1,0
21889,36,-8194,-160,-2,-2,-1,0
21894,39,-8193,-161,-2,-2,-1,0
21899,42,-8192,-156,-2,-2,-1,0
21904,49,-8190,-155,-2,-2,-1,0
21909,53,-8190,-164,-2,-2,-1,0
21914,61,-8187,-175,-2,-2,-1,0
21919,73,-8188,-186,-2,-2,-1,0
21924,92,-8188,-200,-2,-2,-1,0
21929,112,-8189,-216,-2,-2,-1,0
21934,131,-8193,-227,-2,-2,-1,0
21939,148,-8194,-230,-2,-2,-1,0
21944,163,-8194,-235,-2,-2,-1,0
21949,172,-8194,-237,-2,-2,-1,0
21954,181,-8192,-239,-2,-2,-1,0
21959,193,-8192,-239,-2,-2,-1,0
21964,211,-8190,-243,-2,-2,-1,0
21969,224,-8189,-245,-2,-2,-1,0
21974,236,-8186,-252,-2,-2,-1,0
21979,246,-8185,-256,-2,-2,-1,0
21984,255,-8186,-259,-2,-2,-1,0
21989,260,-8185,-259,-2,-2,-1,0
21994,264,-8184,-259,-2,-1,0,0
21999,267,-8183,-256,-2,-1,0,0
22004,275,-8183,-250,-2,-1,0,0
22009,281,-8185,-241,-2,-1,0,0
22014,283,-8187,-232,-2,-1,0,0
22019,280,-8187,-224,-2,-1,0,0
22024,278,-8187,-213,-2,-1,0,0
22029,272,-8187,-201,-2,-1,0,0
22034,265,-8188,-187,-2,-1,0,0
22039,256,-8189,-179,-2,-1,0,0
22044,247,-8189,-168,-2,-1,0,0
22049,238,-8189,-161,-2,-1,0,0
22054,230,-8189,-154,-2,-1,0,0
22059,218,-8193,-148,-2,-1,0,0
22064,207,-8197,-143,-2,-1,0,0
22069,191,-8196,-134,-2,-1,0,0
22074,181,-8196,-131,-2,-1,0,0
22079,174,-8195,-131,-2,-1,0,0
22084,172,-8193,-127,-2,-1,0,0
22089,174,-8190,-122,-2,-1,0,0
22094,176,-8191,-117,-2,-1,0,0
22099,177,-8191,-116,-2,-2,0,0
22104,174,-8189,-115,-2,-1,0,0
22109,174,-8193,-119,-2,-1,0,0
22114,177,-8194,-126,-2,-1,0,0
22119,178,-8193,-131,-2,-1,0,0
22124,179,-8192,-137,-2,-1,0,0
22129,182,-8189,-139,-2,-1,0,0
22134,186,-8189,-138,-2,-1,0,0
22139,186,-8190,-138,-2,-1,0,0
22144,184,-8191,-143,-2,-1,0,0
22149,182,-8193,-145,-2,-1,0,0
22154,181,-8195,-143,-2,-1,0,0
22159,183,-8197,-147,-2,-1,0,0
22164,182,-8197,-147,-2,-1,0,0
22169,181,-8196,-150,-2,-1,0,0
22174,183,-8196,-154,-2,-1,0,0
22179,183,-8193,-152,-2,-1,0,0
22184,182,-8192,-152,-2,-1,0,0
22189,176,-8192,-155,-2,-1,0,0
22194,173,-8193,-159,-2,-1,0,0
22199,171,-8193,-160,-2,-1,0,0
22204,170,-8190,-164,-2,-1,0,0
22209,164,-8189,-164,-2,-1,0,0
22214,160,-8189,-169,-2,-1,0,0
22219,160,-8193,-172,-2,-1,0,0
22224,159,-8194,-176,-2,-1,0,0
22229,158,-8194,-179,-2,-1,0,0
22234,154,-8196,-182,-2,-1,0,0
22239,149,-8198,-183,-2,-1,0,0
22244,142,-8196,-185,-2,-1,0,0
22249,139,-8195,-184,-2,-1,0,0
22254,134,-8196,-186,-2,-1,0,0
22259,132,-8196,-189,-2,-2,0,0
22264,129,-8195,-188,-2,-1,0,0
22269,130,-8194,-191,-2,-1,0,0
22274,133,-8195,-191,-2,-1,0,0
22279,135,-8193,-192,-2,-1,0,0
22284,134,-8194,-195,-2,-1,0,0
22289,133,-8194,-196,-2,-2,0,0
22294,130,-8195,-196,-2,-2,0,0
22299,131,-8196,-199,-2,-2,0,0
22304,131,-8196,-200,-2,-2,-1,0
22309,132,-8193,-197,-2,-1,-1,0
22314,135,-8193,-202,-2,-1,-1,0
22319,139,-8192,-204,-2,-1,-1,0
22324,148,-8194,-203,-2,-2,-1,0
22329,155,-8193,-202,-2,-2,-1,0
22334,158,-8194,-200,-2,-2,-1,0
22339,157,-8196,-194,-2,-2,-1,0
22344,158,-8196,-192,-2,-2,-1,0
22349,157,-8195,-194,-2,-2,-1,0
22354,156,-8192,-195,-2,-2,-1,0
22359,159,-8190,-201,-2,-2,0,0
22364,163,-8188,-209,-2,-2,-1,0
22369,165,-8188,-215,-2,-1,0,0
22374,169,-8191,-217,-2,-1,0,0
22379,174,-8193,-209,-2,-1,0,0
22383,178,-8196,-210,-2,-1,0,0
22388,180,-8197,-204,-2,-1,-1,0
22394,184,-8197,-195,-2,-1,0,0
22399,182,-8197,-188,-2,-2,-1,0
22403,178,-8197,-187,-2,-2,-1,0
22408,176,-8197,-188,-2,-2,0,0
22413,174,-8199,-192,-2,-1,-1,0
22418,170,-8199,-194,-2,-1,-1,0
22423,165,-8197,-199,-2,-2,-1,0
22428,163,-8196,-197,-2,-2,0,0
22433,163,-8193,-191,-2,-1,-1,0
22438,165,-8190,-187,-2,-1,-1,0
22443,168,-8191,-180,-2,-1,-1,0
22448,168,-8195,-172,-2,-1,-1,0
22453,166,-8199,-162,-2,-2,-1,0
22458,166,-8198,-155,-2,-2,-1,0
22463,161,-8194,-149,-2,-2,-1,0
22468,159,-8192,-148,-2,-2,-1,0
22473,156,-8193,-150,-2,-2,-1,0
22478,155,-8192,-151,-2,-2,-1,0
22483,154,-8192,-151,-2,-1,-1,0
22488,157,-8191,-145,-2,-2,-1,0
22493,164,-8192,-139,-2,-2,-1,0
22498,168,-8190,-137,-2,-1,-1,0
22503,175,-8189,-136,-2,-2,-1,0
22508,181,-8189,-137,-2,-1,-1,0
22513,191,-8189,-138,-2,-1,-1,0
22518,198,-8190,-137,-2,-1,-1,0
22523,203,-8188,-138,-2,-1,-1,0
22528,205,-8188,-136,-2,-2,-1,0
22533,205,-8190,-136,-2,-2,0,0
22538,207,-8190,-138,-2,-2,0,0
22543,209,-8191,-139,-2,-2,0,0
22548,208,-8192,-139,-2,-2,0,0
22553,209,-8195,-141,-2,-2,0,0
22558,211,-8193,-147,-2,-2,0,0
22563,214,-8192,-155,-2,-2,0,0
22568,215,-8190,-158,-2,-2,0,0
22573,220,-8189,-164,-2,-1,0,0
22578,224,-8192,-167,-2,-1,0,0
22583,223,-8193,-170,-2,-1,0,0
22588,222,-8192,-171,-2,-1,0,0
22593,219,-8192,-173,-2,-1,0,0
22598,215,-8190,-172,-2,-2,0,0
22603,212,-8189,-168,-2,-2,0,0
22608,209,-8188,-168,-2,-2,0,0
22613,212,-8188,-169,-2,-2,0,0
22618,214,-8188,-172,-2,-2,0,0
22623,216,-8191,-180,-2,-2,0,0
22628,215,-8192,-185,-2,-2,0,0
22633,211,-8192,-192,-2,-2,0,0
22638,206,-8191,-202,-2,-2,0,0
22643,203,-8193,-203,-2,-2,0,0
22648,189,-8192,-203,-2,-2,0,0
22653,177,-8195,-207,-2,-2,0,0
22658,168,-8196,-213,-2,-2,0,0
22663,161,-8196,-218,-2,-2,0,0
22668,154,-8197,-223,-2,-2,0,0
22673,146,-8197,-230,-2,-2,0,0
22678,144,-8198,-230,-2,-1,0,0
22683,140,-8198,-235,-2,-1,0,0
22688,131,-8198,-240,-2,-1,0,0
22693,123,-8197,-238,-2,-1,0,0
22698,116,-8195,-236,-2,-1,0,0
22703,110,-8195,-236,-2,-1,0,0
22708,106,-8196,-231,-2,-1,0,0
22713,105,-8195,-225,-2,-1,-1,0
22718,101,-8196,-221,-2,-1,0,0
22723,100,-8197,-215,-2,-1,-1,0
22728,102,-8194,-210,-2,-1,-1,0
22733,104,-8194,-205,-2,-1,-1,0
22738,103,-8194,-201,-2,-1,-1,0
22743,103,-8199,-195,-2,-1,-1,0
22748,101,-8199,-189,-2,-1,-1,0
22753,102,-8199,-184,-2,-1,-1,0
22758,104,-8199,-175,-2,-1,-1,0
22763,106,-8198,-170,-2,-2,-1,0
22768,111,-8198,-168,-2,-2,-1,0
22773,120,-8196,-163,-2,-2,-1,0
22778,127,-8196,-157,-2,-2,-1,0
22783,133,-8197,-149,-2,-2,-1,0
22788,138,-8197,-142,-2,-2,-1,0
22793,141,-8198,-138,-2,-2,-1,0
22798,148,-8195,-138,-2,-2,-1,0
22803,156,-8196,-137,-2,-2,-1,0
22808,167,-8195,-134,-2,-2,-1,0
22813,180,-8196,-132,-2,-2,-1,0
22818,187,-8197,-127,-2,-2,-1,0
22823,192,-8197,-126,-2,-2,-1,0
22828,195,-8196,-127,-2,-2,-1,0
22833,199,-8198,-126,-2,-2,-1,0
22838,203,-8197,-124,-2,-2,-1,0
22843,204,-8198,-121,-2,-2,-1,0
22848,207,-8198,-118,-2,-2,-1,0
22853,216,-8198,-115,-2,-2,-1,0
22858,223,-8196,-113,-2,-2,-1,0
22863,231,-8197,-112,-2,-2,-1,0
22868,237,-8198,-119,-2,-2,-1,0
22873,243,-8196,-125,-2,-2,-1,0
22878,250,-8196,-125,-2,-2,-1,0
22883,254,-8195,-129,-2,-2,-1,0
22888,254,-8191,-129,-2,-2,-1,0
22893,256,-8191,-134,-2,-2,-1,0
22898,256,-8193,-146,-2,-2,-1,0
22903,257,-8194,-154,-2,-2,0,0
22908,257,-8194,-159,-2,-2,-1,0
22913,259,-8195,-165,-2,-2,0,0
22918,258,-8193,-176,-2,-2,0,0
22923,254,-8191,-190,-2,-2,0,0
22928,253,-8193,-203,-2,-2,0,0
22933,253,-8194,-212,-2,-2,0,0
22938,252,-8191,-217,-2,-2,0,0
22943,253,-8189,-218,-2,-2,0,0
22948,252,-8188,-221,-2,-2,0,0
22953,251,-8188,-223,-2,-2,0,0
22958,247,-8188,-229,-2,-2,0,0
22963,245,-8186,-236,-2,-2,0,0
22968,245,-8185,-243,-2,-1,0,0
22973,242,-8185,-248,-2,-1,0,0
22978,241,-8185,-257,-2,-1,0,0
22983,240,-8185,-260,-2,-1,0,0
22988,236,-8184,-258,-2,-1,0,0
22993,230,-8184,-253,-2,-1,0,0
22998,222,-8187,-249,-2,-1,0,0
23003,212,-8188,-243,-2,-1,0,0
23008,206,-8192,-237,-2,-1,0,0
23013,203,-8193,-233,-2,-1,0,0
23018,199,-8192,-230,-2,-1,0,0
23023,196,-8191,-231,-2,-1,0,0
23028,191,-8188,-232,-2,-1,0,0
23033,189,-8187,-228,-2,-1,0,0
23038,184,-8189,-223,-2,-1,0,0
23043,181,-8189,-221,-2,-1,0,0
23048,182,-8191,-216,-2,-1,0,0
23053,187,-8194,-206,-2,-1,0,0
23058,194,-8196,-197,-2,-1,0,0
23063,203,-8195,-186,-2,-1,0,0
23068,207,-8193,-177,-2,-1,0,0
23073,209,-8194,-175,-2,-1,0,0
23078,207,-8195,-174,-2,-1,0,0
23083,207,-8195,-167,-2,-1,0,0
23088,203,-8196,-169,-2,-1,0,0
23093,200,-8198,-170,-2,-1,0,0
23098,194,-8197,-170,-2,-1,0,0
23103,191,-8197,-171,-2,-1,0,0
23108,186,-8197,-169,-2,-1,0,0
23113,183,-8196,-171,-2,-1,0,0
23118,178,-8195,-171,-2,-1,0,0
23123,175,-8195,-167,-2,-1,0,0
23128,171,-8197,-166,-2,-2,0,0
23133,167,-8196,-164,-2,-2,0,0
23138,163,-8197,-162,-2,-2,0,0
23143,155,-8198,-157,-2,-2,0,0
23148,147,-8200,-157,-2,-2,0,0
23153,140,-8204,-161,-2,-2,0,0
23157,132,-8205,-164,-2,-2,0,0
23162,125,-8203,-168,-2,-2,0,0
23167,124,-8201,-168,-2,-1,0,0
23172,125,-8199,-170,-2,-1,0,0
23177,127,-8198,-169,-2,-1,0,0
23182,132,-8198,-161,-2,-1,0,0
23187,134,-8200,-152,-2,-1,0,0
23192,137,-8197,-148,-2,-2,0,0
23197,139,-8194,-142,-2,-2,0,0
23202,141,-8194,-137,-2,-2,0,0
23207,142,-8191,-137,-2,-2,0,0
23212,144,-8193,-139,-2,-2,0,0
23217,148,-8192,-142,-2,-2,-1,0
23222,153,-8192,-150,-2,-2,0,1
23227,163,-8193,-149,-2,-2,-1,1
23232,170,-8195,-146,-2,-1,0,1
23237,180,-8195,-148,-2,-2,-1,1
23242,186,-8195,-143,-2,-2,-1,1
23247,188,-8196,-138,-2,-2,-1,1
23252,190,-8194,-138,-2,-2,-1,1
23257,193,-8193,-144,-2,-1,-1,1
23262,196,-8191,-145,-2,-1,0,1
23267,199,-8191,-146,-2,-1,0,1
23272,201,-8193,-151,-2,-2,0,1
23277,203,-8194,-161,-2,-2,0,1
23282,207,-8194,-166,-2,-2,0,1
23287,210,-8193,-169,-2,-2,0,1
23292,213,-8193,-169,-2,-2,0,1
23297,213,-8195,-174,-2,-2,0,1
23302,215,-8193,-177,-2,-2,0,1
23307,218,-8192,-181,-2,-2,0,1
23312,220,-8189,-189,-2,-2,0,1
23317,223,-8188,-200,-2,-1,0,1
23322,227,-8189,-207,-2,-2,0,1
23327,228,-8191,-209,-2,-2,0,1
23332,227,-8191,-216,-2,-2,0,1
23337,225,-8190,-221,-2,-1,0,1
23342,222,-8190,-222,-2,-1,0,1
23347,221,-8189,-221,-2,-1,0,1
23352,220,-8190,-217,-2,-1,0,1
23357,224,-8192,-209,-2,-1,0,1
23362,230,-8192,-211,-2,-1,0,1
23367,235,-8191,-211,-2,-1,0,1
23372,236,-8190,-215,-2,-1,0,1
23377,235,-8190,-219,-2,-1,0,1
23382,234,-8191,-217,-2,-1,0,1
23387,229,-8192,-215,-2,-1,0,1
23392,223,-8194,-217,-2,-1,0,1
23397,215,-8193,-214,-2,-1,0,1
23402,206,-8194,-205,-2,-1,0,1
23407,202,-8192,-199,-2,-1,0,1
23412,197,-8193,-195,-2,-1,0,1
23417,193,-8194,-187,-2,-1,0,1
23422,190,-8194,-183,-2,-1,0,1
23427,188,-8193,-180,-2,-1,0,1
23432,188,-8194,-176,-2,-1,0,1
23437,183,-8194,-178,-2,-1,0,1
23442,183,-8192,-180,-2,-1,0,1
23447,181,-8193,-180,-2,-1,0,1
23452,178,-8191,-179,-2,-1,0,1
23457,176,-8192,-176,-2,-1,0,1
23462,174,-8192,-175,-2,-1,0,1
23467,174,-8191,-172,-2,-1,0,1
23472,175,-8193,-169,-2,-1,0,1
23477,174,-8195,-164,-2,-1,0,1
23482,175,-8193,-160,-2,-1,0,1
23487,177,-8193,-158,-2,-1,0,1
23492,175,-8193,-154,-2,-2,0,1
23497,174,-8191,-156,-2,-2,0,1
23502,170,-8194,-161,-2,-2,0,1
23507,164,-8194,-167,-2,-2,0,1
23512,160,-8198,-163,-2,-2,0,1
23517,160,-8198,-164,-2,-2,0,1
23522,161,-8196,-170,-2,-2,0,1
23527,162,-8191,-176,-2,-2,0,1
23532,160,-8193,-180,-2,-2,0,1
23537,155,-8193,-184,-2,-2,0,1
23542,150,-8192,-187,-2,-2,0,1
23547,146,-8195,-190,-2,-2,0,1
23552,139,-8196,-195,-2,-2,0,1
23557,137,-8195,-200,-2,-2,0,1
23562,137,-8192,-203,-2,-2,0,1
23567,140,-8192,-204,-2,-2,0,1
23572,145,-8188,-205,-2,-2,0,1
23577,149,-8184,-202,-2,-2,0,1
23582,150,-8184,-203,-2,-2,0,1
23587,152,-8186,-207,-2,-2,0,1
23592,152,-8187,-213,-2,-2,0,1
23597,150,-8190,-216,-2,-2,0,1
23602,149,-8190,-214,-2,-2,0,1
23607,148,-8190,-210,-2,-2,0,1
23612,148,-8190,-208,-2,-2,0,1
23617,152,-8191,-205,-2,-1,0,1
23622,155,-8190,-198,-2,-1,0,1
23627,159,-8190,-194,-2,-1,0,1
23632,160,-8193,-194,-2,-1,0,1
23637,159,-8197,-193,-2,-1,0,1
23642,159,-8199,-196,-2,-1,0,1
23647,160,-8199,-201,-2,-1,0,1
23652,165,-8200,-200,-2,-1,0,1
23657,172,-8200,-195,-2,-1,0,1
23662,177,-8198,-191,-2,-1,0,1
23667,181,-8196,-184,-2,-1,0,1
23672,186,-8195,-174,-2,-1,0,1
23677,189,-8195,-165,-2,-1,0,1
23682,191,-8196,-159,-2,-2,0,1
23687,193,-8196,-162,-2,-2,0,1
23692,197,-8197,-160,-2,-2,0,1
23697,202,-8197,-159,-2,-2,0,1
23702,210,-8198,-159,-2,-2,0,1
23707,214,-8198,-164,-2,-2,0,1
23712,217,-8198,-165,-2,-2,0,1
23717,215,-8197,-170,-2,-2,0,1
23722,211,-8197,-170,-2,-2,0,1
23727,203,-8195,-171,-2,-1,0,1
23732,192,-8196,-173,-2,-2,0,1
23737,184,-8195,-175,-2,-2,0,1
23742,178,-8195,-179,-2,-1,0,1
23747,175,-8196,-180,-2,-1,0,1
23752,176,-8199,-180,-2,-1,0,1
23757,180,-8199,-182,-2,-1,0,1
23762,185,-8197,-186,-2,-1,0,1
23767,191,-8195,-190,-2,-2,0,1
23772,195,-8195,-193,-2,-2,0,1
23777,199,-8193,-194,-2,-2,0,1
23782,200,-8191,-193,-2,-2,0,1
23787,198,-8192,-195,-2,-2,0,1
23792,196,-8189,-196,-2,-1,0,1
23797,193,-8189,-197,-2,-1,0,1
23802,193,-8190,-197,-2,-1,0,1
23807,192,-8189,-198,-2,-1,0,1
23812,192,-8191,-200,-2,-1,0,1
23817,186,-8192,-203,-2,-1,0,1
23822,183,-8193,-204,-2,-1,0,1
23827,178,-8196,-203,-2,-1,0,1
23832,169,-8196,-202,-2,-1,0,1
23837,161,-8199,-199,-2,-2,0,1
23842,161,-8201,-201,-2,-1,0,1
23847,164,-8203,-205,-2,-1,0,1
23852,167,-8202,-208,-2,-1,0,1
23857,175,-8200,-210,-2,-1,0,1
23862,180,-8199,-207,-2,-1,0,1
23867,184,-8197,-201,-2,-1,0,1
23872,187,-8199,-194,-2,-1,0,1
23877,185,-8200,-188,-2,-1,0,1
23881,181,-8199,-186,-2,-1,0,1
23887,179,-8196,-186,-2,-1,0,1
23891,177,-8194,-188,-2,-1,0,1
23897,175,-8193,-190,-2,-1,0,1
23901,174,-8193,-191,-2,-1,0,1
23906,176,-8192,-191,-2,-1,0,1
23911,177,-8192,-192,-2,-1,0,1
23916,175,-8194,-187,-2,-1,0,1
23921,175,-8194,-180,-2,-1,0,1
23926,175,-8195,-176,-2,-1,0,1
23931,171,-8196,-172,-2,-1,0,1
23936,169,-8197,-170,-2,-1,0,1
23941,166,-8198,-167,-2,-1,0,1
23946,159,-8197,-169,-2,-2,0,1
23951,151,-8198,-175,-2,-2,0,1
23956,146,-8196,-181,-2,-2,0,1
23961,144,-8194,-184,-2,-1,0,1
23966,147,-8195,-183,-2,-1,0,1
23971,151,-8193,-183,-2,-1,0,1
23976,156,-8194,-183,-2,-1,0,1
23981,161,-8196,-175,-2,-1,0,1
23986,161,-8194,-179,-2,-2,0,1
23991,158,-8197,-179,-2,-2,0,1
23996,152,-8199,-179,-2,-2,-1,1
24001,147,-8198,-179,-2,-2,0,1
24006,142,-8196,-182,-2,-2,0,1
24011,138,-8195,-188,-2,-2,0,1
24016,141,-8194,-194,-2,-1,0,1
24021,147,-8192,-199,-2,-1,0,1
24026,151,-8190,-195,-2,-1,0,1
24031,150,-8189,-192,-2,-2,-1,1
24036,153,-8188,-188,-2,-2,-1,1
24041,154,-8188,-184,-2,-2,-1,1
24046,152,-8190,-184,-2,-2,-1,1
24051,150,-8189,-183,-2,-1,-1,1
24057,153,-8188,-181,-2,-2,-1,1
24062,152,-8188,-183,-2,-1,-1,1
24067,154,-8189,-184,-2,-1,-1,1
24072,154,-8189,-183,-2,-1,-1,1
24076,154,-8189,-183,-2,-1,-1,1
24081,157,-8188,-177,-2,-1,-1,1
24086,159,-8188,-170,-2,-1,-1,1
24091,160,-8190,-167,-2,-2,-1,1
24096,163,-8191,-163,-2,-2,-1,1
24101,169,-8193,-160,-2,-2,-1,1
24106,171,-8190,-158,-2,-2,-1,1
24111,167,-8187,-162,-2,-2,-1,1
24116,164,-8183,-168,-2,-2,-1,1
24121,162,-8184,-174,-2,-2,-1,1
24126,158,-8182,-180,-2,-2,-1,1
24131,157,-8181,-185,-2,-2,-1,1
24136,156,-8182,-185,-2,-1,-1,1
24141,161,-8186,-182,-2,-1,-1,1
24146,165,-8187,-178,-2,-2,-1,1
24152,169,-8185,-171,-2,-2,-1,1
24158,174,-8184,-167,-2,-2,-1,1
24163,177,-8185,-166,-2,-2,-1,1
24167,181,-8186,-163,-2,-2,-1,1
24171,180,-8188,-161,-2,-2,-1,1
24176,179,-8189,-166,-2,-2,-1,1
24181,176,-8189,-168,-2,-2,-1,1
24186,175,-8192,-168,-2,-2,-1,1
24191,178,-8194,-171,-2,-2,-1,1
24196,178,-8195,-174,-2,-1,-1,1
24201,177,-8195,-176,-2,-1,-1,1
24206,181,-8193,-182,-2,-1,-1,1
24211,184,-8192,-181,-2,-1,-1,1
24216,183,-8191,-178,-2,-1,-1,1
24221,183,-8191,-178,-2,-2,-1,1
24226,181,-8190,-177,-2,-2,-1,1
24231,180,-8189,-174,-2,-2,-1,1
24236,179,-8190,-169,-2,-2,-1,1
24241,174,-8188,-171,-2,-2,-1,1
24246,167,-8187,-169,-2,-2,-1,1
24251,161,-8186,-171,-2,-2,-1,1
24256,160,-8185,-176,-2,-2,-1,1
24261,166,-8186,-180,-2,-2,-1,1
24266,176,-8185,-188,-2,-1,-1,1
24271,188,-8185,-190,-2,-1,-1,1
24276,202,-8189,-190,-2,-1,-1,1
24281,212,-8194,-184,-2,-1,-1,1
24286,216,-8194,-174,-2,-1,-1,1
24291,218,-8193,-168,-2,-1,-1,1
24296,217,-8189,-162,-2,-1,-1,1
24301,219,-8187,-162,-2,-1,0,1
24306,223,-8187,-161,-2,-2,0,1
24311,231,-8189,-162,-2,-2,0,1
24316,242,-8190,-160,-2,-2,0,1
24321,252,-8188,-159,-2,-2,0,1
24326,257,-8188,-156,-2,-2,0,1
24331,256,-8185,-156,-2,-2,0,1
24336,251,-8185,-164,-2,-2,0,1
24341,243,-8185,-175,-2,-2,0,1
24346,231,-8188,-186,-2,-2,0,1
24351,221,-8191,-193,-2,-2,0,1
24356,211,-8194,-202,-2,-2,0,1
24361,202,-8193,-208,-2,-2,0,1
24366,201,-8193,-211,-2,-2,0,1
24371,199,-8195,-216,-2,-1,0,1
24376,200,-8193,-221,-2,-1,0,1
24381,204,-8191,-224,-2,-1,0,1
24386,205,-8192,-218,-2,-1,0,1
24391,205,-8191,-220,-2,-1,0,1
24396,204,-8189,-219,-2,-1,0,1
24401,200,-8190,-217,-2,-1,0,1
24406,199,-8191,-218,-2,-1,0,1
24411,199,-8189,-221,-2,-1,0,1
24416,201,-8189,-224,-2,-1,0,1
24421,206,-8188,-228,-2,-1,0,1
24426,214,-8190,-227,-2,-1,0,1
24431,219,-8189,-229,-2,-1,0,1
24436,221,-8190,-233,-2,-1,0,1
24441,221,-8191,-233,-2,-1,0,1
24446,218,-8190,-234,-2,-1,0,1
24451,214,-8192,-230,-2,-1,0,1
24456,205,-8192,-223,-2,-1,0,1
24461,198,-8192,-218,-2,-1,0,1
24466,196,-8190,-216,-2,-1,0,1
24471,193,-8191,-214,-2,-1,0,1
24476,194,-8191,-209,-2,-1,0,1
24481,198,-8192,-205,-2,-1,0,1
24486,204,-8191,-194,-2,-1,0,1
24491,206,-8191,-185,-2,-1,0,1
24496,206,-8189,-177,-2,-1,0,1
24501,203,-8190,-172,-2,-1,0,1
24506,199,-8192,-173,-2,-1,0,1
24511,195,-8194,-178,-2,-1,0,1
24516,188,-8198,-182,-2,-1,0,1
24521,183,-8197,-184,-2,-1,0,1
24526,181,-8198,-184,-2,-1,0,1
24531,182,-8198,-178,-2,-1,0,1
24536,182,-8195,-172,-2,-1,0,1
24541,181,-8192,-169,-2,-1,0,1
24546,179,-8192,-162,-2,-1,0,1
24551,176,-8189,-158,-2,-1,0,1
24556,173,-8189,-156,-2,-2,0,1
24561,169,-8190,-159,-2,-2,0,1
24566,166,-8188,-167,-2,-2,0,1
24571,168,-8190,-171,-2,-2,0,1
24576,171,-8191,-173,-2,-2,0,1
24581,177,-8191,-171,-2,-2,0,1
24586,183,-8190,-170,-2,-2,0,1
24591,186,-8190,-167,-2,-2,0,1
24596,185,-8191,-165,-2,-2,0,1
24601,177,-8193,-163,-2,-2,0,1
24606,173,-8195,-161,-2,-2,0,1
24611,171,-8195,-170,-2,-2,0,1
24616,168,-8194,-178,-2,-2,0,1
24621,168,-8196,-184,-2,-2,0,1
24626,172,-8196,-192,-2,-2,0,1
24631,176,-8192,-193,-2,-2,0,1
24636,181,-8192,-192,-2,-2,0,1
24641,183,-8195,-194,-2,-2,0,1
24646,184,-8196,-194,-2,-2,0,1
24651,186,-8196,-194,-2,-1,0,1
24656,188,-8195,-192,-2,-1,0,1
24661,194,-8197,-188,-2,-2,0,1
24666,202,-8193,-187,-2,-2,0,1
24671,208,-8194,-187,-2,-2,0,1
24676,210,-8193,-186,-2,-2,0,1
24681,213,-8194,-186,-2,-2,0,1
24686,213,-8193,-188,-2,-2,0,1
24691,208,-8191,-192,-2,-1,0,1
24696,207,-8191,-194,-2,-1,0,1
24701,207,-8192,-194,-2,-1,0,1
24706,209,-8194,-198,-2,-2,0,1
24711,209,-8195,-198,-2,-2,0,1
24716,212,-8194,-197,-2,-2,0,1
24721,208,-8193,-193,-2,-2,0,1
24726,206,-8193,-193,-2,-2,0,1
24731,204,-8190,-193,-2,-1,0,1
24736,204,-8188,-199,-2,-1,0,1
24741,202,-8188,-207,-2,-1,0,1
24746,199,-8187,-214,-2,-1,0,1
24751,195,-8187,-216,-2,-1,0,1
24756,190,-8186,-214,-2,-1,0,1
24761,188,-8187,-213,-2,-1,0,1
24766,187,-8188,-212,-2,-1,0,1
24771,185,-8187,-206,-2,-1,0,1
24776,185,-8189,-201,-2,-1,0,1
24781,188,-8190,-197,-2,-1,0,1
24785,192,-8187,-195,-2,-1,0,1
24790,196,-8188,-197,-2,-1,0,1
24795,195,-8189,-201,-2,-2,0,1
24800,195,-8188,-199,-2,-1,0,1
24805,190,-8190,-197,-2,-1,0,1
24810,180,-8189,-198,-2,-1,0,1
24815,172,-8191,-197,-2,-1,0,1
24820,168,-8190,-194,-2,-1,0,1
24825,164,-8191,-195,-2,-1,0,1
24830,166,-8189,-196,-2,-1,0,1
24835,167,-8189,-196,-2,-1,0,1
24840,170,-8188,-198,-2,-1,0,1
24845,171,-8183,-192,-2,-1,0,1
24850,169,-8183,-187,-2,-1,0,1
24855,170,-8186,-187,-2,-1,0,1
24860,169,-8187,-184,-2,-1,0,1
24865,167,-8188,-188,-2,-1,0,1
24870,166,-8187,-186,-2,-1,0,1
24875,167,-8186,-185,-2,-2,0,1
24880,172,-8185,-182,-2,-2,0,1
24885,173,-8182,-178,-2,-2,0,1
24890,178,-8184,-176,-2,-2,0,1
24895,179,-8188,-176,-2,-2,0,1
24900,182,-8193,-180,-2,-2,0,1
24905,183,-8194,-186,-2,-2,0,1
24910,184,-8194,-192,-2,-1,0,1
24915,183,-8196,-200,-2,-1,0,1
24920,185,-8197,-203,-2,-1,0,1
24925,186,-8199,-207,-2,-1,0,1
24930,184,-8197,-200,-2,-1,0,1
24935,182,-8195,-195,-2,-1,0,1
24940,183,-8192,-195,-2,-1,0,1
24945,186,-8189,-190,-2,-1,0,1
24950,190,-8187,-189,-2,-1,0,1
24955,197,-8187,-184,-2,-1,0,1
24960,206,-8188,-182,-2,-1,0,1
24965,214,-8188,-181,-2,-2,0,1
24970,218,-8187,-179,-2,-2,0,1
24975,219,-8188,-177,-2,-2,0,1
24980,213,-8189,-180,-2,-2,0,1
24985,205,-8190,-182,-2,-2,0,1
24990,200,-8191,-184,-2,-1,0,1
24995,196,-8192,-181,-2,-1,0,1
25000,189,-8196,-182,-2,-1,0,1
25005,187,-8199,-188,-2,-1,0,1
25010,184,-8201,-187,-2,-1,0,1
25015,183,-8200,-186,-2,-1,0,1
25020,185,-8197,-183,-2,-2,0,1
25025,184,-8199,-178,-2,-2,0,1
25030,182,-8200,-172,-2,-2,0,1
25035,175,-8199,-173,-2,-2,0,1
25040,169,-8195,-177,-2,-2,0,1
25045,163,-8191,-184,-2,-2,0,1
25050,161,-8190,-190,-2,-2,0,1
25055,164,-8193,-196,-2,-2,0,1
25060,168,-8193,-203,-2,-2,0,1
25065,175,-8192,-207,-2,-2,0,1
25070,179,-8195,-210,-2,-2,0,1
25075,184,-8197,-209,-2,-2,0,1
25080,182,-8198,-208,-2,-2,0,1
25085,182,-8196,-210,-2,-2,0,1
25090,176,-8193,-216,-2,-2,0,1
25095,169,-8192,-219,-2,-2,0,1
25100,168,-8192,-226,-2,-1,0,1
25105,166,-8190,-237,-2,-1,0,1
25110,165,-8194,-243,-2,-1,0,1
25115,164,-8195,-246,-2,-1,0,1
25120,161,-8197,-241,-2,-1,0,1
25125,161,-8196,-235,-2,-1,0,1
25130,157,-8194,-233,-2,-1,0,1
25135,154,-8192,-228,-2,-1,0,1
25140,151,-8192,-227,-2,-1,0,1
25145,150,-8189,-224,-2,-2,0,1
25150,151,-8185,-222,-2,-2,0,1
25155,152,-8186,-223,-2,-2,0,1
25160,150,-8186,-221,-2,-2,0,1
25165,151,-8191,-219,-2,-1,0,1
25170,151,-8189,-215,-2,-1,0,1
25175,150,-8189,-211,-2,-1,0,1
25180,149,-8188,-204,-2,-1,0,1
25185,151,-8190,-198,-2,-1,0,1
25190,148,-8192,-191,-2,-1,0,1
25195,148,-8191,-185,-2,-1,-1,1
25200,148,-8194,-173,-2,-2,0,1
25205,145,-8193,-167,-2,-2,0,1
25210,147,-8191,-160,-2,-2,0,1
25215,151,-8190,-155,-2,-2,0,1
25220,154,-8190,-147,-2,-2,-1,0
25225,159,-8192,-144,-2,-2,-1,0
25230,162,-8193,-151,-2,-2,-1,0
25235,164,-8194,-150,-2,-2,-1,0
25240,162,-8197,-152,-2,-2,-1,0
25245,153,-8199,-154,-2,-2,-1,0
25250,146,-8200,-153,-2,-2,-1,0
25255,142,-8201,-154,-2,-2,-1,0
25260,142,-8201,-156,-2,-2,-1,0
25265,149,-8199,-155,-2,-2,-1,0
25270,155,-8197,-153,-2,-2,-1,0
25275,163,-8195,-152,-2,-2,-1,0
25280,170,-8197,-146,-2,-2,-1,0
25285,176,-8198,-141,-2,-2,-1,0
25291,182,-8198,-141,-2,-2,-1,0
25297,184,-8197,-145,-2,-2,-1,0
25302,191,-8198,-150,-2,-2,-1,0
25306,201,-8199,-153,-2,-2,-1,0
25310,212,-8197,-152,-2,-2,0,0
25315,221,-8196,-157,-2,-2,0,0
25320,229,-8195,-160,-2,-2,-1,0
25325,237,-8195,-166,-2,-2,-1,0
25330,244,-8196,-172,-2,-2,-1,0
25335,249,-8196,-176,-2,-2,0,0
25340,251,-8196,-182,-2,-2,0,0
25345,251,-8196,-190,-2,-2,0,0
25350,248,-8196,-200,-2,-2,0,0
25355,243,-8197,-207,-2,-2,0,0
25360,240,-8195,-209,-2,-1,0,0
25365,236,-8192,-209,-2,-1,0,0
25370,234,-8191,-214,-2,-1,0,0
25375,236,-8190,-208,-2,-1,0,0
25380,235,-8189,-204,-2,-1,0,0
25385,233,-8190,-204,-2,-1,0,0
25390,233,-8191,-201,-2,-1,0,0
25395,231,-8192,-201,-2,-1,0,0
25399,225,-8190,-202,-2,-1,0,0
25405,219,-8188,-207,-2,-1,0,0
25410,214,-8190,-207,-2,-1,0,0
25416,210,-8192,-210,-2,-1,0,0
25420,205,-8195,-209,-2,-1,0,0
25424,205,-8191,-206,-2,-1,0,0
25429,211,-8189,-206,-2,-1,0,0
25434,215,-8189,-206,-2,-1,0,0
25439,217,-8192,-202,-2,-1,0,0
25445,217,-8193,-200,-2,-1,0,0
25450,215,-8193,-198,-2,-1,0,0
25455,211,-8192,-196,-2,-1,0,0
25461,203,-8191,-201,-2,-1,0,0
25466,200,-8190,-204,-2,-1,0,0
25470,195,-8191,-206,-2,-1,0,0
25475,194,-8189,-207,-2,-1,0,0
25480,195,-8189,-204,-2,-1,0,0
25485,197,-8188,-204,-2,-1,0,0
25490,199,-8190,-201,-2,-1,0,0
25495,198,-8191,-202,-2,-1,0,0
25500,197,-8191,-205,-2,-1,0,0
25505,194,-8191,-207,-2,-1,0,0
25509,188,-8191,-206,-2,-1,0,0
25514,179,-8189,-206,-2,-1,0,0
25520,173,-8190,-201,-2,-1,0,0
25525,169,-8190,-195,-2,-1,0,0
25530,167,-8191,-190,-2,-1,0,0
25535,168,-8190,-190,-2,-1,0,0
25539,172,-8190,-191,-2,-1,0,0
25544,175,-8190,-194,-2,-1,0,0
25549,173,-8190,-193,-2,-1,0,0
25554,170,-8189,-189,-2,-1,0,0
25559,164,-8191,-189,-2,-1,0,0
25564,156,-8193,-191,-2,-1,0,0
25569,148,-8194,-192,-2,-1,0,0
25574,142,-8193,-195,-2,-1,0,0
25579,137,-8192,-196,-2,-2,0,0
25584,135,-8195,-200,-2,-2,0,0
25589,134,-8196,-203,-2,-2,0,0
25594,135,-8193,-202,-2,-2,0,0
25599,137,-8191,-202,-2,-2,0,0
25604,135,-8194,-202,-2,-2,0,0
25609,136,-8194,-203,-2,-2,0,0
25614,138,-8193,-200,-2,-2,0,0
25619,133,-8194,-197,-2,-2,0,0
25624,129,-8193,-196,-2,-2,0,0
25629,126,-8192,-195,-2,-2,0,0
25634,126,-8190,-194,-2,-2,0,0
25639,128,-8187,-192,-2,-2,0,0
25644,134,-8187,-191,-2,-2,0,0
25649,145,-8188,-187,-2,-2,0,0
25654,152,-8190,-189,-2,-2,-1,0
25659,157,-8191,-190,-2,-2,-1,0
25664,160,-8191,-192,-2,-2,-1,0
25669,157,-8192,-194,-2,-2,-1,0
25674,152,-8191,-196,-2,-2,-1,0
25679,150,-8193,-200,-2,-2,0,0
25684,149,-8194,-199,-2,-2,0,0
25689,155,-8194,-197,-2,-1,0,0
25694,162,-8189,-193,-2,-1,0,0
25699,172,-8189,-187,-2,-1,-1,0
25704,180,-8188,-179,-2,-2,-1,0
25710,183,-8190,-177,-2,-2,-1,0
25716,181,-8190,-171,-2,-2,-1,0
25721,175,-8191,-172,-2,-2,-1,0
25727,168,-8193,-175,-2,-2,-1,0
25731,164,-8193,-176,-2,-2,-1,0
25736,165,-8193,-177,-2,-2,-1,0
25742,168,-8193,-174,-2,-2,-1,0
25747,175,-8195,-170,-2,-2,-1,0
25751,184,-8197,-166,-2,-2,-1,0
25756,190,-8197,-159,-2,-2,-1,0
25760,195,-8195,-152,-2,-2,-1,0
25764,196,-8193,-145,-2,-2,-1,0
25769,198,-8195,-147,-2,-2,-1,0
25774,199,-8195,-154,-2,-2,0,0
25779,203,-8190,-159,-2,-2,0,0
25784,210,-8189,-166,-2,-2,0,0
25789,217,-8187,-176,-2,-2,0,0
25794,223,-8188,-185,-2,-2,0,0
25799,227,-8190,-191,-2,-2,0,0
25804,231,-8191,-193,-2,-2,0,0
25809,230,-8189,-191,-2,-2,0,0
25814,226,-8192,-191,-2,-2,0,0
25819,224,-8192,-192,-2,-2,0,0
25824,219,-8193,-192,-2,-2,0,0
25829,213,-8194,-193,-2,-2,0,0
25834,209,-8193,-199,-2,-2,0,0
25839,206,-8193,-201,-2,-2,0,0
25844,204,-8193,-209,-2,-2,0,0
25849,202,-8193,-214,-2,-2,0,0
25854,204,-8194,-216,-2,-2,0,0
25859,205,-8193,-214,-2,-1,0,0
25864,206,-8192,-216,-2,-1,0,0
25869,205,-8193,-217,-2,-1,0,0
25874,203,-8195,-223,-2,-1,0,0
25879,203,-8196,-224,-2,-1,0,0
25884,202,-8197,-226,-2,-1,0,0
25889,199,-8197,-222,-2,-1,0,0
25894,198,-8195,-219,-2,-1,0,0
25899,195,-8194,-218,-2,-1,0,0
25904,192,-8193,-219,-2,-1,0,0
25909,193,-8192,-218,-2,-1,0,0
25914,199,-8194,-218,-2,-1,0,0
25919,203,-8193,-218,-2,-1,0,0
25924,208,-8192,-217,-2,-1,0,0
25929,211,-8194,-213,-2,-2,0,0
25934,210,-8194,-207,-2,-1,0,0
25939,209,-8193,-208,-2,-1,0,0
25944,205,-8194,-215,-2,-1,0,0
25949,203,-8195,-217,-2,-1,0,0
25954,197,-8196,-209,-2,-1,0,0
25959,195,-8197,-205,-2,-1,0,0
25964,193,-8197,-200,-2,-1,0,0
25969,190,-8196,-198,-2,-1,0,0
25974,190,-8197,-194,-2,-1,0,0
25979,189,-8194,-188,-2,-1,0,0
25984,186,-8193,-181,-2,-1,0,0
25989,181,-8192,-174,-2,-1,0,0
25994,174,-8191,-175,-2,-1,0,0
25999,168,-8193,-176,-2,-1,0,0
26004,162,-8193,-178,-2,-1,0,0
26009,155,-8189,-180,-2,-2,0,0
26014,154,-8187,-177,-2,-1,0,0
26019,156,-8188,-175,-2,-2,0,0
26024,158,-8189,-179,-2,-2,0,0
26029,159,-8186,-178,-2,-2,0,0
26034,163,-8185,-175,-2,-2,0,0
26039,162,-8186,-177,-2,-2,0,0
26044,160,-8186,-178,-2,-2,0,0
26049,157,-8187,-180,-2,-2,0,0
26054,156,-8188,-180,-2,-2,0,0
26059,156,-8189,-181,-2,-2,0,0
26064,157,-8189,-183,-2,-2,0,0
26069,158,-8189,-180,-2,-2,0,0
26074,158,-8190,-176,-2,-2,0,0
26079,158,-8192,-173,-2,-2,0,0
26084,157,-8190,-174,-2,-2,0,0
26089,159,-8191,-176,-2,-2,0,0
26094,165,-8191,-182,-2,-2,0,0
26099,172,-8189,-187,-2,-2,0,0
26104,183,-8187,-192,-2,-1,0,0
26109,191,-8187,-198,-2,-1,0,0
26114,198,-8190,-198,-2,-2,0,0
26119,200,-8190,-199,-2,-1,0,0
26124,203,-8192,-202,-2,-2,0,0
26129,204,-8192,-202,-2,-2,0,0
26134,205,-8191,-199,-2,-1,0,0
26139,205,-8189,-198,-2,-1,0,0
26144,205,-8191,-194,-2,-1,0,0
26149,209,-8192,-192,-2,-2,0,0
26154,211,-8192,-199,-2,-2,0,0
26158,214,-8194,-204,-2,-2,0,0
26163,217,-8195,-205,-2,-2,0,0
26168,216,-8193,-203,-2,-2,0,0
26173,212,-8190,-204,-2,-2,0,0
26178,206,-8189,-206,-2,-2,0,0
26183,199,-8191,-211,-2,-2,0,0
26188,194,-8193,-215,-2,-2,0,0
26193,191,-8194,-223,-2,-2,0,0
26198,187,-8193,-227,-2,-2,0,0
26203,181,-8193,-235,-2,-2,0,0
26208,176,-8193,-242,-2,-2,0,0
26213,166,-8193,-249,-2,-1,0,0
26218,155,-8194,-253,-2,-1,0,0
26223,147,-8194,-252,-2,-1,0,0
26228,135,-8195,-253,-2,-1,0,0
26233,125,-8196,-253,-2,-1,0,0
26238,118,-8194,-251,-2,-1,0,0
26243,115,-8192,-249,-2,-1,0,0
26248,116,-8192,-244,-2,-1,-1,0
26253,117,-8193,-241,-2,-1,0,0
26258,124,-8196,-238,-2,-1,-1,0
26263,132,-8199,-236,-2,-2,-1,0
26268,141,-8199,-232,-2,-2,-1,0
26273,143,-8199,-231,-2,-1,-1,0
26278,140,-8198,-220,-2,-1,-1,0
26283,136,-8197,-212,-2,-1,-1,0
26288,131,-8193,-204,-2,-1,-1,0
26293,128,-8195,-195,-2,-1,-1,0
26298,129,-8194,-192,-2,-1,-1,0
26303,126,-8194,-185,-2,-1,-1,0
26308,128,-8192,-173,-2,-1,-1,0
26313,133,-8192,-162,-2,-2,-1,0
26318,137,-8193,-152,-2,-2,-1,0
26323,144,-8189,-149,-2,-2,-1,0
26328,151,-8188,-143,-2,-2,-1,0
26333,160,-8189,-134,-2,-2,-1,0
26338,167,-8189,-127,-2,-2,-1,0
26343,175,-8190,-120,-2,-2,-1,0
26348,182,-8192,-112,-2,-2,-1,0
26353,186,-8191,-113,-2,-2,-1,0
26358,185,-8193,-113,-2,-2,-1,0
26363,185,-8194,-119,-2,-2,-1,0
26368,186,-8193,-122,-2,-2,-1,0
26373,190,-8191,-126,-2,-2,-1,0
26378,193,-8188,-130,-2,-2,-1,0
26383,198,-8186,-136,-2,-2,-1,0
26388,199,-8188,-143,-2,-2,-1,0
26393,203,-8190,-147,-2,-2,-1,0
26398,212,-8189,-149,-2,-2,-1,0
26403,219,-8187,-155,-2,-2,-1,0
26408,227,-8186,-159,-2,-2,-1,0
26413,232,-8187,-168,-2,-2,-1,0
26418,234,-8187,-171,-2,-2,-1,0
26423,235,-8188,-175,-2,-2,-1,0
26428,240,-8188,-178,-2,-2,-1,0
26433,243,-8186,-185,-2,-2,-1,0
26438,244,-8183,-195,-2,-2,-1,0
26443,248,-8182,-203,-2,-2,0,0
26448,255,-8183,-209,-2,-2,0,0
26453,263,-8183,-211,-2,-1,0,0
26458,269,-8181,-215,-2,-1,0,0
26463,268,-8181,-220,-2,-1,0,0
26468,269,-8182,-224,-2,-1,0,0
26473,266,-8186,-231,-2,-1,0,0
26478,260,-8188,-229,-2,-1,0,0
26483,255,-8189,-230,-2,-1,0,0
26488,253,-8192,-235,-2,-1,0,0
26493,252,-8192,-235,-2,-1,0,0
26498,250,-8192,-234,-2,-1,0,0
26503,248,-8191,-232,-2,-1,0,0
26508,248,-8188,-232,-2,-1,0,0
26513,246,-8190,-229,-2,-1,0,0
26518,240,-8191,-232,-2,-1,0,0
26523,235,-8191,-234,-2,-1,0,0
26528,232,-8191,-237,-2,-1,0,0
26533,226,-8191,-242,-2,-1,0,0
26538,224,-8192,-242,-2,-1,0,0
26543,222,-8192,-242,-2,-1,0,0
26548,224,-8192,-235,-2,-1,0,0
26553,225,-8190,-225,-2,-1,0,0
26558,226,-8190,-217,-2,-1,0,0
26563,224,-8191,-203,-2,-1,0,0
26568,219,-8191,-193,-2,-1,0,0
26573,215,-8190,-188,-2,-1,0,0
26578,211,-8193,-188,-2,-1,0,0
26583,205,-8194,-194,-2,-1,0,0
26588,201,-8194,-201,-2,-1,0,0
26593,197,-8193,-206,-2,-1,0,0
26598,192,-8194,-204,-2,-1,0,0
26603,187,-8195,-196,-2,-1,0,0
26608,187,-8195,-184,-2,-1,0,0
26613,185,-8194,-173,-2,-1,0,0
26618,183,-8196,-165,-2,-1,0,0
26623,179,-8193,-161,-2,-1,0,0
26628,174,-8193,-164,-2,-2,0,0
26633,173,-8193,-163,-2,-2,0,0
26638,171,-8193,-165,-2,-2,0,0
26643,169,-8193,-175,-2,-2,0,0
26648,166,-8194,-184,-2,-2,0,0
26653,163,-8193,-193,-2,-2,0,0
26658,156,-8195,-193,-2,-2,0,0
26663,146,-8197,-192,-2,-2,0,0
26668,134,-8199,-187,-2,-2,0,0
26673,123,-8199,-187,-2,-2,0,0
26678,114,-8196,-187,-2,-2,0,0
26683,108,-8199,-187,-2,-2,0,0
26688,108,-8196,-186,-2,-2,0,0
26693,108,-8195,-181,-2,-2,0,0
26698,110,-8192,-183,-2,-2,0,0
26703,110,-8191,-186,-2,-2,-1,0
26708,110,-8190,-186,-2,-2,-1,0
26713,112,-8193,-182,-2,-2,-1,0
26718,115,-8196,-176,-2,-2,-1,0
26724,116,-8197,-174,-2,-2,-1,0
26728,119,-8198,-178,-2,-2,-1,0
26734,120,-8197,-178,-2,-2,-1,0
26738,123,-8191,-177,-2,-2,-1,0
26743,124,-8189,-181,-2,-2,-1,0
26748,123,-8190,-185,-2,-2,-1,0
26753,123,-8190,-188,-2,-2,-1,0
26758,120,-8190,-193,-2,-2,-1,0
26763,121,-8195,-195,-2,-2,-1,0
26768,124,-8195,-198,-2,-2,-1,0
26773,132,-8193,-202,-2,-2,-1,0
26778,142,-8192,-206,-2,-2,-1,0
26783,153,-8192,-210,-2,-2,-1,0
26788,167,-8192,-211,-2,-2,-1,0
26793,178,-8192,-213,-2,-2,-1,0
26798,188,-8191,-215,-2,-2,-1,0
26803,199,-8190,-215,-2,-2,-1,0
26808,205,-8190,-217,-2,-2,-1,0
26814,211,-8189,-217,-2,-2,-1,0
26820,219,-8188,-216,-2,-2,-1,0
26825,228,-8190,-211,-2,-2,-1,0
26830,233,-8192,-207,-2,-2,-1,0
26834,241,-8192,-205,-2,-2,-1,0
26840,241,-8193,-204,-2,-2,-1,0
26846,240,-8194,-208,-2,-2,-1,0
26850,242,-8194,-213,-2,-2,-1,0
26856,243,-8194,-222,-2,-2,-1,0
26862,244,-8194,-228,-2,-2,-1,0
26867,247,-8190,-231,-2,-2,0,0
26871,251,-8190,-230,-2,-2,0,0
26875,258,-8187,-229,-2,-1,0,0
26879,266,-8188,-227,-2,-2,0,0
26883,269,-8187,-227,-2,-2,0,0
26888,272,-8189,-226,-2,-1,0,0
26893,272,-8189,-229,-2,-1,0,0
26898,266,-8189,-232,-2,-1,0,0
26903,263,-8193,-232,-2,-1,0,0
26908,256,-8193,-234,-2,-1,0,0
26913,251,-8190,-235,-2,-1,0,0
26918,245,-8188,-230,-2,-1,0,0
26923,236,-8189,-224,-2,-1,0,0
26928,229,-8190,-217,-2,-1,0,0
26933,225,-8190,-209,-2,-1,0,0
26938,223,-8191,-197,-2,-1,0,0
26942,215,-8191,-189,-2,-1,0,0
26947,210,-8192,-184,-2,-1,0,0
26953,210,-8194,-181,-2,-1,0,0
26958,207,-8191,-179,-2,-1,0,0
26963,206,-8192,-171,-2,-1,0,0
26967,204,-8191,-168,-2,-1,0,0
26973,205,-8190,-164,-2,-1,0,0
26978,205,-8188,-159,-2,-1,0,0
26983,205,-8190,-149,-2,-1,0,0
26989,209,-8190,-137,-2,-1,0,0
26993,214,-8190,-132,-2,-1,0,0
26997,214,-8188,-130,-2,-2,0,0
27002,214,-8186,-125,-2,-2,0,0
27007,212,-8185,-124,-2,-2,0,0
27012,215,-8188,-127,-2,-2,0,0
27017,217,-8187,-128,-2,-2,0,0
27022,215,-8186,-131,-2,-2,0,0
27027,212,-8186,-135,-2,-2,0,0
27032,209,-8184,-136,-2,-2,0,0
27037,207,-8186,-139,-2,-2,0,0
27042,203,-8186,-142,-2,-2,0,0
27047,199,-8188,-141,-2,-2,0,0
27052,198,-8186,-141,-2,-2,0,0
27057,198,-8187,-145,-2,-2,0,0
27062,201,-8189,-151,-2,-2,0,0
27067,202,-8192,-161,-2,-2,0,0
27072,202,-8191,-168,-2,-2,0,0
27077,201,-8189,-179,-2,-2,0,0
27082,199,-8189,-189,-2,-2,0,0
27087,194,-8190,-197,-2,-2,0,0
27092,190,-8190,-202,-2,-2,0,0
27097,189,-8187,-209,-2,-2,0,0
27102,189,-8189,-206,-2,-2,0,0
27107,191,-8193,-201,-2,-2,0,0
27112,189,-8193,-202,-2,-1,0,0
27117,189,-8193,-210,-2,-1,0,0
27122,187,-8192,-219,-2,-2,0,0
27127,184,-8195,-224,-2,-2,0,0
27132,184,-8195,-230,-2,-2,0,0
27137,179,-8193,-234,-2,-2,0,0
27142,177,-8194,-238,-2,-2,0,0
27147,178,-8191,-237,-2,-2,0,0
27152,185,-8189,-238,-2,-1,0,0
27157,192,-8191,-236,-2,-1,0,0
27162,197,-8191,-231,-2,-1,0,0
27167,200,-8192,-229,-2,-2,0,0
27172,202,-8192,-228,-2,-2,0,0
27177,200,-8192,-225,-2,-1,0,0
27182,194,-8192,-223,-2,-1,0,0
27187,188,-8194,-221,-2,-2,0,0
27192,180,-8195,-219,-2,-2,0,0
27197,179,-8194,-223,-2,-1,0,0
27202,180,-8194,-222,-2,-1,0,0
27207,184,-8193,-221,-2,-1,0,0
27212,193,-8190,-219,-2,-2,0,0
27217,201,-8190,-217,-2,-2,0,1
27222,206,-8192,-214,-2,-2,0,1
27227,211,-8192,-210,-2,-2,-1,1
27232,209,-8192,-203,-2,-2,-1,1
27237,200,-8194,-198,-2,-2,-1,1
27242,190,-8194,-195,-2,-2,-1,1
27247,181,-8193,-196,-2,-2,0,1
27252,174,-8196,-196,-2,-2,0,1
27257,173,-8198,-197,-2,-2,0,1
27262,174,-8196,-198,-2,-2,-1,1
27267,174,-8195,-193,-2,-2,-1,1
27272,171,-8194,-190,-2,-2,-1,1
27277,166,-8195,-188,-2,-2,-1,1
27282,159,-8192,-189,-2,-2,-1,1
27287,147,-8192,-184,-2,-2,-1,1
27292,138,-8193,-181,-2,-2,-1,1
27297,129,-8194,-176,-2,-2,-1,1
27302,124,-8196,-178,-2,-2,-1,1
27307,124,-8194,-178,-2,-2,-1,1
27312,126,-8193,-176,-2,-2,-1,1
27317,132,-8197,-171,-2,-2,-1,1
27322,139,-8196,-164,-2,-2,-1,1
27327,138,-8195,-158,-2,-2,-1,1
27332,132,-8192,-152,-2,-2,-1,1
27337,123,-8191,-145,-2,-2,-1,1
27342,109,-8193,-141,-2,-3,-1,1
27347,90,-8194,-136,-2,-3,-1,1
27352,76,-8194,-130,-2,-3,-1,1
27357,66,-8196,-126,-2,-3,-1,1
27362,56,-8199,-123,-2,-3,-1,1
27367,43,-8200,-123,-2,-4,-1,1
27372,32,-8202,-121,-2,-4,-1,1
27377,23,-8202,-120,-2,-5,-2,1
27382,7,-8204,-115,-2,-6,-2,1
27387,-16,-8204,-110,-2,-7,-2,1
27392,-44,-8203,-103,-2,-8,-2,1
27397,-73,-8203,-92,-2,-9,-2,1
27402,-104,-8203,-86,-2,-10,-2,1
27407,-132,-8203,-78,-2,-10,-2,1
27412,-156,-8202,-76,-2,-11,-2,1
27417,-170,-8199,-76,-2,-12,-3,1
27422,-186,-8198,-70,-2,-14,-3,1
27427,-206,-8197,-70,-2,-15,-3,1
27432,-210,-8195,-63,-2,-15,-3,1
27437,-212,-8194,-51,-2,-16,-3,1
27442,-206,-8195,-45,-2,-17,-3,1
27447,-200,-8196,-43,-2,-18,-4,1
27452,-200,-8200,-50,-2,-19,-4,1
27457,-195,-8203,-64,-2,-20,-4,1
27462,-200,-8203,-80,-2,-21,-4,1
27467,-218,-8202,-101,-2,-23,-5,1
27472,-257,-8203,-120,-2,-25,-5,1
27477,-308,-8206,-134,-2,-27,-5,1
27482,-368,-8205,-140,-2,-28,-5,1
27487,-435,-8204,-145,-2,-29,-5,1
27492,-489,-8205,-138,-2,-29,-6,1
27497,-533,-8204,-129,-2,-29,-6,1
27502,-570,-8203,-110,-2,-30,-6,1
27507,-581,-8203,-91,-2,-32,-6,1
27512,-599,-8201,-64,-2,-34,-7,1
27517,-594,-8203,-33,-2,-35,-7,1
27522,-600,-8202,1,-2,-38,-8,1
27527,-597,-8201,44,-2,-42,-8,1
27532,-601,-8198,75,-2,-46,-8,1
27537,-615,-8197,103,-2,-50,-9,1
27542,-613,-8199,129,-3,-55,-9,1
27547,-622,-8197,146,-3,-60,-10,1
27552,-621,-8197,163,-3,-65,-10,1
27557,-627,-8197,171,-3,-68,-10,1
27562,-635,-8193,170,-3,-72,-11,1
27567,-629,-8193,164,-3,-76,-11,1
27572,-633,-8191,145,-3,-79,-11,1
27577,-635,-8188,124,-3,-81,-12,1
27582,-640,-8186,93,-3,-83,-12,1
27587,-652,-8182,57,-3,-83,-12,1
27591,-661,-8179,27,-3,-82,-13,1
27597,-681,-8177,-3,-4,-81,-13,1
27602,-695,-8174,-25,-4,-79,-13,1
27606,-701,-8172,-35,-4,-78,-14,1
27611,-701,-8170,-32,-4,-76,-14,1
27616,-689,-8168,-31,-4,-76,-14,1
27621,-684,-8166,-24,-5,-74,-14,1
27626,-666,-8163,-23,-5,-71,-15,1
27631,-635,-8158,-31,-5,-70,-15,1
27636,-599,-8155,-35,-5,-73,-15,1
27641,-572,-8151,-40,-5,-78,-16,1
27646,-556,-8149,-39,-5,-83,-16,1
27651,-538,-8145,-29,-5,-86,-16,1
27656,-522,-8142,-16,-5,-88,-17,1
27661,-498,-8135,-6,-5,-89,-17,1
27666,-464,-8130,-6,-5,-91,-17,1
27671,-435,-8125,-20,-5,-94,-18,1
27676,-409,-8123,-50,-6,-96,-18,1
27681,-390,-8119,-87,-6,-97,-18,1
27686,-380,-8115,-135,-6,-97,-19,1
27692,-376,-8108,-178,-6,-96,-19,1
27698,-373,-8103,-217,-7,-94,-19,1
27703,-369,-8098,-241,-7,-92,-19,1
27710,-362,-8092,-265,-7,-89,-19,1
27715,-340,-8090,-283,-7,-87,-20,1
27720,-313,-8087,-302,-7,-87,-20,1
27724,-281,-8084,-319,-7,-86,-20,1
27728,-235,-8081,-338,-8,-86,-20,1
27733,-173,-8073,-362,-8,-87,-20,1
27737,-105,-8065,-388,-8,-87,-20,1
27741,-27,-8057,-412,-8,-88,-20,1
27746,50,-8050,-437,-8,-89,-21,1
27751,121,-8043,-461,-8,-90,-21,1
27756,187,-8034,-484,-8,-90,-21,1
27761,250,-8026,-509,-9,-90,-21,1
27766,313,-8019,-538,-9,-89,-21,1
27771,390,-8010,-569,-9,-89,-21,1
27776,487,-8002,-602,-9,-89,-21,1
27781,603,-7996,-638,-9,-88,-20,1
27786,732,-7992,-674,-9,-88,-20,1
27791,863,-7984,-707,-9,-88,-20,1
27796,984,-7980,-745,-9,-87,-20,1
27801,1090,-7978,-783,-9,-84,-20,1
27806,1178,-7976,-823,-10,-81,-19,1
27811,1250,-7976,-862,-10,-77,-19,1
27816,1309,-7977,-898,-10,-73,-19,1
27821,1336,-7977,-924,-10,-70,-18,1
27826,1376,-7976,-950,-10,-67,-18,1
27831,1444,-7973,-975,-10,-63,-18,1
27836,1587,-7966,-1006,-10,-58,-17,1
27841,1762,-7965,-1028,-10,-55,-18,1
27846,1898,-7962,-1040,-11,-54,-18,1
27851,2015,-7961,-1056,-11,-56,-18,1
27856,2059,-7965,-1055,-11,-57,-17,1
27861,2071,-7966,-1065,-11,-57,-17,1
27866,2123,-7967,-1111,-11,-56,-17,1
27871,2226,-7962,-1186,-11,-54,-16,1
27876,2330,-7880,-1269,-11,-51,-16,1
27881,2405,-7721,-1353,-12,-50,-16,1
27886,2520,-7481,-1432,-12,-48,-16,1
27891,2737,-7214,-1499,-12,-41,-17,1
27897,3124,-7151,-1568,-13,-31,-19,1
27903,3482,-7045,-1693,-13,-22,-21,1
27908,3693,-6783,-1753,-14,-22,-22,1
27913,3716,-6707,-1725,-14,-29,-23,1
27917,3629,-6723,-1675,-14,-34,-23,1
27921,3504,-6723,-1598,-15,-32,-23,1
27926,3467,-6835,-1551,-15,-28,-23,1
27931,3484,-7090,-1541,-15,-26,-23,1
27936,3494,-7166,-1546,-15,-28,-23,1
27941,3436,-7203,-1468,-14,-34,-23,1
27946,3325,-7239,-1415,-14,-41,-23,1
27951,3160,-7406,-1416,-15,-44,-22,1
27956,2989,-7446,-1415,-15,-44,-22,1
27961,2801,-7408,-1408,-15,-44,-21,1
27966,2655,-7553,-1431,-15,-45,-21,1
27971,2526,-7639,-1423,-16,-43,-21,1
27976,2371,-7715,-1447,-16,-39,-22,1
27981,2198,-7726,-1408,-16,-36,-22,1
27986,2016,-7730,-1337,-16,-34,-23,1
27991,1895,-7694,-1336,-18,-31,-24,1
27996,1776,-7661,-1344,-18,-29,-24,1
28001,1578,-7608,-1306,-19,-27,-23,1
28006,1391,-7551,-1244,-19,-25,-24,1
28011,1354,-7487,-1282,-20,-21,-25,1
28016,1663,-7342,-1566,-18,-12,-23,1
28021,1959,-7364,-1711,-16,-3,-19,1
28026,2410,-7443,-1937,-17,-3,-18,1
28031,2786,-7493,-2008,-17,-4,-17,1
28036,2862,-7672,-1898,-17,-8,-16,1
28041,2589,-7831,-1647,-17,-16,-16,1
28046,2731,-7807,-1775,-17,-18,-18,1
28051,2787,-7868,-1708,-17,-7,-17,1
28056,2943,-7811,-1811,-17,-6,-18,1
28061,2938,-7796,-1795,-17,-12,-18,1
28066,2802,-7768,-1770,-18,-22,-18,1
28071,2613,-7756,-1735,-18,-27,-17,1
28076,2436,-7728,-1673,-18,-24,-17,1
28081,2341,-7665,-1632,-18,-18,-16,1
28086,2404,-7579,-1701,-17,-15,-16,1
28091,2277,-7513,-1627,-18,-14,-15,1
28096,2176,-7588,-1617,-17,-19,-15,1
28101,2157,-7576,-1661,-18,-21,-15,1
28106,2098,-7640,-1613,-18,-18,-14,1
28111,2163,-7675,-1654,-18,-17,-14,1
28116,2152,-7797,-1656,-18,-15,-13,1
28121,2183,-7932,-1684,-18,-17,-13,1
28126,2177,-8023,-1675,-17,-15,-12,1
28131,2128,-8091,-1670,-17,-14,-11,1
28136,2105,-8158,-1640,-17,-15,-10,1
28141,2096,-8169,-1651,-17,-15,-10,1
28146,2038,-8283,-1626,-16,-15,-9,1
28151,2015,-8578,-1652,-16,-17,-8,1
28156,2100,-8485,-1829,-16,-17,-8,1
28161,1848,-8548,-1543,-14,-18,-7,1
28166,1713,-8433,-1511,-14,-27,-6,1
28171,1678,-8400,-1492,-13,-23,-6,1
28176,1703,-8463,-1596,-12,-20,-4,1
28181,1925,-8620,-1793,-12,-21,-5,1
28186,2001,-8785,-1923,-12,-21,-4,1
28191,2106,-8656,-1905,-11,-24,-4,1
28196,2017,-8595,-1784,-10,-24,-4,1
28201,1974,-8555,-1739,-10,-23,-3,1
28206,1870,-8526,-1742,-9,-20,-2,1
28211,1849,-8505,-1798,-8,-20,-2,1
28216,1896,-8489,-1880,-8,-18,-1,1
28221,1989,-8431,-1931,-7,-16,-1,1
28226,2178,-8372,-1962,-7,-16,-1,1
28231,2320,-8322,-2042,-6,-16,-2,1
28236,2393,-8282,-2127,-6,-19,-2,1
28241,2409,-8232,-2207,-6,-22,-2,1
28246,2324,-8180,-2278,-6,-23,-2,1
28251,2253,-8122,-2317,-5,-23,-1,1
28256,2193,-8088,-2363,-5,-19,-1,1
28261,2164,-8080,-2406,-5,-15,-1,1
28266,2229,-8079,-2423,-4,-12,0,1
28271,2234,-8073,-2478,-4,-9,0,1
28276,2229,-8064,-2499,-4,-8,0,1
28281,2232,-8049,-2542,-4,-8,0,1
28286,2254,-8037,-2569,-4,-8,1,1
28291,2269,-8029,-2570,-4,-7,1,1
28296,2283,-8008,-2564,-3,-6,1,1
28301,2281,-7980,-2544,-3,-5,1,1
28306,2261,-7955,-2548,-3,-4,2,1
28311,2232,-7869,-2569,-3,-4,2,1
28316,2242,-7860,-2548,-3,-2,2,1
28321,2401,-7862,-2590,-3,-2,2,1
28326,2508,-7881,-2592,-3,0,2,1
28331,2571,-7867,-2601,-2,-2,2,1
28336,2557,-7828,-2603,-2,-4,2,1
28341,2490,-7791,-2584,-2,-5,2,1
28346,2439,-7748,-2603,-2,-4,2,1
28351,2391,-7729,-2580,-2,-2,3,1
28356,2452,-7697,-2580,-2,-1,3,1
28361,2505,-7698,-2574,-2,2,3,1
28366,2645,-7701,-2591,-2,3,3,1
28371,2719,-7703,-2629,-2,3,2,1
28376,2692,-7695,-2626,-2,1,2,1
28381,2619,-7669,-2635,-2,-1,2,1
28386,2483,-7643,-2602,-2,1,2,1
28391,2398,-7627,-2572,-2,4,2,1
28396,2380,-7622,-2539,-1,7,3,1
28401,2401,-7643,-2523,-1,9,3,1
28406,2457,-7663,-2532,-1,9,3,1
28411,2517,-7696,-2527,-1,9,3,1
28416,2561,-7711,-2537,-1,8,2,1
28421,2554,-7730,-2541,-1,6,2,1
28426,2545,-7730,-2539,-1,5,2,1
28431,2449,-7725,-2503,-1,6,3,1
28436,2388,-7726,-2493,0,7,3,1
28441,2348,-7722,-2493,0,9,3,1
28446,2329,-7745,-2475,0,11,3,1
28451,2376,-7756,-2506,0,11,3,1
28456,2383,-7776,-2497,0,12,3,1
28461,2414,-7788,-2513,0,10,3,1
28466,2419,-7799,-2518,0,10,3,1
28471,2398,-7819,-2511,1,9,4,1
28476,2372,-7815,-2515,1,10,4,1
28481,2322,-7834,-2497,1,12,4,1
28486,2332,-7841,-2494,1,14,4,1
28491,2336,-7853,-2479,1,16,5,1
28496,2344,-7875,-2469,2,16,5,1
28500,2378,-7891,-2493,2,17,5,1
28505,2392,-7908,-2494,2,18,5,1
28511,2447,-7924,-2504,2,17,6,1
28515,2501,-7937,-2513,2,17,6,1
28520,2495,-7956,-2507,3,18,6,1
28525,2496,-7967,-2510,3,17,6,1
28530,2448,-7952,-2507,3,19,7,1
28535,2397,-7942,-2489,4,21,7,1
28540,2404,-7945,-2485,4,23,8,1
28545,2441,-7943,-2502,4,25,8,1
28550,2484,-7941,-2510,4,26,8,1
28555,2506,-7938,-2517,5,26,8,1
28560,2551,-7932,-2555,5,25,8,1
28565,2555,-7929,-2564,5,26,9,1
28570,2504,-7908,-2536,5,26,9,1
28575,2454,-7882,-2516,5,27,9,1
28580,2403,-7875,-2524,6,29,10,1
28585,2459,-7893,-2527,6,31,10,1
28590,2476,-7910,-2519,6,33,10,1
28595,2506,-7878,-2489,6,33,10,1
28600,2478,-7876,-2469,7,33,10,1
28605,2404,-7866,-2460,7,32,10,1
28610,2342,-7840,-2459,7,31,10,1
28615,2293,-7815,-2443,7,33,11,1
28620,2265,-7782,-2415,7,35,11,1
28625,2296,-7770,-2434,7,36,11,1
28630,2348,-7772,-2422,7,39,11,1
28635,2366,-7776,-2370,8,39,11,1
28640,2382,-7778,-2352,8,39,10,1
28645,2359,-7762,-2307,8,38,10,1
28650,2249,-7735,-2245,8,38,10,1
28655,2173,-7733,-2181,8,38,10,1
28660,2107,-7729,-2169,8,41,11,1
28665,2066,-7737,-2145,8,44,11,1
28670,2054,-7749,-2101,8,45,11,1
28675,2066,-7763,-2071,8,44,11,1
28680,2074,-7765,-2014,8,45,10,1
28685,2041,-7747,-1957,8,45,10,1
28690,1991,-7749,-1916,8,44,10,1
28695,1965,-7750,-1897,8,43,10,1
28700,1938,-7750,-1832,8,44,10,1
28705,1912,-7739,-1781,8,45,10,1
28710,1909,-7750,-1722,7,45,10,1
28715,1924,-7760,-1684,7,46,10,1
28720,1925,-7755,-1638,7,46,10,1
28725,1942,-7756,-1590,7,45,10,1
28730,1937,-7756,-1560,7,45,9,1
28735,1912,-7763,-1490,7,46,9,1
28740,1900,-7762,-1455,7,45,9,1
28745,1882,-7764,-1425,6,46,9,1
28750,1877,-7777,-1376,6,46,9,1
28755,1906,-7790,-1331,6,45,9,1
28760,1928,-7813,-1274,6,46,9,1
28765,1941,-7823,-1221,6,45,9,1
28770,1951,-7842,-1172,6,44,9,1
28775,1967,-7854,-1115,5,44,9,1
28780,1994,-7876,-1049,5,43,10,1
28785,2028,-7899,-991,5,42,10,1
28790,2061,-7912,-938,5,41,10,1
28795,2097,-7925,-896,5,40,10,1
28800,2174,-7933,-837,5,40,11,1
28805,2243,-7940,-826,5,39,11,1
28810,2312,-7945,-791,5,39,11,1
28815,2384,-7943,-767,4,38,11,1
28820,2416,-7930,-751,4,37,12,1
28825,2465,-7915,-745,4,37,12,1
28830,2530,-7887,-733,4,38,12,1
28835,2564,-7884,-703,3,38,12,1
28840,2613,-7844,-687,3,38,12,1
28845,2597,-7844,-659,3,38,12,1
28850,2668,-7857,-649,3,37,12,1
28855,2683,-7870,-638,3,37,12,1
28860,2637,-7885,-629,3,35,12,1
28865,2578,-7900,-619,3,32,12,1
28870,2447,-7912,-609,3,29,12,1
28875,2317,-7922,-605,3,27,12,1
28880,2213,-7935,-602,2,26,12,1
28885,2122,-7943,-605,2,25,13,1
28890,2075,-7950,-606,2,25,13,1
28895,2052,-7959,-618,2,25,13,1
28900,2043,-7964,-626,2,25,13,1
28905,2053,-7967,-630,2,25,13,1
28910,2059,-7969,-646,2,25,13,1
28915,2060,-7971,-654,2,24,13,1
28920,2047,-7973,-655,2,22,13,1
28925,2010,-7977,-652,2,19,13,1
28930,1957,-7980,-642,2,17,13,1
28935,1902,-7983,-641,2,15,13,1
28940,1846,-7988,-645,2,15,13,1
28945,1789,-7989,-649,2,14,13,1
28950,1733,-7994,-656,2,13,13,1
28955,1671,-7997,-664,2,12,13,1
28960,1614,-7999,-672,2,11,13,1
28965,1561,-8004,-671,1,10,13,1
28970,1517,-8008,-677,1,8,12,1
28975,1484,-8008,-673,1,7,12,1
28980,1454,-8008,-674,1,6,12,1
28985,1432,-8008,-671,1,5,12,1
28990,1417,-8012,-666,1,3,12,1
28995,1411,-8012,-670,2,1,12,1
29000,1406,-8014,-677,2,-1,12,1
29005,1398,-8017,-688,2,-3,12,1
29010,1387,-8020,-702,2,-5,12,1
29015,1367,-8025,-712,2,-6,12,1
29020,1340,-8028,-727,2,-7,12,1
29025,1312,-8030,-741,2,-7,11,1
29030,1278,-8032,-761,2,-6,11,1
29035,1232,-8029,-774,2,-2,11,1
29040,1188,-8031,-776,2,4,12,1
29045,1153,-8032,-803,2,11,12,1
29050,1133,-8031,-816,2,15,12,1
29055,1123,-8034,-834,2,16,12,1
29060,1108,-8036,-864,2,17,11,1
29065,1089,-8039,-892,2,18,11,1
29070,1063,-8042,-923,2,19,11,1
29075,1029,-8043,-946,2,20,11,1
29080,1000,-8044,-966,2,21,11,1
29085,972,-8049,-979,2,21,11,1
29090,951,-8053,-992,2,21,11,1
29095,936,-8054,-999,2,19,11,1
29100,928,-8058,-1003,3,17,11,1
29105,915,-8059,-1020,3,13,10,1
29110,915,-8065,-1036,3,8,10,1
29115,916,-8067,-1052,3,4,10,1
29120,916,-8067,-1081,4,0,10,1
29125,913,-8069,-1100,4,-3,9,1
29130,898,-8071,-1110,4,-5,9,1
29135,882,-8071,-1126,4,-6,9,1
29140,866,-8073,-1131,5,-5,9,1
29145,846,-8078,-1122,5,-2,8,1
29150,826,-8080,-1113,5,3,8,1
29155,805,-8083,-1101,5,8,9,1
29160,775,-8085,-1086,5,15,9,1
29165,742,-8085,-1067,5,22,9,1
29170,708,-8088,-1052,5,31,9,1
29175,679,-8087,-1045,5,40,9,1
29180,664,-8088,-1049,5,50,9,1
29185,655,-8089,-1043,5,57,9,1
29190,650,-8092,-1048,4,60,9,1
29195,662,-8093,-1043,4,61,9,1
29199,679,-8095,-1025,4,60,9,1
29204,674,-8101,-997,5,58,9,1
29209,663,-8102,-943,4,59,9,1
29214,655,-8102,-883,4,63,9,0
29219,660,-8105,-820,4,66,9,0
29224,645,-8093,-756,4,71,9,0
29229,625,-8090,-705,4,83,10,0
29234,591,-8090,-650,4,99,10,0
29239,598,-8093,-605,4,110,11,0
29244,636,-8092,-585,3,117,11,0
29249,684,-8093,-586,3,121,11,0
29254,738,-8099,-584,3,123,11,0
29259,793,-8102,-572,3,121,11,0
29264,798,-8100,-578,3,117,11,0
29269,779,-8092,-578,3,116,11,0
29274,745,-8089,-602,3,122,11,0
29279,718,-8095,-609,3,131,12,0
29284,659,-8099,-648,3,147,12,0
29289,623,-8099,-679,2,166,12,0
29294,636,-8099,-709,2,178,12,0
29299,673,-8103,-741,2,182,12,0
29304,743,-8107,-746,2,178,12,0
29309,849,-8113,-728,2,167,12,0
29314,967,-8114,-689,2,151,12,0
29319,844,-8127,-545,2,132,12,0
29324,577,-8130,-309,1,104,7,0
29329,321,-8128,-203,-1,73,4,0
29334,415,-8139,-100,-1,56,3,0
29339,-68,-8147,-47,-1,55,5,0
29344,-466,-8156,56,-1,39,7,0
29349,-795,-8161,190,0,33,9,0
29354,-1014,-8162,302,2,37,10,0
29359,-997,-8162,361,3,46,10,0
29364,-793,-8161,333,3,54,9,0
29369,-438,-8162,243,3,55,8,0
29374,-115,-8164,84,3,48,7,0
29379,167,-8168,-15,2,32,6,0
29384,333,-8169,-63,2,18,5,0
29389,296,-8166,-26,2,8,5,0
29394,209,-8164,96,2,4,5,0
29399,69,-8165,229,2,9,5,0
29404,-86,-8163,361,2,14,5,0
29409,-126,-8170,444,3,13,5,0
29414,-135,-8177,478,3,10,5,0
29419,-136,-8182,472,3,1,5,0
29424,-96,-8188,456,2,-7,4,0
29429,-84,-8193,464,2,-6,4,0
29434,-71,-8197,499,1,-7,4,0
29439,-28,-8199,567,1,-6,3,0
29444,-3,-8195,661,1,-6,3,0
29449,27,-8190,763,1,-10,3,0
29454,80,-8190,845,1,-14,3,0
29459,118,-8189,884,1,-16,3,0
29464,157,-8188,886,1,-20,3,0
29469,216,-8191,865,1,-24,2,0
29474,235,-8196,828,0,-27,2,0
29479,227,-8198,789,0,-31,2,0
29484,220,-8201,775,-1,-33,2,0
29489,187,-8201,772,-1,-31,2,0
29494,158,-8202,779,-1,-29,2,0
29499,166,-8199,794,-1,-27,2,0
29504,171,-8198,785,-1,-24,2,0
29509,194,-8198,762,-1,-23,2,0
29514,239,-8199,732,-1,-23,2,0
29519,260,-8199,687,-2,-24,2,0
29524,277,-8201,653,-2,-25,2,0
29529,294,-8198,642,-2,-24,1,0
29534,286,-8198,640,-2,-23,1,0
29539,282,-8197,656,-3,-21,1,0
29544,286,-8199,680,-3,-19,1,0
29549,284,-8198,695,-3,-16,1,0
29554,294,-8196,702,-3,-15,1,0
29559,316,-8198,689,-3,-14,1,0
29564,328,-8199,670,-3,-13,1,0
29569,346,-8199,648,-4,-13,1,0
29574,366,-8201,619,-4,-14,1,0
29579,368,-8198,593,-4,-14,1,0
29584,370,-8198,579,-4,-14,1,0
29589,368,-8195,567,-4,-14,1,0
29594,350,-8192,552,-4,-14,1,0
29599,344,-8192,534,-4,-14,1,0
29604,334,-8194,508,-4,-14,1,0
29609,319,-8192,474,-4,-14,1,0
29614,317,-8191,437,-4,-14,1,0
29619,318,-8189,398,-5,-13,1,0
29624,312,-8186,361,-5,-13,1,0
29629,314,-8186,332,-5,-12,0,0
29634,314,-8188,302,-5,-12,0,0
29639,316,-8190,280,-5,-11,0,0
29644,329,-8189,260,-5,-10,0,0
29649,344,-8189,232,-5,-9,0,0
29654,359,-8186,200,-5,-9,0,0
29659,379,-8183,166,-5,-9,0,0
29664,389,-8182,129,-5,-10,0,0
29669,395,-8185,97,-5,-11,0,0
29674,400,-8185,70,-5,-12,0,0
29679,399,-8185,39,-5,-13,0,0
29684,398,-8185,18,-5,-13,0,0
29689,403,-8185,-4,-5,-13,0,0
29694,401,-8185,-32,-5,-13,0,0
29699,391,-8182,-60,-4,-12,0,0
29704,380,-8184,-96,-4,-11,0,0
29709,362,-8184,-134,-4,-10,0,0
29714,345,-8185,-170,-4,-9,0,0
29719,335,-8183,-199,-4,-8,0,0
29724,325,-8183,-222,-4,-7,0,0
29729,327,-8185,-238,-4,-6,0,0
29734,341,-8185,-250,-4,-6,0,0
29739,357,-8184,-253,-4,-5,0,0
29744,383,-8181,-252,-4,-5,0,0
29749,414,-8179,-253,-4,-5,0,0
29754,435,-8180,-258,-4,-5,0,0
29759,459,-8183,-269,-4,-6,-1,0
29764,472,-8184,-284,-4,-6,-1,0
29769,470,-8184,-299,-4,-6,-1,0
29774,469,-8185,-316,-4,-6,-1,0
29779,455,-8188,-333,-3,-6,-1,0
29784,432,-8191,-343,-3,-5,-1,0
29789,415,-8192,-349,-3,-5,-1,0
29794,401,-8193,-359,-3,-4,-1,0
29799,392,-8192,-362,-3,-3,-1,0
29804,403,-8193,-361,-3,-3,-1,0
29809,416,-8195,-357,-3,-3,-1,0
29814,440,-8193,-350,-3,-3,-1,0
29819,472,-8192,-345,-3,-2,-1,0
29824,502,-8191,-340,-3,-2,-1,0
29829,530,-8191,-342,-3,-3,-1,0
29834,556,-8190,-347,-3,-3,-1,0
29839,567,-8193,-347,-2,-3,-1,0
29844,575,-8193,-351,-2,-3,-1,0
29849,583,-8188,-357,-2,-3,-1,0
29854,583,-8186,-359,-2,-2,0,0
29859,586,-8184,-360,-2,-2,0,0
29864,585,-8185,-363,-2,-1,0,0
29869,579,-8181,-364,-2,-1,0,0
29874,579,-8180,-355,-2,-1,0,0
29879,572,-8181,-341,-2,0,0,0
29884,559,-8180,-322,-2,0,0,0
29889,556,-8181,-300,-2,0,0,0
29893,548,-8183,-282,-2,0,0,0
29899,543,-8186,-260,-2,-1,0,0
29903,552,-8187,-241,-2,-1,0,0
29909,561,-8186,-230,-2,-2,0,0
29913,573,-8186,-221,-2,-2,0,0
29919,602,-8187,-226,-1,-2,0,0
29924,625,-8187,-228,-1,-2,0,0
29928,651,-8190,-226,-1,-2,0,0
29934,679,-8191,-227,-1,-1,0,0
29939,693,-8190,-224,-1,-1,0,0
29944,696,-8188,-209,-1,-1,0,0
29949,694,-8191,-194,-1,0,0,0
29953,675,-8191,-176,-1,1,0,0
29958,652,-8191,-146,-1,1,0,0
29963,623,-8191,-121,-1,1,0,0
29968,581,-8191,-97,-1,1,0,0
29973,546,-8194,-77,-1,1,0,0
29978,517,-8194,-61,-1,1,0,0
29983,489,-8194,-48,-1,1,0,0
29988,479,-8193,-36,-1,0,0,0
29993,476,-8195,-32,-1,0,0,0
29999,474,-8194,-31,-1,-1,0,0
30005,491,-8190,-29,-1,-1,0,0
30010,507,-8190,-31,-1,-1,0,0
30016,518,-8189,-36,-1,-1,0,0
30021,534,-8187,-41,-1,-1,0,0
30026,539,-8186,-50,-1,0,0,0
30032,539,-8185,-56,-1,0,0,0
30037,541,-8184,-54,-2,1,0,0
30042,533,-8185,-48,-2,2,0,0
30048,527,-8186,-35,-2,2,0,0
30052,520,-8185,-21,-2,3,0,0
30056,506,-8183,-4,-2,4,0,0
30060,498,-8184,17,-2,3,0,0
30064,498,-8183,34,-2,3,0,0
30068,492,-8185,44,-2,3,0,0
30073,495,-8187,53,-2,2,0,0
30078,500,-8191,56,-2,1,0,0
30083,501,-8189,51,-2,0,0,0
30088,515,-8186,50,-2,0,0,0
30093,529,-8185,36,-2,0,0,0
30098,545,-8185,22,-2,-1,0,0
30103,571,-8186,14,-2,0,0,0
30108,594,-8183,4,-2,0,0,0
30113,608,-8183,-3,-2,1,0,0
30118,628,-8185,-7,-2,2,0,0
30123,640,-8186,-13,-2,3,0,0
30128,647,-8187,-10,-2,4,0,0
30133,655,-8187,1,-2,5,0,0
30138,651,-8188,11,-2,5,0,0
30143,647,-8189,25,-2,5,0,0
30148,646,-8187,35,-2,5,0,0
30153,636,-8189,45,-2,4,0,0
30158,624,-8190,50,-2,3,0,0
30163,617,-8193,56,-2,3,0,0
30168,606,-8189,58,-2,2,0,0
30173,604,-8187,57,-2,1,0,0
30178,606,-8188,54,-2,0,0,0
30183,597,-8187,48,-2,-1,0,0
30188,588,-8188,47,-2,-1,0,0
30193,582,-8190,40,-2,-1,0,0
30198,571,-8191,32,-2,-1,0,0
30203,561,-8191,24,-2,-1,0,0
30208,548,-8190,15,-2,-1,0,0
30213,528,-8188,17,-2,-1,0,0
30218,509,-8188,16,-2,-1,0,0
30223,489,-8187,21,-2,0,0,0
30228,457,-8188,29,-2,0,0,0
30233,429,-8186,35,-2,0,0,0
30238,402,-8187,32,-2,0,0,0
30243,378,-8186,25,-2,-1,0,0
30248,365,-8187,19,-2,-1,0,0
30253,356,-8187,3,-2,-2,0,0
30258,356,-8190,-6,-2,-2,0,0
30263,367,-8189,-18,-2,-2,0,0
30268,380,-8188,-32,-2,-2,0,0
30273,399,-8189,-40,-2,-2,0,0
30278,422,-8189,-49,-2,-1,0,0
30283,435,-8190,-56,-2,-1,0,0
30288,439,-8193,-51,-2,-1,0,0
30293,440,-8192,-38,-2,-1,-1,0
30298,426,-8189,-25,-2,-1,-1,0
30303,410,-8187,-15,-2,-1,-1,0
30308,396,-8191,-3,-2,-1,-1,0
30313,381,-8191,7,-2,-1,-1,0
30318,373,-8188,13,-2,-2,-1,0
30323,372,-8188,8,-2,-2,-1,0
30328,374,-8188,2,-2,-2,-1,0
30333,382,-8190,-9,-2,-2,-1,0
30338,396,-8191,-18,-2,-2,-1,0
30343,413,-8192,-27,-2,-2,-1,0
30348,433,-8191,-24,-2,-2,-1,0
30353,449,-8190,-17,-2,-1,-1,0
30358,464,-8191,-9,-2,-2,-1,0
30363,480,-8190,5,-2,-2,-1,0
30368,485,-8190,15,-2,-2,-1,0
30373,482,-8190,29,-2,-2,-1,0
30378,476,-8189,39,-2,-2,-1,0
30383,461,-8192,39,-2,-2,-1,0
30388,446,-8193,31,-2,-3,-1,0
30393,438,-8196,21,-2,-3,-1,0
30398,429,-8193,11,-2,-3,-1,0
30403,429,-8191,3,-2,-3,-1,0
30408,439,-8192,-1,-2,-3,-1,0
30413,455,-8190,-4,-2,-3,-1,0
30418,480,-8191,-9,-2,-3,-1,0
30423,508,-8191,-11,-2,-3,-1,0
30428,537,-8190,-15,-2,-2,-1,0
30433,566,-8190,-16,-2,-2,-1,0
30438,588,-8188,-20,-2,-2,-1,0
30443,600,-8186,-26,-2,-2,-1,0
30448,607,-8185,-25,-2,-2,-1,0
30453,606,-8185,-27,-2,-2,-1,0
30458,598,-8185,-30,-2,-2,-1,0
30463,584,-8183,-35,-2,-2,-1,0
30468,572,-8181,-42,-2,-2,-1,0
30473,560,-8180,-47,-2,-2,-1,0
30479,560,-8177,-51,-2,-2,-1,0
30484,567,-8179,-54,-2,-2,-1,0
30490,578,-8179,-63,-2,-2,-1,0
30494,596,-8182,-70,-2,-2,-1,0
30499,615,-8182,-78,-2,-2,-1,0
30503,634,-8180,-83,-2,-2,-1,0
30508,647,-8177,-84,-2,-2,-1,0
30513,651,-8177,-91,-2,-2,-1,0
30518,647,-8179,-95,-2,-2,-1,0
30524,642,-8181,-99,-2,-2,-1,0
30528,632,-8181,-105,-2,-2,0,0
30533,623,-8178,-109,-2,-2,0,0
30538,614,-8177,-114,-2,-1,0,0
30543,603,-8180,-117,-2,-1,0,0
30548,591,-8180,-117,-2,-1,0,0
30553,584,-8182,-121,-2,-1,0,0
30558,578,-8183,-126,-2,-2,0,0
30564,573,-8185,-130,-2,-2,0,0
30570,566,-8184,-136,-2,-2,0,0
30575,565,-8183,-141,-2,-2,0,0
30580,567,-8182,-141,-2,-1,0,0
30585,570,-8187,-140,-2,-1,0,0
30591,574,-8190,-138,-2,-1,0,0
30595,576,-8189,-135,-2,-1,0,0
30599,573,-8192,-135,-2,-1,0,0
30603,564,-8188,-133,-2,-1,0,0
30608,551,-8187,-125,-2,-1,0,0
30613,537,-8186,-117,-2,-1,0,0
30618,520,-8187,-103,-2,-1,0,0
30623,506,-8188,-96,-2,-1,0,0
30628,487,-8190,-88,-2,-1,-1,0
30633,467,-8191,-82,-2,-1,-1,0
30638,444,-8192,-75,-2,-1,-1,0
30643,423,-8193,-67,-2,-1,-1,0
30648,408,-8195,-62,-2,-2,-1,0
30653,394,-8194,-57,-2,-2,-1,0
30658,377,-8193,-51,-2,-2,-1,0
30663,361,-8194,-47,-2,-2,-1,0
30668,345,-8196,-43,-2,-2,-1,0
30673,331,-8196,-42,-2,-2,-1,0
30678,317,-8195,-39,-2,-2,-1,0
30683,307,-8196,-33,-2,-1,-1,0
30688,297,-8195,-22,-2,-1,-1,0
30693,288,-8199,-9,-2,-1,-1,0
30698,274,-8197,7,-2,-1,-2,0
30703,263,-8197,28,-2,-2,-2,0
30708,255,-8197,52,-2,-2,-2,0
30713,245,-8197,71,-2,-2,-2,1
30718,237,-8195,83,-2,-2,-2,1
30723,232,-8195,92,-2,-2,-2,1
30728,228,-8198,100,-2,-2,-2,1
30733,229,-8201,110,-2,-3,-2,1
30738,231,-8201,115,-2,-3,-2,1
30743,230,-8197,127,-2,-4,-3,1
30748,228,-8198,141,-3,-4,-3,1
30753,216,-8199,156,-3,-4,-3,1
30758,203,-8199,173,-3,-4,-3,1
30763,188,-8200,188,-3,-4,-3,1
30768,168,-8202,196,-3,-4,-3,1
30773,147,-8202,206,-3,-4,-3,1
30778,130,-8202,213,-3,-5,-3,1
30783,114,-8203,222,-3,-5,-4,1
30788,102,-8204,232,-3,-6,-4,1
30793,92,-8203,237,-3,-6,-4,1
30798,80,-8204,238,-3,-6,-4,1
30803,73,-8204,241,-3,-7,-4,1
30808,72,-8202,241,-3,-7,-4,1
30813,63,-8201,236,-3,-8,-5,1
30818,48,-8203,230,-4,-9,-5,1
30823,31,-8200,230,-4,-10,-5,1
30828,7,-8199,225,-4,-10,-5,1
30833,-22,-8198,219,-4,-11,-6,1
30838,-56,-8196,204,-4,-11,-6,1
30843,-95,-8196,196,-4,-10,-6,1
30848,-129,-8198,183,-4,-10,-6,1
30853,-156,-8198,170,-4,-9,-6,1
30858,-182,-8197,158,-4,-8,-7,1
30863,-200,-8196,155,-4,-8,-7,1
30867,-211,-8192,150,-4,-7,-7,1
30872,-218,-8187,157,-4,-7,-7,1
30878,-217,-8187,163,-4,-7,-8,1
30882,-210,-8186,172,-5,-7,-8,1
30887,-204,-8184,179,-5,-8,-8,1
30892,-202,-8184,186,-5,-9,-9,1
30897,-200,-8186,192,-5,-9,-9,1
30902,-197,-8185,194,-5,-10,-9,1
30907,-200,-8179,196,-5,-10,-10,1
30912,-213,-8178,196,-5,-11,-10,1
30917,-233,-8176,207,-5,-12,-10,1
30922,-259,-8176,199,-5,-10,-10,1
30927,-273,-8173,210,-5,-6,-11,1
30932,-272,-8171,234,-6,-7,-11,1
30937,-265,-8168,249,-6,-11,-11,1
30942,-262,-8164,279,-6,-15,-12,1
30947,-279,-8161,315,-6,-16,-12,1
30952,-298,-8158,346,-6,-15,-12,1
30957,-286,-8155,365,-6,-14,-13,1
30962,-249,-8153,364,-6,-15,-13,1
30967,-221,-8150,356,-6,-17,-13,1
30972,-209,-8144,339,-6,-21,-13,1
30977,-171,-8139,313,-7,-23,-14,1
30982,37,-8120,194,-7,-23,-14,1
30987,397,-8116,57,-5,-18,-11,1
30992,474,-8106,157,-5,-16,-10,1
30997,605,-8100,165,-5,-25,-10,1
31002,715,-8094,185,-5,-24,-11,1
31007,772,-8085,174,-5,-22,-11,1
31012,892,-8090,-5,-5,-27,-12,1
31017,992,-8097,-166,-6,-28,-13,1
31022,1040,-8103,-305,-7,-31,-14,1
31027,1000,-8104,-394,-8,-32,-14,1
31032,912,-8103,-343,-8,-31,-14,1
31037,786,-8103,-256,-8,-27,-14,1
31042,629,-8098,-143,-8,-21,-14,1
31047,564,-8097,-40,-7,-17,-13,1
31052,531,-8097,-23,-7,-13,-13,1
31057,526,-8092,-69,-6,-11,-13,1
31062,618,-8094,-170,-6,-12,-13,1
31067,689,-8094,-299,-7,-11,-13,1
31072,743,-8089,-407,-7,-12,-14,1
31077,812,-8088,-454,-8,-11,-14,1
31082,823,-8080,-440,-8,-7,-14,1
31087,826,-8073,-379,-8,-5,-14,1
31092,848,-8070,-288,-8,-4,-14,1
31097,856,-8069,-222,-8,-3,-14,1
31102,882,-8065,-202,-7,-5,-14,1
31107,937,-8065,-214,-7,-8,-14,1
31112,983,-8065,-262,-7,-12,-14,1
31117,1033,-8063,-321,-7,-16,-14,1
31122,1071,-8065,-366,-7,-20,-14,1
31127,1071,-8064,-401,-8,-21,-14,1
31132,1055,-8061,-413,-8,-22,-14,1
31137,1035,-8058,-415,-8,-20,-14,1
31142,1002,-8053,-424,-8,-18,-13,1
31147,1027,-8047,-432,-8,-17,-13,1
31152,1136,-8049,-422,-7,-15,-13,1
31157,1258,-8051,-413,-7,-14,-13,1
31162,1309,-8050,-423,-7,-17,-13,1
31167,1283,-8049,-422,-7,-20,-13,1
31172,1242,-8043,-411,-7,-22,-13,1
31177,1248,-8040,-396,-7,-21,-12,1
31182,1283,-8038,-393,-7,-21,-12,1
31187,1303,-8038,-405,-7,-23,-12,1
31192,1286,-8036,-424,-7,-26,-11,1
31197,1053,-8020,-442,-7,-29,-10,1
31202,1385,-8025,-568,-7,-29,-12,1
31207,1832,-8016,-644,-7,-19,-12,1
31212,2079,-7994,-741,-7,-25,-13,1
31217,2344,-7995,-818,-8,-31,-14,1
31222,2335,-7993,-776,-8,-25,-15,1
31227,2196,-7995,-760,-8,-25,-15,1
31232,2014,-8008,-698,-7,-21,-15,1
31237,1719,-8012,-656,-7,-17,-13,1
31242,1544,-8019,-694,-6,-15,-12,1
31247,1492,-8023,-738,-6,-11,-11,1
31252,1548,-8020,-839,-6,-11,-11,1
31257,1759,-8019,-935,-6,-13,-11,1
31263,1987,-8010,-977,-7,-13,-11,1
31268,2163,-8003,-1000,-7,-14,-12,1
31273,2260,-8002,-944,-7,-14,-13,1
31277,2230,-8001,-849,-7,-14,-13,1
31282,2117,-8002,-758,-7,-13,-13,1
31287,1962,-8003,-656,-6,-12,-12,1
31292,1813,-8007,-605,-6,-11,-12,1
31297,1732,-8011,-597,-6,-12,-11,1
31302,1728,-8012,-618,-6,-13,-11,1
31307,1804,-8012,-672,-6,-16,-10,1
31312,1936,-8007,-703,-6,-19,-11,1
31317,2074,-8001,-704,-7,-22,-11,1
31322,2180,-8000,-679,-7,-23,-11,1
31327,2213,-7996,-618,-7,-24,-12,1
31332,2173,-7994,-562,-7,-25,-12,1
31337,2087,-7998,-525,-6,-24,-12,1
31342,1993,-8004,-524,-6,-22,-11,1
31347,1915,-8005,-566,-6,-21,-11,1
31352,1868,-8005,-639,-6,-20,-10,1
31357,1863,-8007,-727,-6,-19,-10,1
31362,1898,-8006,-801,-7,-18,-10,1
31367,1965,-8003,-844,-7,-17,-10,1
31372,2038,-8001,-843,-7,-17,-10,1
31377,2093,-8000,-811,-7,-16,-10,1
31382,2113,-7998,-768,-7,-15,-10,1
31387,2094,-7995,-737,-7,-14,-10,1
31392,2060,-7995,-727,-6,-14,-10,1
31397,2027,-7993,-755,-6,-15,-10,1
31402,2013,-7990,-809,-6,-17,-10,1
31407,2019,-7988,-879,-6,-18,-9,1
31412,2041,-7986,-949,-6,-18,-9,1
31417,2071,-7983,-1001,-6,-18,-9,1
31422,2106,-7980,-1029,-6,-16,-9,1
31427,2138,-7976,-1046,-6,-14,-9,1
31432,2158,-7974,-1053,-6,-11,-9,1
31437,2162,-7971,-1063,-6,-9,-9,1
31442,2150,-7971,-1085,-6,-7,-9,1
31447,2129,-7969,-1122,-5,-6,-9,1
31452,2120,-7969,-1165,-5,-6,-9,1
31457,2125,-7966,-1203,-5,-5,-9,1
31462,2152,-7966,-1230,-5,-5,-8,1
31467,2189,-7964,-1234,-5,-5,-8,1
31472,2228,-7961,-1228,-5,-4,-8,1
31477,2271,-7956,-1217,-5,-4,-8,1
31482,2306,-7957,-1202,-5,-4,-8,1
31487,2331,-7959,-1197,-5,-4,-8,1
31492,2344,-7960,-1198,-4,-5,-8,1
31497,2341,-7957,-1213,-4,-6,-8,1
31502,2331,-7955,-1228,-4,-6,-8,1
31507,2322,-7955,-1241,-4,-7,-8,1
31512,2334,-7954,-1247,-4,-8,-7,1
31517,2363,-7952,-1242,-4,-8,-7,1
31522,2400,-7953,-1231,-4,-8,-7,1
31527,2434,-7953,-1212,-4,-7,-7,1
31532,2458,-7948,-1198,-4,-7,-7,1
31537,2474,-7946,-1197,-4,-6,-7,1
31542,2484,-7947,-1196,-4,-5,-7,1
31547,2490,-7950,-1197,-3,-4,-7,1
31552,2491,-7950,-1199,-3,-4,-7,1
31557,2484,-7950,-1193,-3,-5,-6,1
31562,2479,-7948,-1183,-3,-5,-6,1
31567,2489,-7946,-1165,-3,-5,-6,1
31572,2512,-7946,-1144,-3,-6,-6,1
31577,2546,-7948,-1123,-3,-6,-6,1
31582,2573,-7947,-1113,-3,-7,-6,1
31587,2584,-7946,-1114,-3,-7,-6,1
31592,2582,-7949,-1124,-3,-8,-6,1
31597,2575,-7951,-1144,-3,-7,-5,1
31602,2563,-7953,-1165,-3,-7,-5,1
31607,2549,-7955,-1178,-3,-6,-5,1
31611,2536,-7956,-1182,-3,-5,-5,1
31616,2524,-7955,-1177,-3,-5,-5,1
31622,2525,-7954,-1159,-3,-4,-5,1
31627,2542,-7955,-1142,-3,-3,-4,1
31632,2570,-7953,-1121,-2,-3,-4,1
31636,2597,-7952,-1105,-2,-3,-4,1
31641,2615,-7951,-1100,-2,-2,-4,1
31646,2617,-7950,-1105,-2,-2,-4,1
31651,2614,-7948,-1115,-2,-1,-4,1
31656,2606,-7947,-1126,-2,0,-4,1
31662,2593,-7945,-1130,-2,0,-4,1
31666,2577,-7945,-1125,-2,0,-4,1
31671,2554,-7945,-1114,-2,0,-3,1
31676,2536,-7945,-1102,-2,0,-3,1
31681,2532,-7947,-1087,-2,0,-3,1
31686,2538,-7947,-1071,-2,0,-3,1
31691,2553,-7946,-1062,-2,0,-3,1
31696,2569,-7943,-1054,-2,0,-3,1
31701,2576,-7940,-1050,-2,-1,-3,1
31706,2577,-7940,-1048,-2,-1,-3,1
31711,2575,-7939,-1047,-2,-1,-3,1
31716,2570,-7937,-1036,-2,0,-3,1
31721,2560,-7938,-1024,-2,0,-3,1
31726,2543,-7937,-1014,-2,1,-2,1
31731,2527,-7937,-1004,-2,1,-2,1
31736,2517,-7939,-995,-2,1,-2,1
31741,2516,-7939,-990,-2,0,-2,1
31746,2516,-7939,-984,-1,0,-2,1
31751,2516,-7939,-981,-1,-1,-2,1
31756,2506,-7942,-974,-1,-1,-2,1
31761,2489,-7943,-970,-1,-1,-2,1
31766,2476,-7944,-966,-1,0,-2,1
31771,2463,-7943,-960,-1,0,-2,1
31776,2456,-7939,-948,-1,0,-2,1
31781,2453,-7939,-931,-1,0,-2,1
31786,2454,-7940,-916,-1,0,-2,1
31791,2456,-7941,-903,-1,-1,-2,1
31796,2461,-7939,-891,-1,-1,-1,1
31801,2469,-7936,-877,-1,-1,-1,1
31806,2473,-7936,-866,-1,-2,-1,1
31811,2473,-7938,-856,-1,-3,-1,1
31816,2461,-7939,-849,-1,-3,-1,1
31821,2440,-7940,-847,-1,-3,-1,1
31826,2421,-7940,-851,-1,-2,-1,1
31831,2408,-7937,-862,-1,-2,-1,1
31836,2400,-7935,-874,-1,-2,-1,1
31841,2397,-7934,-888,-1,-1,-1,1
31846,2394,-7939,-888,-1,-1,-1,1
31851,2396,-7941,-886,-1,0,-1,1
31856,2401,-7943,-878,-2,1,-1,1
31861,2409,-7941,-865,-2,1,-1,1
31866,2420,-7941,-851,-2,1,-1,1
31871,2423,-7938,-835,-2,1,-1,1
31876,2421,-7936,-824,-2,1,-1,1
31881,2416,-7934,-814,-1,1,-1,1
31886,2412,-7934,-806,-1,1,-1,1
31891,2410,-7934,-810,-2,0,-1,1
31896,2406,-7935,-814,-2,0,-1,1
31901,2405,-7937,-818,-2,0,0,1
31906,2404,-7938,-826,-2,1,0,1
31911,2409,-7936,-824,-2,1,0,1
31916,2421,-7936,-817,-2,1,0,1
31921,2435,-7933,-807,-2,1,0,1
31926,2445,-7934,-796,-2,1,0,1
31931,2444,-7936,-785,-2,1,0,1
31936,2430,-7935,-777,-2,0,0,1
31941,2412,-7933,-771,-2,-1,0,1
31946,2395,-7933,-771,-2,-1,0,1
31951,2384,-7934,-774,-2,-1,0,1
31956,2372,-7933,-779,-2,-1,0,1
31961,2363,-7934,-787,-2,-1,0,1
31966,2362,-7933,-794,-2,0,0,1
31971,2371,-7933,-805,-2,1,0,1
31976,2383,-7934,-808,-2,1,0,1
31981,2395,-7936,-807,-2,2,0,1
31986,2402,-7938,-799,-2,2,0,1
31991,2397,-7941,-791,-2,1,0,1
31996,2386,-7939,-780,-2,1,0,1
32001,2369,-7941,-775,-2,1,0,1
32006,2353,-7940,-772,-2,1,0,1
32011,2341,-7941,-780,-2,2,0,1
32016,2330,-7943,-788,-2,2,0,1
32021,2323,-7944,-804,-2,1,0,1
32026,2322,-7946,-818,-2,1,0,1
32031,2323,-7945,-826,-2,1,0,1
32036,2324,-7942,-834,-2,0,0,1
32041,2316,-7942,-846,-2,0,0,1
32046,2294,-7941,-852,-2,0,0,1
32051,2270,-7944,-854,-2,0,0,1
32056,2255,-7944,-857,-2,0,0,1
32061,2246,-7946,-862,-2,0,0,1
32066,2247,-7945,-864,-2,-1,0,1
32071,2254,-7943,-860,-2,-1,0,1
32076,2264,-7942,-854,-2,-1,0,1
32081,2275,-7943,-843,-2,-1,0,1
32086,2284,-7942,-834,-2,-1,0,1
32091,2289,-7940,-830,-2,-1,0,1
32096,2287,-7942,-826,-2,-1,0,1
32101,2272,-7942,-824,-2,-2,0,1
32106,2245,-7947,-829,-2,-2,0,1
32111,2211,-7948,-841,-2,-1,0,1
32116,2185,-7948,-854,-2,-1,0,1
32121,2173,-7947,-870,-2,-1,0,1
32126,2168,-7946,-884,-2,-1,0,1
32131,2170,-7945,-888,-2,-1,0,1
32136,2174,-7946,-889,-2,0,0,1
32141,2183,-7944,-883,-2,0,0,1
32146,2193,-7943,-873,-2,1,0,1
32151,2207,-7943,-865,-2,1,0,1
32156,2216,-7943,-858,-2,1,0,1
32161,2213,-7942,-842,-2,1,0,1
32166,2206,-7945,-831,-2,0,0,1
32171,2198,-7946,-824,-2,0,0,1
32176,2190,-7949,-812,-2,0,0,1
32181,2188,-7951,-804,-2,0,0,1
32186,2189,-7953,-798,-2,0,0,1
32191,2187,-7953,-797,-2,0,0,1
32196,2187,-7952,-803,-2,0,0,1
32201,2187,-7954,-808,-2,1,0,1
32206,2191,-7956,-812,-2,1,0,1
32211,2200,-7957,-811,-2,1,0,1
32216,2205,-7954,-808,-2,1,0,1
32221,2203,-7953,-801,-2,1,0,1
32226,2202,-7949,-789,-2,1,0,1
32231,2204,-7946,-776,-2,0,0,1
32236,2207,-7947,-771,-2,0,0,1
32241,2215,-7946,-769,-2,0,0,1
32246,2215,-7945,-774,-2,-1,0,1
32251,2212,-7946,-785,-2,-2,0,1
32256,2204,-7948,-800,-2,-2,0,1
32261,2199,-7949,-812,-2,-2,0,1
32266,2199,-7950,-820,-2,-2,0,1
32271,2200,-7950,-824,-2,-2,0,1
32276,2200,-7948,-826,-2,-1,0,1
32281,2200,-7948,-828,-2,-1,0,1
32286,2200,-7947,-827,-2,-1,0,1
32291,2203,-7946,-825,-2,0,0,1
32296,2210,-7946,-820,-2,0,0,1
32301,2217,-7946,-811,-2,0,0,1
32306,2226,-7949,-804,-2,0,0,1
32311,2230,-7947,-800,-2,-1,0,1
32316,2234,-7946,-800,-2,-1,0,1
32321,2241,-7946,-800,-2,-1,0,1
32326,2247,-7947,-805,-2,-1,0,1
32331,2247,-7946,-813,-2,-1,0,1
32336,2240,-7944,-819,-2,-1,0,1
32341,2230,-7942,-827,-2,0,0,1
32346,2223,-7942,-833,-2,0,0,1
32351,2221,-7942,-839,-2,0,0,1
32356,2222,-7943,-843,-2,0,0,1
32361,2222,-7944,-846,-2,0,0,1
32366,2225,-7944,-844,-2,0,0,1
32371,2232,-7945,-845,-2,-1,0,1
32376,2239,-7943,-840,-2,-1,0,1
32381,2247,-7945,-838,-2,0,0,1
32386,2255,-7946,-842,-2,0,0,1
32391,2257,-7947,-838,-2,0,0,1
32396,2253,-7948,-840,-2,0,0,1
32401,2250,-7948,-841,-2,-1,0,1
32406,2243,-7950,-846,-2,-1,0,1
32411,2240,-7950,-844,-2,-1,0,1
32416,2234,-7951,-842,-2,-1,0,1
32420,2222,-7952,-843,-2,-2,0,1
32425,2211,-7953,-849,-2,-2,0,1
32430,2204,-7953,-855,-2,-3,0,1
32435,2202,-7951,-863,-2,-3,0,1
32440,2205,-7951,-864,-2,-3,0,1
32445,2209,-7952,-866,-2,-3,0,1
32450,2212,-7952,-868,-2,-3,0,1
32455,2214,-7952,-866,-2,-3,0,1
32460,2218,-7953,-860,-2,-3,0,1
32465,2227,-7954,-854,-2,-3,0,1
32470,2235,-7953,-844,-2,-3,0,1
32475,2236,-7949,-840,-2,-3,0,1
32480,2234,-7950,-833,-2,-2,0,1
32485,2227,-7951,-835,-2,-1,0,1
32490,2221,-7951,-845,-2,-1,0,1
32495,2220,-7953,-853,-2,0,0,1
32500,2219,-7952,-857,-2,0,0,1
32505,2214,-7950,-852,-2,0,0,1
32510,2207,-7946,-842,-2,-1,0,1
32515,2205,-7948,-833,-2,-1,0,1
32520,2211,-7946,-831,-2,-1,0,1
32525,2218,-7949,-825,-2,-1,0,1
32530,2228,-7948,-820,-2,0,0,1
32535,2239,-7948,-820,-2,0,0,1
32540,2249,-7947,-820,-2,-1,0,1
32545,2255,-7947,-816,-2,-1,0,1
32550,2257,-7944,-816,-2,-1,0,1
32555,2257,-7942,-819,-2,-1,0,1
32560,2249,-7939,-819,-2,-1,0,1
32565,2240,-7937,-821,-2,-1,0,1
32570,2222,-7939,-827,-2,-1,0,1
32575,2209,-7941,-833,-2,-1,0,1
32580,2204,-7943,-836,-2,-2,0,1
32585,2206,-7944,-839,-2,-1,0,1
32590,2208,-7945,-840,-2,-1,0,1
32595,2216,-7946,-843,-2,-1,0,1
32600,2225,-7949,-842,-2,0,0,1
32605,2243,-7951,-835,-2,0,0,1
32610,2262,-7954,-827,-2,0,0,1
32615,2275,-7954,-813,-2,0,0,1
32621,2279,-7953,-803,-2,0,0,1
32626,2272,-7952,-790,-2,-1,0,1
32630,2259,-7952,-781,-2,-1,0,1
32635,2248,-7954,-779,-2,-1,0,1
32640,2246,-7952,-786,-2,-1,0,1
32645,2252,-7950,-795,-2,-1,0,1
32650,2260,-7948,-806,-2,-1,0,1
32655,2265,-7949,-816,-2,-1,0,1
32660,2267,-7949,-820,-2,-1,0,1
32665,2267,-7946,-818,-2,-1,0,1
32670,2262,-7945,-812,-2,0,0,1
32675,2253,-7943,-807,-2,0,0,1
32680,2246,-7943,-804,-2,0,0,1
32685,2242,-7944,-795,-2,0,0,1
32690,2244,-7943,-790,-2,0,0,1
32695,2259,-7944,-782,-2,0,0,1
32700,2276,-7945,-775,-2,0,0,1
32705,2293,-7947,-768,-2,-1,0,1
32710,2298,-7948,-761,-2,-1,0,0
32715,2295,-7948,-757,-2,0,0,0
32720,2286,-7947,-758,-2,0,0,0
32725,2272,-7946,-767,-2,0,0,0
32730,2255,-7950,-777,-2,1,0,0
32735,2239,-7952,-790,-2,1,0,0
32740,2230,-7955,-797,-2,1,0,0
32745,2232,-7952,-796,-2,0,0,0
32750,2243,-7950,-796,-2,0,0,0
32755,2255,-7950,-794,-2,0,0,0
32760,2266,-7951,-794,-2,0,0,0
32765,2270,-7948,-793,-2,-1,0,0
32771,2265,-7950,-796,-2,-1,0,0
32775,2251,-7952,-804,-2,-1,0,0
32780,2239,-7955,-814,-2,0,0,0
32785,2234,-7956,-822,-2,0,0,0
32790,2237,-7955,-823,-2,1,0,0
32795,2243,-7955,-814,-2,1,0,0
32800,2257,-7956,-797,-2,1,0,0
32805,2279,-7953,-775,-2,0,0,0
32810,2303,-7951,-758,-2,0,0,0
32815,2323,-7952,-737,-2,0,0,0
32820,2330,-7953,-723,-2,-1,0,0
32825,2323,-7951,-722,-2,-1,0,0
32830,2306,-7952,-730,-2,-1,0,0
32835,2283,-7952,-743,-2,-1,0,0
32840,2263,-7953,-761,-2,-1,0,0
32845,2251,-7953,-778,-2,-1,0,0
32850,2247,-7953,-790,-2,-1,0,0
32855,2245,-7950,-797,-2,-1,0,0
32860,2248,-7952,-801,-2,-1,0,0
32865,2257,-7952,-800,-2,-1,0,0
32870,2264,-7950,-803,-2,-1,0,0
32875,2267,-7950,-806,-2,-1,0,0
32880,2267,-7951,-812,-2,-1,0,0
32886,2261,-7954,-816,-2,-1,0,0
32891,2255,-7955,-816,-2,-1,0,0
32897,2253,-7953,-812,-2,-1,0,0
32903,2255,-7952,-801,-2,-1,0,0
32908,2258,-7951,-789,-2,-1,0,0
32912,2258,-7950,-777,-2,-1,0,0
32917,2258,-7950,-764,-2,-1,0,0
32923,2260,-7948,-757,-2,-1,0,0
32929,2261,-7948,-757,-2,-1,0,0
32934,2258,-7946,-761,-2,-1,0,0
32940,2248,-7947,-767,-2,-1,0,0
32945,2229,-7950,-774,-2,-1,0,0
32951,2206,-7951,-787,-2,-1,0,0
32956,2184,-7949,-797,-2,-1,0,0
32961,2168,-7948,-806,-2,0,0,0
32967,2159,-7949,-814,-2,0,0,0
32972,2160,-7951,-816,-2,1,0,0
32976,2166,-7951,-817,-2,1,0,0
32980,2180,-7954,-809,-2,1,0,0
32984,2197,-7956,-801,-2,1,0,0
32988,2211,-7954,-789,-2,1,0,0
32992,2219,-7952,-776,-2,1,0,0
32996,2218,-7952,-766,-2,1,0,0
33000,2209,-7953,-758,-2,0,0,0
33004,2194,-7951,-758,-2,0,0,0
33009,2179,-7953,-758,-2,-1,0,0
33014,2164,-7954,-760,-2,-1,0,0
33019,2155,-7955,-765,-2,-1,0,0
33024,2151,-7953,-769,-2,-1,0,0
33029,2150,-7954,-776,-2,-1,0,0
33034,2150,-7955,-781,-2,-2,0,0
33039,2153,-7956,-792,-2,-2,0,0
33044,2157,-7956,-798,-2,-1,0,0
33049,2158,-7957,-803,-2,-1,0,0
33054,2153,-7956,-806,-2,-1,0,0
33059,2144,-7955,-803,-2,0,0,0
33064,2140,-7956,-797,-2,0,0,0
33069,2143,-7958,-784,-2,0,0,0
33074,2148,-7958,-773,-2,0,0,0
33079,2144,-7958,-767,-2,0,0,0
33085,2143,-7960,-765,-2,-1,0,0
33091,2139,-7960,-767,-2,-1,0,0
33095,2132,-7960,-772,-2,-1,0,0
33100,2126,-7959,-776,-2,-2,0,0
33105,2123,-7960,-786,-2,-1,0,0
33111,2119,-7962,-798,-2,-1,0,0
33115,2121,-7963,-802,-2,-1,0,0
33119,2127,-7963,-804,-2,0,0,0
33124,2139,-7963,-799,-2,0,0,0
33129,2156,-7964,-790,-2,0,0,0
33134,2173,-7965,-773,-2,0,0,0
33139,2188,-7963,-755,-2,1,0,0
33144,2192,-7960,-739,-2,0,0,0
33149,2196,-7957,-731,-2,0,0,0
33154,2195,-7955,-726,-2,-1,0,0
33159,2190,-7955,-723,-2,-1,-1,0
33164,2186,-7955,-729,-2,-1,-1,0
33169,2180,-7956,-734,-2,-1,-1,0
33174,2169,-7957,-741,-2,-2,-1,0
33179,2166,-7959,-746,-2,-3,-1,0
33184,2165,-7960,-755,-2,-3,-1,0
33189,2173,-7961,-755,-2,-3,-1,0
33194,2183,-7959,-754,-2,-2,-1,0
33199,2191,-7959,-751,-2,-2,-1,0
33204,2197,-7958,-747,-2,-3,-1,0
33209,2204,-7957,-741,-2,-3,-1,0
33214,2208,-7957,-740,-2,-3,-1,0
33219,2209,-7956,-739,-2,-3,-1,0
33224,2205,-7957,-738,-2,-2,-1,0
33229,2200,-7958,-737,-2,-1,-1,0
33234,2200,-7958,-738,-2,-1,-1,0
33239,2203,-7957,-744,-2,-1,-1,0
33244,2211,-7955,-745,-2,-1,0,0
33249,2220,-7954,-747,-2,-1,0,0
33254,2227,-7953,-743,-2,-1,0,0
33259,2234,-7955,-735,-2,-1,0,0
33264,2243,-7954,-727,-2,-1,0,0
33269,2252,-7955,-724,-2,-2,-1,0
33274,2259,-7953,-723,-2,-2,-1,0
33279,2258,-7953,-731,-2,-3,-1,0
33284,2249,-7954,-744,-2,-4,-1,0
33289,2236,-7954,-764,-2,-4,-1,0
33294,2226,-7953,-785,-2,-3,-1,0
33299,2219,-7952,-804,-2,-3,0,0
33304,2222,-7952,-819,-2,-2,0,0
33309,2234,-7951,-829,-2,-2,0,0
33314,2246,-7950,-827,-2,-1,0,0
33319,2256,-7946,-818,-2,-1,0,0
33324,2265,-7944,-806,-2,-1,0,0
33329,2266,-7946,-796,-2,-1,0,0
33334,2264,-7947,-792,-2,-1,0,0
33339,2252,-7946,-793,-2,-1,0,0
33344,2237,-7944,-802,-2,-1,0,0
33349,2227,-7947,-814,-2,-1,0,0
33354,2225,-7948,-827,-2,-1,0,0
33359,2230,-7949,-834,-2,-1,0,0
33364,2240,-7952,-836,-2,-1,0,0
33369,2256,-7952,-832,-2,-1,0,0
33374,2267,-7952,-825,-2,0,0,0
33379,2272,-7950,-815,-2,0,0,0
33384,2278,-7949,-807,-2,0,0,0
33389,2275,-7949,-797,-2,0,0,0
33394,2265,-7950,-793,-2,0,0,0
33399,2249,-7956,-786,-2,0,0,0
33404,2236,-7956,-778,-2,0,0,0
33409,2227,-7959,-773,-2,0,0,0
33414,2225,-7958,-772,-2,0,0,0
33419,2231,-7957,-767,-2,0,0,0
33424,2238,-7957,-769,-2,0,0,0
33429,2238,-7957,-776,-2,0,0,0
33434,2237,-7958,-776,-2,0,0,0
33439,2235,-7959,-778,-2,0,0,0
33444,2231,-7960,-776,-2,0,0,0
33449,2224,-7960,-771,-2,0,0,0
33454,2214,-7959,-766,-2,0,0,0
33459,2207,-7958,-761,-2,-1,0,0
33464,2202,-7959,-755,-2,-1,0,0
33469,2200,-7960,-755,-2,-1,0,0
33474,2202,-7961,-758,-2,-1,0,0
33479,2203,-7959,-763,-2,-1,0,0
33484,2204,-7958,-768,-2,-1,0,0
33489,2203,-7957,-775,-2,-1,0,0
33494,2202,-7955,-784,-2,-1,0,0
33499,2203,-7955,-787,-2,-1,0,0
33504,2204,-7956,-779,-2,-1,0,0
33509,2204,-7955,-769,-2,-1,0,0
33514,2199,-7952,-763,-2,-1,0,0
33519,2193,-7953,-759,-2,-1,0,0
33524,2187,-7956,-759,-2,-1,0,0
33529,2185,-7959,-766,-2,-1,0,0
33534,2185,-7957,-770,-2,-1,0,0
33539,2185,-7956,-773,-2,-1,0,0
33544,2183,-7955,-775,-2,-1,0,0
33549,2181,-7954,-770,-2,-1,0,0
33554,2182,-7952,-765,-2,-2,0,0
33559,2184,-7949,-766,-2,-2,0,0
33564,2182,-7949,-765,-2,-2,0,0
33569,2182,-7953,-768,-2,-2,0,0
33574,2183,-7955,-771,-2,-1,0,0
33579,2188,-7956,-774,-2,-2,0,0
33584,2194,-7956,-770,-2,-2,0,0
33589,2198,-7958,-764,-2,-1,0,0
33594,2203,-7959,-760,-2,-1,0,0
33599,2203,-7959,-752,-2,-1,0,0
33604,2198,-7960,-747,-2,-1,0,0
33609,2193,-7960,-747,-2,-1,0,0
33614,2187,-7961,-747,-2,-1,0,0
33619,2182,-7959,-754,-2,-1,0,0
33624,2178,-7960,-767,-2,-2,-1,0
33629,2179,-7960,-776,-2,-2,-1,0
33634,2179,-7957,-775,-2,-2,-1,0
33639,2182,-7955,-779,-2,-1,0,0
33644,2186,-7958,-779,-2,-1,0,0
33649,2192,-7958,-778,-2,-1,-1,0
33654,2193,-7957,-774,-2,-1,-1,0
33659,2194,-7956,-773,-2,-1,-1,0
33664,2195,-7957,-766,-2,-1,-1,0
33669,2197,-7955,-758,-2,-1,-1,0
33674,2200,-7956,-749,-2,-1,-1,0
33679,2206,-7959,-746,-2,-2,-1,0
33684,2209,-7960,-742,-2,-2,-1,0
33689,2213,-7961,-739,-2,-2,-1,0
33694,2218,-7960,-743,-2,-2,-1,0
33699,2223,-7962,-741,-2,-2,-1,0
33703,2228,-7962,-744,-2,-2,-1,0
33709,2231,-7959,-747,-2,-2,-1,0
33713,2230,-7954,-753,-2,-2,-1,0
33719,2227,-7951,-755,-2,-1,-1,0
33724,2225,-7952,-757,-2,-1,-1,0
33729,2224,-7953,-756,-2,-1,-1,0
33733,2222,-7954,-760,-2,-1,0,0
33739,2221,-7955,-759,-2,-1,-1,0
33743,2221,-7955,-759,-2,-1,-1,0
33748,2219,-7957,-761,-2,-2,-1,0
33753,2215,-7955,-760,-2,-2,-1,0
33758,2212,-7956,-767,-2,-2,-1,0
33763,2210,-7957,-772,-2,-3,-1,0
33768,2205,-7956,-778,-2,-3,-1,0
33773,2204,-7957,-784,-2,-3,-1,0
33778,2205,-7956,-787,-2,-2,-1,0
33783,2214,-7956,-781,-2,-2,-1,0
33788,2227,-7955,-771,-2,-1,0,0
33793,2245,-7954,-757,-2,-1,0,0
33798,2262,-7957,-734,-2,-1,0,0
33803,2275,-7956,-710,-2,0,0,0
33808,2283,-7953,-691,-2,0,0,0
33813,2289,-7953,-675,-2,0,0,0
33818,2294,-7952,-667,-2,0,0,0
33823,2298,-7953,-674,-2,0,0,0
33828,2296,-7954,-688,-2,-1,0,0
33834,2289,-7953,-700,-2,-1,0,0
33838,2279,-7951,-717,-2,-1,0,0
33844,2270,-7951,-732,-2,-1,0,0
33849,2262,-7953,-744,-2,-1,0,0
33855,2250,-7953,-762,-2,-1,0,0
33860,2237,-7954,-775,-2,-1,0,0
33864,2224,-7952,-787,-2,-1,0,0
33868,2219,-7954,-794,-2,0,0,0
33873,2222,-7955,-802,-2,0,0,0
33878,2228,-7955,-809,-2,1,0,0
33883,2239,-7956,-813,-2,2,0,0
33888,2250,-7958,-814,-2,2,0,0
33893,2253,-7959,-812,-2,3,0,0
33898,2254,-7955,-814,-2,3,0,0
33903,2253,-7954,-815,-2,3,0,0
33908,2245,-7955,-811,-2,2,0,0
33913,2231,-7954,-811,-2,2,0,0
33918,2219,-7957,-817,-2,1,0,0
33923,2207,-7959,-818,-2,0,0,0
33928,2203,-7960,-825,-2,0,0,0
33933,2208,-7959,-833,-2,0,0,0
33938,2216,-7960,-840,-2,0,0,0
33943,2221,-7957,-842,-2,1,0,0
33948,2228,-7957,-840,-2,1,0,0
33953,2234,-7958,-824,-2,2,0,0
33958,2237,-7957,-807,-2,2,0,0
33963,2235,-7958,-785,-2,1,0,0
33968,2230,-7959,-765,-2,2,0,0
33974,2215,-7958,-751,-2,2,0,0
33978,2201,-7960,-739,-2,2,0,0
33983,2188,-7959,-738,-2,2,0,0
33988,2181,-7957,-742,-2,1,0,0
33993,2177,-7956,-744,-2,1,0,0
33998,2169,-7956,-742,-2,0,0,0
34003,2158,-7955,-743,-2,0,-1,0
34008,2146,-7957,-743,-2,0,-1,0
34013,2133,-7958,-742,-2,1,-1,0
34018,2119,-7958,-743,-2,1,-1,0
34023,2110,-7956,-743,-2,1,-1,0
34028,2108,-7956,-736,-2,1,-1,0
34033,2108,-7952,-725,-2,1,-1,0
34038,2118,-7953,-713,-2,1,-1,0
34043,2134,-7952,-701,-2,0,-1,0
34049,2158,-7954,-692,-2,0,-1,0
34054,2172,-7957,-682,-2,0,-1,0
34059,2177,-7956,-673,-2,-1,-1,0
34063,2175,-7956,-670,-2,-1,-1,0
34068,2166,-7956,-672,-2,-2,-1,0
34073,2153,-7955,-680,-2,-2,-1,0
34078,2140,-7958,-691,-2,-3,-1,0
34083,2129,-7957,-708,-2,-3,-1,0
34088,2125,-7958,-719,-2,-4,-1,0
34093,2124,-7959,-730,-2,-5,-1,0
34098,2133,-7956,-741,-2,-5,-1,0
34103,2142,-7956,-751,-2,-5,-1,0
34108,2156,-7957,-762,-2,-5,-1,0
34113,2166,-7957,-764,-2,-5,-1,0
34118,2178,-7956,-761,-2,-4,-1,0
34123,2192,-7954,-754,-2,-4,-1,0
34128,2204,-7956,-744,-2,-3,-1,0
34133,2216,-7954,-734,-2,-2,-1,0
34138,2229,-7952,-727,-2,-2,-1,0
34143,2238,-7951,-721,-2,-2,-1,0
34148,2243,-7950,-717,-2,-2,-1,0
34153,2244,-7950,-716,-2,-2,-1,0
34158,2242,-7951,-725,-2,-2,-1,0
34163,2243,-7952,-735,-2,-3,-1,0
34168,2240,-7952,-751,-2,-3,-1,0
34173,2239,-7952,-769,-2,-4,-1,0
34178,2238,-7952,-788,-2,-4,-1,0
34183,2237,-7951,-802,-2,-4,-1,0
34188,2235,-7949,-812,-2,-4,-1,0
34193,2236,-7950,-819,-2,-3,-1,0
34198,2235,-7948,-824,-2,-3,-1,0
34204,2233,-7945,-821,-2,-2,-1,0
34209,2235,-7943,-816,-2,-2,-1,0
34215,2240,-7944,-811,-2,-1,-1,0
34220,2247,-7944,-805,-2,-1,-1,0
34226,2257,-7940,-794,-2,-1,-1,0
34232,2265,-7940,-781,-2,-2,-1,0
34237,2272,-7940,-774,-2,-2,-1,0
34241,2279,-7942,-768,-2,-2,-1,0
34246,2283,-7944,-765,-2,-2,-1,0
