millis,ax,ay,az,gx,gy,gz,label
8842,399,-8187,201,-3,-4,0,0
8847,386,-8185,176,-3,-4,0,0
8853,373,-8185,150,-3,-4,0,0
8858,355,-8185,125,-3,-4,-1,0
8864,338,-8185,107,-3,-3,-1,0
8869,323,-8188,95,-3,-3,0,0
8874,306,-8188,87,-3,-3,0,0
8880,300,-8188,79,-3,-2,0,0
8884,296,-8186,77,-3,-1,-1,0
8889,293,-8186,72,-3,-1,-1,0
8894,293,-8190,61,-3,-1,-1,0
8898,299,-8188,47,-3,-1,-1,0
8903,300,-8188,38,-3,-1,-1,0
8908,305,-8189,33,-3,-1,-1,0
8912,306,-8188,35,-3,-2,-1,0
8918,305,-8187,38,-3,-2,-1,0
8924,304,-8187,37,-3,-2,-1,0
8928,302,-8187,31,-3,-2,-1,0
8933,304,-8188,22,-2,-2,-1,0
8939,311,-8188,6,-2,-2,-1,0
8944,316,-8186,-14,-2,-2,-1,0
8950,323,-8186,-33,-2,-1,-1,0
8954,329,-8186,-49,-2,-1,-1,0
8960,334,-8187,-63,-2,-2,-1,0
8966,340,-8186,-75,-2,-2,-1,0
8971,342,-8183,-81,-2,-1,-1,0
8977,343,-8183,-84,-2,-1,-1,0
8982,345,-8184,-87,-2,-1,-1,0
8988,348,-8185,-91,-2,0,-1,0
8993,353,-8186,-97,-2,0,-1,0
8998,358,-8186,-98,-2,0,-1,0
9004,363,-8184,-98,-2,1,-1,0
9009,365,-8185,-96,-2,1,-1,0
9013,371,-8186,-81,-2,1,-1,0
9018,373,-8185,-61,-2,1,-1,0
9023,380,-8187,-37,-2,1,-1,0
9028,389,-8188,-20,-2,1,-1,0
9033,397,-8184,-10,-2,1,-1,0
9038,404,-8183,-3,-2,0,-1,0
9043,415,-8182,-2,-2,0,-1,0
9048,422,-8181,-6,-2,0,-1,0
9053,429,-8181,-8,-2,1,-1,0
9058,429,-8182,-6,-2,1,-1,0
9063,428,-8181,-3,-2,1,-1,0
9068,427,-8181,6,-2,1,-1,0
9073,428,-8180,18,-2,1,-1,0
9078,430,-8181,44,-2,1,-1,0
9082,429,-8182,67,-2,1,-1,0
9087,426,-8184,87,-2,2,-1,0
9092,422,-8184,104,-2,2,-1,0
9097,422,-8185,121,-2,2,-1,0
9102,429,-8186,138,-2,2,0,0
9106,441,-8186,153,-2,2,0,0
9110,457,-8187,169,-2,1,0,0
9115,473,-8189,182,-2,1,0,0
9120,487,-8189,203,-2,0,0,0
9124,500,-8191,217,-2,0,0,0
9128,504,-8189,228,-2,-1,0,0
9133,501,-8189,235,-2,-2,0,0
9138,496,-8189,231,-2,-3,0,0
9143,485,-8187,225,-2,-3,0,0
9148,472,-8186,216,-2,-3,0,0
9153,460,-8182,207,-2,-3,0,0
9157,452,-8183,195,-2,-2,0,0
9162,448,-8184,181,-2,-2,0,0
9167,447,-8181,167,-2,-2,0,0
9172,441,-8180,162,-2,-2,0,0
9177,434,-8180,154,-2,-2,0,0
9182,424,-8177,148,-2,-2,0,0
9187,412,-8176,144,-2,-1,0,0
9191,403,-8181,140,-2,-1,0,0
9195,397,-8184,134,-2,-1,0,0
9200,397,-8185,132,-2,-1,0,0
9205,401,-8186,128,-2,-1,0,0
9210,409,-8187,128,-2,-2,0,0
9215,421,-8188,124,-2,-2,0,0
9221,433,-8190,119,-2,-2,0,0
9225,439,-8189,115,-2,-3,0,0
9230,437,-8187,109,-2,-3,0,0
9235,430,-8185,101,-2,-4,0,0
9240,415,-8184,91,-2,-4,0,0
9245,401,-8181,78,-2,-4,0,0
9250,389,-8182,64,-2,-4,0,0
9255,380,-8183,52,-2,-3,0,0
9260,372,-8185,45,-2,-3,0,0
9265,367,-8184,39,-2,-3,0,0
9270,363,-8186,31,-2,-3,0,0
9275,354,-8187,25,-2,-3,0,0
9280,347,-8187,18,-2,-2,0,0
9285,340,-8190,8,-2,-2,0,0
9290,337,-8189,0,-2,-2,0,0
9295,332,-8187,-10,-2,-2,0,0
9300,326,-8185,-22,-2,-2,0,0
9305,320,-8184,-29,-2,-1,0,0
9311,315,-8185,-33,-2,-1,0,0
9316,311,-8185,-35,-2,-1,0,0
9321,311,-8184,-31,-2,-1,0,0
9325,312,-8183,-23,-2,-1,0,0
9330,312,-8182,-16,-2,-1,0,0
9336,314,-8183,-15,-2,-1,0,0
9342,315,-8184,-16,-2,-1,0,0
9348,319,-8183,-14,-2,0,0,0
9353,326,-8185,-12,-2,0,0,0
9358,333,-8183,-11,-2,0,0,0
9364,337,-8184,-8,-2,0,0,0
9369,345,-8185,-5,-2,0,0,0
9375,355,-8184,-1,-2,0,0,0
9381,361,-8183,5,-2,0,0,0
9386,363,-8184,9,-2,0,0,0
9391,361,-8185,13,-2,0,-1,0
9397,362,-8185,16,-2,-1,-1,0
9402,362,-8185,23,-1,0,-1,0
9408,361,-8187,32,-2,0,-1,0
9413,356,-8188,43,-2,0,0,0
9419,350,-8188,55,-2,0,-1,0
9424,345,-8188,67,-2,0,-1,0
9429,353,-8187,77,-1,1,0,0
9435,359,-8189,91,-2,0,0,0
9440,368,-8190,109,-2,0,0,0
9445,382,-8189,123,-2,0,0,0
9450,394,-8189,135,-2,1,0,0
9456,410,-8190,148,-2,1,0,0
9461,426,-8191,158,-2,1,0,0
9467,439,-8191,162,-2,0,0,0
9472,446,-8190,167,-2,0,0,0
9477,451,-8188,175,-2,-1,0,0
9483,452,-8191,187,-2,-1,0,0
9488,447,-8190,199,-2,-1,0,0
9494,442,-8191,210,-2,-1,0,0
9499,437,-8192,216,-2,-2,0,0
9505,433,-8190,219,-2,-2,0,0
9510,428,-8190,215,-2,-2,0,0
9516,424,-8189,208,-2,-2,0,0
9521,420,-8189,200,-2,-2,0,0
9527,420,-8189,195,-2,-2,0,0
9532,420,-8189,187,-2,-2,0,0
9537,421,-8190,178,-2,-2,0,0
9541,421,-8191,171,-2,-1,0,0
9547,423,-8188,171,-2,-2,0,0
9551,422,-8185,173,-2,-2,0,0
9556,422,-8185,167,-2,-2,0,0
9561,425,-8187,164,-2,-2,0,0
9565,427,-8187,154,-2,-3,0,0
9570,426,-8188,145,-2,-3,0,0
9575,421,-8187,135,-2,-3,0,0
9580,412,-8183,123,-2,-3,0,0
9585,398,-8183,107,-2,-3,0,0
9589,383,-8182,98,-2,-3,0,0
9594,367,-8183,88,-2,-2,0,0
9599,353,-8183,82,-2,-2,0,0
9604,341,-8183,74,-2,-2,0,0
9609,331,-8184,68,-2,-2,0,0
9613,326,-8187,69,-2,-1,0,0
9618,328,-8189,69,-2,-1,0,0
9623,331,-8190,72,-2,-1,0,0
9628,337,-8191,69,-2,0,0,0
9633,343,-8192,67,-2,0,0,0
9637,346,-8191,65,-2,0,0,0
9642,348,-8192,69,-2,0,0,0
9646,350,-8193,74,-2,0,0,0
9651,352,-8193,82,-2,0,0,0
9656,353,-8193,88,-2,-1,0,0
9661,351,-8193,89,-2,-1,0,0
9666,350,-8194,89,-2,-1,0,0
9670,345,-8194,85,-2,-2,0,0
9676,340,-8193,85,-2,-2,0,0
9680,335,-8193,82,-2,-1,0,0
9685,335,-8192,77,-2,-1,0,0
9689,338,-8192,73,-2,-1,0,0
9694,342,-8192,67,-2,-1,0,0
9699,347,-8196,63,-2,-1,0,0
9704,351,-8193,59,-2,0,0,0
9708,352,-8189,59,-2,0,0,0
9713,348,-8185,65,-2,0,0,0
9718,345,-8185,68,-2,0,0,0
9722,341,-8186,76,-2,0,0,0
9727,332,-8188,81,-2,-1,0,0
9731,324,-8187,85,-2,-1,0,0
9736,314,-8185,91,-2,0,-1,0
9741,309,-8181,94,-2,0,-1,0
9746,301,-8180,98,-2,0,-1,0
9750,299,-8180,103,-2,0,-1,0
9755,301,-8179,103,-2,0,-1,0
9760,304,-8181,111,-2,1,-1,0
9765,305,-8185,121,-2,1,-1,0
9769,309,-8186,128,-2,1,-1,0
9774,315,-8184,139,-2,1,-1,0
9779,322,-8185,146,-2,0,-1,0
9783,332,-8186,149,-2,0,-1,0
9788,336,-8184,151,-2,0,-1,0
9793,339,-8184,148,-2,-1,-1,0
9798,342,-8186,149,-2,0,-1,0
9802,345,-8188,152,-2,0,-1,0
9806,349,-8189,156,-2,0,-1,0
9810,351,-8189,157,-2,0,-1,0
9814,355,-8191,158,-2,0,-1,0
9819,361,-8191,160,-2,1,-1,0
9824,375,-8190,163,-2,1,-1,0
9829,390,-8190,173,-2,0,-1,0
9834,406,-8188,181,-2,0,-1,0
9839,422,-8189,184,-2,-1,-1,0
9844,436,-8190,188,-2,-1,-1,0
9849,446,-8193,193,-2,-2,-1,0
9854,452,-8194,192,-2,-2,-1,0
9859,454,-8194,191,-2,-2,-1,0
9864,452,-8194,194,-2,-2,-1,0
9869,448,-8192,193,-2,-2,0,0
9874,444,-8192,197,-2,-2,0,0
9879,435,-8192,201,-2,-2,0,0
9884,426,-8191,208,-2,-2,0,0
9889,415,-8190,214,-2,-2,0,0
9894,405,-8190,210,-2,-2,0,0
9899,398,-8189,204,-2,-2,0,0
9904,389,-8188,197,-2,-2,0,0
9909,380,-8187,189,-2,-2,0,0
9914,372,-8187,178,-2,-2,0,0
9919,367,-8189,166,-2,-2,0,0
9924,364,-8191,158,-2,-2,0,0
9929,365,-8191,148,-2,-2,0,0
9934,367,-8191,142,-2,-2,-1,0
9939,370,-8191,133,-2,-2,-1,0
9944,373,-8194,126,-2,-2,0,0
9949,378,-8193,116,-2,-2,0,0
9954,381,-8190,108,-2,-2,0,0
9959,385,-8189,97,-2,-2,0,0
9964,387,-8190,87,-2,-2,0,0
9969,392,-8190,85,-2,-2,0,0
9974,392,-8191,87,-2,-2,0,0
9979,390,-8190,87,-2,-2,0,0
9984,388,-8192,88,-2,-2,0,0
9989,383,-8194,94,-2,-2,0,0
9994,379,-8192,97,-2,-2,0,0
9999,371,-8192,96,-2,-2,-1,0
10004,362,-8190,90,-2,-2,-1,0
10009,352,-8191,80,-2,-2,-1,0
10014,343,-8193,76,-2,-2,-1,0
10019,338,-8194,73,-2,-1,0,0
10024,334,-8194,67,-2,-1,0,0
10029,335,-8193,62,-2,-1,-1,0
10034,339,-8191,65,-2,-1,0,0
10039,342,-8194,70,-2,-1,-1,0
10044,345,-8190,73,-2,-1,-1,0
10049,353,-8189,73,-2,-1,-1,0
10054,360,-8188,70,-2,-1,-1,0
10059,363,-8187,71,-2,-1,-1,0
10064,368,-8187,74,-2,-1,-1,0
10069,368,-8189,79,-2,-1,-1,0
10074,370,-8187,83,-2,-1,-1,0
10079,373,-8186,88,-2,-2,-1,0
10084,371,-8186,90,-2,-2,-1,0
10089,366,-8187,88,-2,-2,-1,0
10094,364,-8189,82,-2,-2,-1,0
10099,365,-8187,79,-2,-2,-1,0
10104,365,-8188,75,-2,-1,-1,0
10109,365,-8187,69,-2,-1,-1,0
10114,374,-8188,67,-2,-1,-1,0
10119,379,-8190,71,-2,-1,-1,0
10124,378,-8191,76,-2,-1,0,0
10129,381,-8190,89,-2,-1,-1,0
10135,384,-8189,103,-2,-1,-1,0
10140,384,-8186,112,-2,-1,-1,0
10146,381,-8187,120,-2,-1,-1,0
10150,375,-8186,126,-2,-2,-1,0
10154,368,-8186,127,-2,-2,-1,0
10159,363,-8187,127,-2,-2,-1,0
10164,358,-8188,125,-2,-2,-1,0
10169,355,-8186,126,-2,-2,-1,0
10174,354,-8185,129,-2,-2,-1,0
10179,353,-8185,129,-2,-2,-1,0
10184,353,-8186,132,-2,-2,-1,0
10189,356,-8186,131,-2,-2,-1,0
10194,360,-8183,123,-2,-1,-1,0
10199,365,-8183,115,-2,-1,-1,0
10204,368,-8183,105,-2,-1,-1,0
10209,370,-8183,94,-2,-1,-1,0
10214,378,-8184,87,-2,-1,-1,0
10220,386,-8185,78,-2,-1,-1,0
10225,397,-8186,73,-2,-1,-1,0
10229,405,-8190,70,-2,-1,-1,0
10235,410,-8191,66,-2,-1,-1,0
10240,413,-8188,66,-2,-1,-1,0
10246,411,-8184,66,-2,-1,-1,0
10251,409,-8182,71,-2,-1,-1,0
10256,408,-8182,72,-2,-1,-1,0
10262,409,-8184,79,-2,-1,-1,0
10266,408,-8186,89,-2,-1,-1,0
10271,409,-8186,99,-2,-1,-1,0
10277,407,-8189,111,-2,-1,-1,0
10282,408,-8188,123,-2,-1,-1,0
10287,412,-8189,135,-2,-1,-1,0
10292,415,-8187,141,-2,-2,-1,0
10297,416,-8188,148,-2,-2,-1,0
10301,418,-8188,152,-2,-2,-1,0
10307,419,-8185,147,-2,-2,-1,0
10312,420,-8185,141,-2,-2,-1,0
10318,422,-8186,135,-2,-2,-1,0
10324,420,-8185,129,-2,-2,-1,0
10330,417,-8186,128,-2,-2,0,0
10334,417,-8185,127,-2,-2,0,0
10339,417,-8184,125,-2,-2,0,0
10344,415,-8181,124,-2,-2,0,0
10349,419,-8180,121,-2,-2,0,0
10354,429,-8181,120,-2,-2,0,0
10359,441,-8182,118,-2,-2,0,0
10364,451,-8181,115,-2,-2,0,0
10368,465,-8180,113,-2,-2,0,0
10373,473,-8184,109,-2,-3,0,0
10377,479,-8188,102,-2,-3,0,0
10382,481,-8190,99,-2,-3,0,0
10387,477,-8191,98,-2,-3,0,0
10391,470,-8191,94,-2,-3,0,0
10396,458,-8187,88,-2,-3,0,0
10401,443,-8182,87,-2,-3,0,0
10406,430,-8181,86,-2,-3,0,0
10410,421,-8184,85,-2,-3,0,0
10415,411,-8186,83,-2,-3,0,0
10420,401,-8187,78,-2,-3,0,0
10425,396,-8186,74,-2,-3,0,0
10429,392,-8186,68,-2,-3,0,0
10433,387,-8186,61,-2,-3,0,0
10438,381,-8186,54,-2,-3,0,0
10443,374,-8189,52,-2,-3,0,0
10448,369,-8191,45,-2,-3,0,0
10453,369,-8189,37,-2,-3,0,0
10458,370,-8189,29,-2,-3,0,0
10464,371,-8189,23,-2,-2,0,0
10469,372,-8188,20,-2,-2,0,0
10474,371,-8188,16,-2,-2,0,0
10479,371,-8186,17,-2,-2,0,0
10483,369,-8184,17,-2,-2,0,0
10488,365,-8183,20,-2,-2,0,0
10494,362,-8181,16,-2,-2,0,0
10499,363,-8179,10,-2,-2,0,0
10503,363,-8181,7,-2,-1,0,0
10508,363,-8183,6,-2,-1,0,0
10513,362,-8182,4,-2,-1,0,0
10518,360,-8185,0,-2,-1,0,0
10523,359,-8184,2,-2,-1,0,0
10528,355,-8184,5,-2,-1,0,0
10533,351,-8183,5,-1,0,0,0
10538,350,-8184,7,-1,0,0,0
10543,349,-8185,11,-2,0,0,0
10548,353,-8187,21,-1,0,0,0
10553,357,-8191,30,-1,-1,0,0
10558,359,-8191,40,-1,-1,0,0
10563,359,-8192,44,-1,-1,0,0
10568,359,-8191,53,-1,-2,-1,0
10574,357,-8186,54,-1,-2,-1,0
10579,356,-8184,55,-1,-2,0,0
10583,357,-8182,52,-1,-2,-1,0
10588,357,-8181,46,-1,-2,-1,0
10594,358,-8182,43,-1,-2,-1,0
10599,354,-8182,36,-1,-2,-1,0
10604,351,-8182,33,-1,-2,-1,0
10609,346,-8184,31,-1,-2,-1,0
10614,346,-8184,31,-1,-2,-1,0
10620,346,-8186,31,-1,-2,-1,0
10625,343,-8187,32,-1,-1,-1,0
10629,342,-8187,36,-1,-1,-1,0
10634,344,-8187,41,-1,-1,-1,0
10639,348,-8189,49,-1,-1,-1,0
10644,353,-8188,55,-1,-1,-1,0
10649,360,-8186,65,-1,-1,-1,0
10654,369,-8183,75,-1,-1,-1,0
10659,379,-8182,81,-1,-1,-1,0
10664,392,-8182,94,-1,-1,-1,0
10669,405,-8185,102,-1,-1,-1,0
10673,415,-8185,114,-1,-1,-1,0
10678,427,-8184,121,-1,-1,0,0
10683,437,-8186,122,-1,-1,0,0
10688,446,-8185,126,-1,-1,0,0
10693,456,-8181,127,-1,-1,0,0
10698,466,-8180,127,-1,-1,0,0
10703,476,-8182,131,-1,-1,0,0
10708,488,-8183,135,-1,-1,0,0
10713,501,-8183,141,-1,-1,0,0
10718,516,-8180,151,-1,0,0,0
10723,532,-8179,163,-1,-1,0,0
10728,542,-8181,170,-1,-1,0,0
10733,549,-8181,179,-1,-1,0,0
10738,556,-8181,180,-1,-1,0,0
10743,561,-8180,184,-1,-2,0,0
10748,557,-8178,191,-1,-2,0,0
10753,544,-8175,197,-1,-3,0,0
10758,523,-8176,207,-1,-3,0,0
10763,499,-8179,214,-1,-3,0,0
10768,468,-8182,225,-1,-2,0,0
10773,437,-8183,234,-1,-2,0,0
10778,413,-8181,241,-1,-2,0,0
10783,398,-8179,248,-1,-2,0,0
10788,395,-8177,250,-1,-2,0,0
10793,405,-8176,250,-2,-2,0,0
10798,419,-8176,253,-2,-2,0,0
10803,432,-8176,257,-2,-3,0,0
10808,439,-8176,264,-2,-3,0,0
10813,435,-8176,267,-2,-4,0,0
10818,428,-8174,268,-2,-4,0,0
10823,409,-8175,270,-2,-4,0,0
10828,384,-8174,271,-2,-4,0,0
10833,362,-8176,273,-2,-4,0,0
10838,341,-8178,268,-2,-4,0,0
10844,328,-8178,261,-2,-4,0,0
10849,315,-8181,257,-2,-4,0,0
10855,306,-8181,253,-2,-4,0,0
10861,306,-8181,250,-2,-5,0,0
10866,304,-8180,245,-2,-5,0,0
10872,303,-8183,237,-2,-5,0,0
10878,301,-8183,229,-2,-5,0,0
10883,298,-8186,221,-2,-5,0,0
10889,293,-8188,214,-2,-5,0,0
10894,292,-8192,203,-2,-4,0,0
10900,297,-8190,196,-2,-4,0,0
10906,306,-8188,191,-2,-4,0,0
10911,319,-8186,189,-2,-4,0,0
10917,334,-8184,193,-2,-4,0,0
10922,353,-8186,193,-2,-4,0,0
10928,373,-8187,195,-2,-4,0,0
10934,389,-8186,200,-2,-4,0,0
10939,404,-8186,202,-2,-5,0,0
10945,417,-8184,200,-2,-5,0,0
10950,425,-8182,196,-2,-5,0,0
10956,428,-8182,195,-2,-6,0,0
10961,425,-8183,196,-2,-6,0,0
10967,416,-8183,194,-2,-6,0,0
10972,406,-8184,190,-2,-5,0,0
10977,397,-8185,182,-2,-5,0,0
10983,388,-8183,177,-2,-5,0,0
10988,381,-8180,167,-2,-5,0,0
10994,373,-8178,157,-2,-4,0,0
11000,367,-8178,146,-2,-4,0,0
11005,365,-8182,141,-2,-3,0,0
11011,367,-8181,135,-2,-3,0,0
11016,373,-8180,131,-2,-2,0,0
11021,383,-8181,128,-2,-2,0,0
11027,394,-8182,130,-2,-2,0,0
11033,404,-8181,134,-2,-2,0,0
11037,409,-8180,144,-2,-3,0,0
11042,409,-8179,147,-2,-3,0,0
11046,403,-8179,157,-2,-3,0,0
11051,397,-8178,169,-2,-4,0,0
11056,384,-8181,181,-2,-4,0,0
11062,365,-8183,179,-2,-4,0,0
11067,342,-8185,175,-2,-4,0,0
11071,326,-8187,173,-2,-4,0,0
11075,312,-8188,165,-2,-4,0,0
11080,301,-8187,159,-2,-3,0,0
11084,297,-8184,153,-2,-2,0,0
11089,297,-8182,147,-2,-2,0,0
11093,307,-8180,139,-2,-1,0,0
11097,322,-8182,140,-2,-1,0,0
11101,335,-8182,143,-2,-1,0,0
11105,345,-8184,147,-2,-1,0,0
11109,354,-8184,150,-2,-1,0,0
11113,359,-8184,157,-2,-1,0,0
11117,365,-8184,165,-2,-2,0,0
11121,370,-8184,177,-2,-2,0,0
11125,375,-8184,181,-2,-2,0,0
11129,384,-8185,183,-2,-2,0,0
11133,394,-8187,183,-2,-2,0,0
11137,403,-8189,179,-2,-2,0,0
11141,408,-8186,178,-2,-2,0,0
11145,411,-8187,176,-2,-2,0,0
11149,412,-8187,173,-2,-2,0,0
11153,409,-8186,172,-2,-3,0,0
11157,405,-8186,172,-2,-2,0,0
11162,398,-8186,171,-2,-2,0,0
11167,388,-8184,172,-2,-2,0,0
11172,383,-8184,172,-2,-2,0,0
11177,380,-8182,167,-2,-2,0,0
11182,379,-8183,160,-2,-1,0,0
11187,379,-8183,157,-2,-1,0,0
11192,381,-8183,157,-2,-1,0,0
11197,379,-8181,154,-2,-1,0,0
11202,374,-8184,157,-2,-2,0,0
11207,363,-8182,152,-2,-2,0,0
11212,354,-8183,153,-2,-2,0,0
11217,344,-8185,153,-2,-2,0,0
11222,333,-8186,149,-2,-2,0,0
11227,327,-8183,145,-2,-2,0,0
11232,323,-8179,143,-2,-2,0,0
11237,323,-8178,143,-2,-2,0,0
11242,326,-8178,135,-2,-1,0,0
11247,332,-8175,133,-2,-1,0,0
11252,340,-8176,125,-2,-1,0,0
11257,346,-8176,118,-2,-1,0,0
11262,352,-8176,115,-2,-1,0,0
11267,350,-8174,112,-2,-1,0,0
11272,344,-8177,111,-2,-1,0,0
11277,335,-8178,116,-2,0,0,0
11282,324,-8177,123,-2,0,0,0
11287,315,-8178,128,-2,0,0,0
11292,306,-8180,139,-2,0,0,0
11297,300,-8180,150,-2,0,0,0
11302,297,-8180,156,-2,0,0,0
11307,294,-8178,165,-2,0,0,0
11312,293,-8179,177,-2,0,0,0
11317,294,-8180,185,-2,0,0,0
11322,296,-8182,189,-2,0,0,0
11327,301,-8183,193,-2,0,-1,0
11332,304,-8181,196,-2,0,-1,0
11337,305,-8179,201,-2,0,-1,0
11342,308,-8178,209,-2,0,-1,0
11347,313,-8178,214,-2,0,-1,0
11352,318,-8179,221,-2,0,-1,0
11357,326,-8181,227,-2,0,-1,0
11362,331,-8180,235,-2,-1,-1,0
11367,336,-8179,236,-2,-1,-1,0
11372,340,-8178,239,-2,-1,-1,0
11377,339,-8178,245,-2,-2,-1,0
11382,334,-8178,246,-2,-2,-1,0
11387,327,-8180,250,-2,-2,-1,0
11392,319,-8182,252,-2,-2,-1,0
11397,310,-8183,255,-2,-1,-1,0
11402,308,-8182,250,-2,-1,-1,0
11408,307,-8182,248,-2,-1,-1,0
11412,309,-8182,249,-2,-1,-1,0
11417,317,-8181,250,-2,-1,-1,0
11423,331,-8178,251,-2,-1,-1,0
11428,347,-8178,258,-2,-1,-1,0
11432,363,-8179,256,-2,-1,-1,0
11437,377,-8177,257,-2,-1,-1,0
11442,389,-8177,259,-2,-1,-1,0
11447,400,-8179,256,-2,-1,-1,0
11452,412,-8181,258,-2,-1,-1,0
11457,418,-8181,255,-2,-1,-1,0
11462,424,-8180,258,-2,-1,-1,0
11467,433,-8180,258,-2,-1,-1,0
11472,440,-8180,260,-2,-1,0,0
11477,447,-8181,262,-2,-1,0,0
11482,452,-8182,262,-2,-1,0,0
11487,452,-8183,264,-2,-1,0,0
11492,451,-8184,266,-2,-1,0,0
11497,446,-8185,265,-2,-2,0,0
11502,439,-8185,265,-2,-2,0,0
11507,433,-8186,263,-2,-2,0,0
11512,429,-8185,260,-2,-2,0,0
11517,422,-8185,254,-2,-2,0,0
11522,416,-8185,246,-2,-2,0,0
11527,412,-8184,234,-2,-2,0,0
11532,410,-8185,223,-2,-1,0,0
11537,404,-8185,219,-2,-1,0,0
11542,395,-8185,208,-2,-1,0,0
11547,383,-8186,202,-2,-1,0,0
11552,371,-8184,205,-2,-1,0,0
11557,361,-8185,210,-2,-1,0,0
11562,351,-8185,210,-2,-1,0,0
11567,341,-8184,206,-2,-1,0,0
11572,333,-8183,209,-2,-1,0,0
11577,325,-8182,208,-2,-1,0,0
11582,315,-8180,212,-2,-1,0,0
11587,308,-8180,209,-2,-2,0,0
11592,303,-8181,206,-2,-2,-1,0
11597,297,-8182,202,-2,-2,-1,0
11602,291,-8184,198,-2,-2,-1,0
11607,285,-8184,196,-2,-2,-1,0
11612,282,-8182,198,-2,-1,-1,0
11617,281,-8181,199,-2,-1,-1,0
11622,283,-8179,197,-2,-1,-1,0
11627,289,-8178,197,-2,-1,-1,0
11632,296,-8178,194,-2,-1,-1,0
11637,307,-8176,193,-2,-1,-1,0
11643,315,-8177,190,-2,-1,-1,0
11649,326,-8178,184,-2,-1,-1,0
11654,338,-8174,185,-2,-1,-1,0
11658,349,-8175,189,-2,-1,-1,0
11664,363,-8177,194,-2,-1,-1,0
11670,377,-8179,198,-2,-1,-1,0
11675,390,-8178,202,-2,-1,-1,0
11681,405,-8177,204,-2,-2,-1,0
11687,419,-8174,204,-2,-2,-1,0
11692,432,-8177,202,-2,-2,-1,0
11698,441,-8180,199,-2,-2,-1,0
11704,445,-8178,196,-2,-2,-1,0
11710,447,-8174,192,-2,-2,0,0
11715,445,-8175,190,-2,-2,0,0
11721,443,-8175,183,-2,-2,0,0
11727,437,-8175,182,-2,-2,0,0
11731,431,-8175,182,-2,-2,0,0
11737,423,-8174,180,-2,-2,0,0
11743,415,-8174,179,-2,-2,0,0
11748,408,-8176,175,-2,-2,0,0
11753,400,-8176,168,-2,-2,0,0
11759,395,-8179,162,-2,-2,-1,0
11765,390,-8182,156,-2,-2,0,0
11770,385,-8179,147,-2,-2,0,0
11776,381,-8176,143,-2,-1,0,0
11782,378,-8176,143,-2,-1,0,0
11788,370,-8176,146,-2,-1,0,0
11793,363,-8178,151,-2,-1,-1,0
11799,352,-8180,156,-2,-1,-1,0
11805,342,-8179,164,-2,-1,-1,0
11811,332,-8180,177,-2,-1,-1,0
11816,327,-8182,189,-2,-1,-1,0
11822,326,-8181,193,-2,-1,-1,0
11828,326,-8182,197,-2,-1,-1,0
11834,333,-8184,204,-2,-1,-1,0
11840,342,-8184,209,-2,-1,-1,0
11845,353,-8185,211,-2,-2,-1,0
11851,366,-8186,215,-2,-2,-1,0
11857,375,-8187,216,-2,-2,-1,0
11863,383,-8187,212,-2,-2,-1,0
11869,387,-8183,208,-2,-2,-1,0
11874,389,-8182,204,-2,-2,-1,0
11880,390,-8183,200,-3,-2,-1,0
11886,389,-8187,196,-2,-2,-1,0
11892,390,-8185,197,-3,-2,-1,0
11898,390,-8180,194,-2,-2,-1,0
11904,396,-8178,190,-2,-2,-1,0
11909,400,-8178,189,-3,-2,-1,0
11915,403,-8180,186,-2,-2,0,0
11921,407,-8178,183,-2,-2,0,0
11926,414,-8175,177,-2,-2,-1,0
11932,423,-8176,171,-2,-2,0,0
11937,426,-8179,160,-2,-2,0,0
11941,426,-8182,156,-2,-3,0,0
11946,424,-8185,151,-2,-3,0,0
11950,419,-8185,142,-2,-3,0,0
11955,412,-8188,135,-2,-2,0,0
11960,404,-8184,138,-2,-2,0,0
11965,400,-8183,138,-2,-2,0,0
11970,396,-8184,133,-2,-2,0,0
11975,394,-8184,124,-2,-2,0,0
11980,394,-8184,117,-2,-2,0,0
11985,396,-8183,115,-2,-2,0,0
11989,397,-8186,109,-2,-2,0,0
11994,399,-8187,108,-2,-2,0,0
11999,402,-8187,103,-2,-2,0,0
12004,400,-8188,93,-2,-2,0,0
12009,398,-8185,87,-2,-2,0,0
12013,397,-8184,82,-2,-1,0,0
12018,394,-8182,78,-2,-1,0,0
12023,390,-8180,77,-2,-1,0,0
12028,383,-8178,82,-2,-1,0,0
12032,381,-8178,90,-2,0,0,0
12037,379,-8181,103,-2,0,0,0
12043,379,-8179,116,-2,0,0,0
12048,385,-8176,131,-2,0,0,0
12053,392,-8176,141,-2,0,0,0
12058,401,-8178,149,-2,0,0,0
12064,410,-8178,159,-2,0,0,0
12069,418,-8180,166,-2,0,0,0
12074,422,-8183,177,-2,-1,0,0
12080,424,-8185,190,-2,-1,0,0
12085,421,-8186,201,-2,-1,0,0
12091,416,-8186,207,-2,-1,0,0
12096,411,-8186,212,-2,-1,0,0
12101,405,-8185,216,-2,-1,0,0
12107,401,-8183,219,-2,-2,0,0
12112,398,-8183,220,-2,-2,0,0
12118,397,-8182,217,-2,-2,0,0
12123,398,-8180,216,-2,-2,0,0
12129,398,-8179,211,-2,-2,0,0
12134,397,-8181,208,-2,-1,0,0
12140,399,-8179,214,-2,-1,0,0
12145,403,-8179,218,-2,-2,0,0
12151,407,-8178,223,-2,-2,0,0
12155,412,-8180,223,-2,-2,0,0
12159,419,-8182,222,-2,-2,0,0
12163,427,-8183,220,-2,-2,0,0
12167,434,-8182,216,-2,-2,0,0
12173,436,-8180,213,-2,-3,0,0
12178,433,-8177,211,-2,-3,0,0
12184,426,-8175,211,-2,-3,0,0
12189,416,-8176,209,-2,-3,0,0
12195,411,-8179,205,-2,-3,0,0
12200,400,-8178,198,-2,-3,0,0
12206,391,-8178,190,-2,-3,0,0
12211,381,-8181,181,-2,-2,0,0
12217,376,-8183,174,-2,-2,0,0
12223,376,-8185,166,-2,-2,0,0
12228,380,-8183,150,-2,-2,0,0
12234,384,-8181,140,-2,-2,0,0
12239,385,-8178,133,-2,-2,0,0
12245,387,-8177,129,-2,-2,0,0
12250,391,-8176,122,-2,-2,0,0
12256,394,-8176,118,-2,-2,0,0
12261,392,-8179,114,-2,-2,0,0
12267,387,-8180,104,-2,-2,0,0
12272,376,-8182,106,-2,-3,0,0
12278,364,-8182,108,-2,-3,0,0
12284,352,-8184,107,-2,-3,0,0
12289,338,-8186,106,-2,-2,0,0
12295,326,-8185,106,-2,-2,0,0
12300,315,-8184,103,-2,-2,0,0
12306,310,-8183,101,-2,-2,0,0
12311,305,-8182,102,-2,-1,0,0
12316,308,-8182,100,-2,-1,0,0
12321,314,-8181,100,-2,-1,0,0
12326,323,-8182,104,-2,-1,0,0
12331,336,-8182,108,-2,-1,0,0
12335,350,-8182,114,-2,0,0,0
12338,360,-8182,118,-2,0,0,0
12342,369,-8182,121,-2,0,0,0
12346,377,-8184,126,-2,0,0,0
12350,387,-8185,135,-2,0,0,0
12353,396,-8184,140,-2,0,0,0
12357,405,-8184,148,-2,0,0,0
12361,415,-8184,157,-2,0,0,0
12365,425,-8185,163,-2,0,0,0
12368,432,-8186,169,-2,0,0,0
12372,437,-8188,172,-2,-1,0,0
12376,440,-8186,173,-2,-1,0,0
12380,438,-8183,174,-2,-1,0,0
12384,435,-8181,174,-2,-1,0,0
12388,431,-8177,176,-2,-1,0,0
12392,429,-8175,177,-2,-1,0,0
12396,425,-8174,177,-2,-2,0,0
12400,419,-8172,174,-2,-2,0,0
12404,411,-8171,173,-2,-2,0,0
12407,405,-8172,170,-2,-2,0,0
12411,400,-8172,164,-2,-2,0,0
12415,393,-8171,161,-2,-2,0,0
12419,384,-8170,160,-2,-2,0,0
12423,373,-8172,159,-2,-1,0,0
12427,362,-8174,163,-2,-1,0,0
12431,355,-8176,169,-2,-1,0,0
12435,353,-8177,173,-2,-1,0,0
12439,352,-8178,181,-2,-1,0,0
12443,355,-8179,187,-2,-1,0,0
12447,359,-8181,192,-2,-1,0,0
12451,364,-8181,197,-2,-1,0,0
12455,369,-8181,200,-2,-1,0,0
12459,372,-8184,196,-2,-1,0,0
12463,373,-8184,190,-2,-1,0,0
12467,370,-8185,187,-2,-2,0,0
12471,365,-8184,191,-2,-2,0,0
12475,359,-8186,189,-2,-2,0,0
12479,355,-8187,189,-2,-2,0,0
12483,353,-8184,191,-2,-1,0,0
12487,353,-8183,193,-2,-1,0,0
12491,356,-8181,190,-2,-1,0,0
12495,363,-8182,187,-2,-1,0,0
12499,369,-8181,181,-2,-1,0,0
12503,375,-8177,176,-2,-2,0,0
12507,380,-8178,170,-2,-2,0,0
12511,384,-8180,166,-2,-2,0,0
12515,386,-8178,165,-2,-2,0,0
12520,388,-8177,165,-2,-2,0,0
12525,389,-8178,168,-2,-2,0,0
12530,389,-8178,169,-2,-2,0,0
12535,389,-8176,174,-2,-2,0,0
12540,387,-8176,173,-2,-2,0,0
12545,381,-8177,172,-2,-2,0,0
12550,372,-8178,172,-2,-2,0,0
12555,365,-8178,171,-2,-2,0,0
12560,362,-8176,168,-2,-2,0,0
12565,360,-8175,163,-2,-2,0,0
12570,358,-8177,155,-2,-2,0,0
12575,359,-8178,148,-2,-2,0,0
12580,357,-8180,142,-2,-1,0,0
12585,359,-8181,134,-2,-1,0,0
12590,360,-8179,122,-2,-1,0,0
12595,362,-8179,110,-2,-1,0,0
12600,361,-8179,106,-2,-1,0,0
12605,356,-8180,107,-2,-1,0,0
12610,352,-8179,106,-2,-1,0,0
12615,350,-8176,101,-2,-1,0,0
12621,348,-8176,92,-2,-1,0,0
12626,346,-8176,88,-2,-1,0,0
12631,341,-8178,79,-2,-1,0,0
12636,338,-8181,72,-2,-1,0,0
12641,335,-8184,64,-2,0,0,0
12646,329,-8183,60,-2,0,0,0
12651,323,-8184,63,-2,0,0,0
12655,315,-8183,72,-2,0,0,0
12660,308,-8185,82,-2,0,0,0
12665,300,-8187,93,-2,1,0,0
12670,291,-8188,101,-2,1,0,0
12675,287,-8190,107,-2,1,0,0
12680,287,-8188,119,-2,1,0,0
12685,285,-8186,128,-2,1,0,0
12690,286,-8183,134,-2,2,0,0
12695,287,-8184,146,-2,2,0,0
12700,289,-8186,157,-2,2,0,0
12705,292,-8188,168,-2,2,0,0
12710,297,-8189,184,-2,2,0,0
12715,301,-8192,200,-2,2,0,0
12720,308,-8191,214,-2,2,0,0
12725,317,-8187,224,-2,1,0,0
12730,327,-8185,233,-2,1,0,0
12735,332,-8187,241,-2,0,0,0
12740,335,-8187,251,-2,0,0,0
12745,334,-8184,259,-2,-1,0,0
12750,332,-8185,264,-2,-1,0,0
12755,334,-8183,263,-2,-1,0,0
12760,334,-8182,263,-2,-2,0,0
12765,338,-8182,263,-2,-2,0,0
12770,344,-8182,253,-2,-2,0,0
12775,345,-8184,242,-2,-2,0,0
12780,346,-8187,236,-2,-2,0,0
12785,346,-8187,231,-2,-2,0,0
12790,345,-8188,232,-2,-2,0,0
12795,341,-8189,228,-2,-2,0,0
12800,337,-8190,221,-2,-2,0,0
12805,331,-8188,221,-2,-2,0,0
12810,326,-8187,213,-2,-2,0,0
12815,320,-8188,205,-2,-3,0,0
12820,313,-8187,197,-2,-3,0,0
12825,306,-8183,186,-2,-3,0,0
12830,301,-8183,175,-2,-2,0,0
12835,297,-8183,164,-2,-2,0,0
12840,297,-8184,149,-2,-2,0,0
12845,302,-8186,139,-2,-1,0,0
12850,311,-8184,132,-2,-1,0,0
12855,325,-8184,132,-2,-1,0,0
12860,337,-8184,135,-2,-1,0,0
12865,342,-8183,140,-2,-1,0,0
12870,347,-8182,148,-2,-2,0,0
12875,344,-8184,154,-2,-2,0,0
12880,339,-8185,158,-2,-2,0,0
12885,332,-8184,159,-2,-2,0,0
12890,321,-8184,153,-2,-2,0,0
12895,312,-8184,147,-2,-2,0,0
12900,306,-8184,150,-2,-1,0,0
12905,305,-8181,157,-2,-1,0,0
12910,310,-8182,162,-2,-1,0,0
12914,316,-8187,165,-2,0,0,0
12920,319,-8187,176,-2,0,0,0
12925,320,-8186,189,-2,0,0,0
12930,320,-8184,198,-2,0,0,0
12935,322,-8184,209,-2,0,0,0
12940,327,-8183,219,-2,0,0,0
12944,329,-8180,231,-2,0,0,0
12949,335,-8179,242,-2,-1,0,0
12954,340,-8180,258,-2,-1,0,0
12959,342,-8179,271,-2,-1,0,0
12964,343,-8178,280,-2,-1,0,0
12969,341,-8179,285,-2,-2,0,0
12974,342,-8179,283,-2,-2,0,0
12980,341,-8182,281,-2,-2,0,0
12985,335,-8180,275,-2,-2,0,0
12989,329,-8181,269,-2,-2,0,0
12994,323,-8183,263,-2,-2,0,0
12999,320,-8185,258,-2,-2,0,0
13004,320,-8181,256,-2,-2,0,0
13010,322,-8180,255,-2,-2,0,0
13014,325,-8177,249,-2,-2,0,0
13020,326,-8176,240,-2,-2,0,0
13025,324,-8177,227,-2,-2,0,0
13030,322,-8176,214,-2,-3,0,0
13034,319,-8178,201,-2,-3,0,0
13039,315,-8176,190,-2,-3,0,0
13045,310,-8177,177,-2,-3,0,0
13050,303,-8178,167,-2,-3,0,0
13055,295,-8180,156,-2,-3,0,0
13060,288,-8182,151,-2,-3,0,0
13065,279,-8184,145,-2,-2,0,0
13070,271,-8186,136,-2,-2,0,0
13074,265,-8187,131,-2,-2,0,0
13080,261,-8187,123,-2,-2,0,0
13085,258,-8186,117,-2,-1,0,0
13090,258,-8185,111,-2,-1,0,0
13094,258,-8184,112,-2,-1,0,0
13099,259,-8183,114,-2,-1,0,0
13104,264,-8183,118,-2,-1,0,0
13109,273,-8182,119,-2,-1,0,0
13114,279,-8181,120,-2,0,0,0
13119,285,-8180,124,-2,0,0,0
13124,297,-8178,124,-2,0,0,0
13129,306,-8179,128,-2,-1,0,0
13134,313,-8179,133,-2,-1,0,0
13139,316,-8181,141,-2,-1,0,0
13145,313,-8181,152,-2,-1,0,0
13149,307,-8182,164,-2,-1,0,0
13154,301,-8185,179,-2,-1,0,0
13159,294,-8186,191,-2,-1,0,0
13164,294,-8186,199,-2,-1,0,0
13169,295,-8182,203,-2,-1,0,0
13174,299,-8182,208,-2,-1,0,0
13179,303,-8183,215,-2,-1,0,0
13184,308,-8180,224,-2,-1,0,0
13190,309,-8179,230,-2,-1,0,0
13196,312,-8177,241,-2,-1,0,0
13201,317,-8177,246,-2,-1,0,0
13207,317,-8178,255,-2,-1,0,0
13212,321,-8176,261,-2,-1,0,0
13217,327,-8178,263,-2,-1,0,0
13223,334,-8182,265,-2,-2,0,0
13228,343,-8184,262,-2,-2,0,0
13234,349,-8184,262,-2,-2,0,0
13239,351,-8184,262,-2,-2,0,0
13244,349,-8182,260,-2,-2,0,0
13248,341,-8182,260,-2,-2,0,0
13252,334,-8181,258,-2,-2,0,0
13256,323,-8181,253,-2,-2,0,0
13261,314,-8181,252,-2,-2,0,0
13265,307,-8181,246,-2,-2,0,0
13270,306,-8181,242,-2,-2,0,0
13274,308,-8180,244,-2,-2,0,0
13279,311,-8180,236,-2,-3,0,0
13284,315,-8179,232,-2,-3,0,0
13289,314,-8178,226,-2,-3,0,0
13294,311,-8178,218,-2,-3,0,0
13299,305,-8178,210,-2,-3,0,0
13305,296,-8177,201,-2,-3,0,0
13310,288,-8178,184,-2,-3,0,0
13314,280,-8178,172,-2,-3,0,0
13320,276,-8179,161,-2,-2,0,0
13325,279,-8180,153,-2,-2,0,0
13329,284,-8182,143,-2,-2,0,0
13334,289,-8182,139,-2,-2,0,0
13339,293,-8181,133,-2,-2,0,0
13345,297,-8182,127,-2,-2,0,0
13351,295,-8180,119,-2,-2,0,0
13356,291,-8180,115,-2,-1,0,0
13362,286,-8179,116,-2,-1,0,0
13367,284,-8178,117,-2,-1,0,0
13373,283,-8176,117,-2,-1,0,0
13379,283,-8174,121,-2,-1,0,0
13384,285,-8177,127,-2,-1,0,0
13390,291,-8178,133,-2,-1,0,0
13394,293,-8177,139,-2,-1,0,0
13400,296,-8176,143,-2,-1,0,0
13406,298,-8178,140,-2,0,0,0
13411,299,-8178,138,-2,0,0,0
13416,300,-8178,136,-2,0,0,0
13422,304,-8180,135,-2,0,0,0
13427,311,-8178,138,-2,0,0,0
13432,321,-8178,146,-2,1,0,0
13437,330,-8178,156,-2,1,0,0
13443,340,-8176,164,-2,1,0,0
13448,348,-8173,171,-2,1,0,0
13453,349,-8173,181,-2,1,0,0
13458,348,-8174,183,-2,0,0,0
13464,343,-8177,190,-2,0,0,0
13469,340,-8178,191,-2,0,0,0
13474,341,-8179,196,-2,0,0,0
13480,341,-8178,202,-2,0,0,0
13485,345,-8177,206,-2,1,0,0
13490,350,-8178,209,-2,1,0,0
13495,356,-8181,205,-2,1,0,0
13501,360,-8183,205,-2,0,0,0
13506,357,-8184,207,-2,0,0,0
13512,352,-8183,210,-2,0,0,0
13517,344,-8183,210,-2,0,0,0
13523,333,-8185,219,-2,0,0,0
13528,325,-8185,226,-2,0,0,0
13533,317,-8183,225,-2,-1,0,0
13538,304,-8183,223,-2,-1,0,0
13544,289,-8182,222,-2,-1,0,0
13548,274,-8182,216,-2,-1,0,0
13553,263,-8181,211,-2,-1,0,0
13557,253,-8180,207,-2,-1,0,0
13561,246,-8180,197,-2,-1,0,0
13565,240,-8181,192,-2,-1,0,0
13569,234,-8179,187,-2,0,0,0
13573,229,-8177,181,-2,0,0,0
13578,223,-8177,175,-2,0,0,0
13583,218,-8179,170,-2,0,0,0
13587,212,-8178,174,-2,0,0,0
13590,204,-8175,178,-2,0,0,0
13594,194,-8174,179,-2,0,0,0
13598,187,-8175,183,-2,0,0,0
13602,179,-8175,185,-2,0,0,0
13606,171,-8178,186,-2,1,0,0
13609,161,-8180,186,-2,1,0,0
13614,151,-8182,188,-2,1,0,0
13619,143,-8180,187,-2,1,0,0
13624,139,-8181,187,-2,1,0,0
13629,134,-8184,191,-2,1,0,0
13634,131,-8182,195,-2,1,0,0
13639,131,-8183,195,-2,1,0,0
13644,130,-8182,193,-2,1,-1,0
13649,137,-8182,192,-2,2,-1,0
13654,143,-8182,193,-2,2,-1,0
13659,148,-8183,189,-2,2,-1,0
13664,152,-8185,185,-2,2,-1,0
13668,155,-8186,179,-2,2,-1,0
13673,163,-8186,182,-2,2,-1,0
13678,172,-8183,189,-2,2,-1,0
13683,183,-8183,197,-2,2,-1,0
13688,195,-8183,203,-2,2,-1,0
13693,205,-8183,207,-2,1,-1,0
13698,216,-8183,209,-2,1,-1,0
13703,225,-8183,206,-2,1,-1,0
13708,230,-8181,201,-2,1,-1,0
13713,232,-8182,197,-2,1,-1,0
13718,236,-8182,190,-2,1,-1,0
13723,241,-8182,183,-2,1,-1,0
13728,251,-8183,174,-2,1,-1,0
13733,260,-8185,165,-2,1,-1,0
13738,264,-8184,152,-2,1,-1,0
13743,268,-8186,135,-2,2,-1,0
13748,269,-8188,117,-2,2,-1,0
13753,270,-8188,105,-2,2,-1,0
13758,263,-8189,94,-2,3,-1,0
13763,253,-8187,89,-2,3,-1,0
13768,240,-8185,86,-2,4,-1,0
13773,230,-8185,87,-2,6,-1,0
13778,224,-8185,91,-2,6,-1,0
13783,224,-8184,98,-2,7,-1,0
13788,230,-8183,105,-2,7,-1,0
13793,238,-8180,114,-2,7,-1,0
13798,254,-8183,130,-2,7,-1,0
13803,269,-8183,142,-2,6,-1,0
13808,274,-8184,153,-2,6,-1,0
13813,277,-8185,160,-2,6,-1,0
13818,274,-8185,166,-2,6,-1,0
13823,263,-8185,174,-2,6,-1,0
13828,252,-8188,180,-2,6,-1,0
13833,244,-8191,192,-2,6,-1,0
13838,237,-8190,204,-2,6,-1,0
13843,238,-8190,210,-2,7,-1,0
13849,244,-8190,212,-2,7,-1,0
13853,249,-8188,214,-2,7,-1,0
13858,249,-8187,210,-2,7,-1,0
13864,247,-8185,205,-2,7,-1,0
13869,237,-8185,201,-2,7,-1,0
13873,224,-8185,198,-2,7,-1,0
13878,210,-8184,190,-2,7,-1,0
13884,197,-8187,191,-3,7,-1,0
13889,189,-8187,194,-3,7,-1,0
13894,184,-8185,205,-3,7,-1,0
13899,180,-8184,219,-3,7,-1,0
13904,179,-8183,227,-3,6,-1,0
13909,178,-8182,234,-3,6,-1,0
13914,176,-8181,240,-3,5,-1,0
13919,171,-8186,241,-3,5,-2,0
13924,162,-8185,236,-3,4,-2,0
13929,150,-8185,225,-3,4,-2,0
13933,143,-8184,217,-3,4,-2,0
13938,139,-8183,212,-3,5,-2,0
13943,135,-8182,201,-3,5,-2,0
13948,136,-8182,190,-3,6,-2,0
13953,139,-8179,180,-3,7,-2,0
13958,142,-8180,169,-3,8,-2,0
13963,142,-8182,161,-3,9,-2,0
13968,137,-8184,155,-3,9,-2,0
13973,132,-8185,155,-3,10,-2,0
13978,124,-8186,164,-3,10,-2,0
13984,117,-8185,177,-3,11,-2,0
13989,116,-8181,192,-3,11,-2,0
13993,116,-8178,205,-3,11,-2,0
13998,119,-8173,215,-3,11,-2,0
14003,121,-8173,222,-3,11,-2,0
14008,129,-8175,228,-3,11,-2,0
14013,135,-8176,228,-3,12,-2,0
14018,139,-8174,227,-3,12,-2,0
14023,146,-8172,229,-3,12,-2,0
14028,150,-8174,231,-3,12,-2,0
14033,159,-8176,245,-3,12,-2,0
14038,171,-8177,260,-3,12,-2,0
14043,185,-8178,271,-3,12,-2,0
14048,201,-8178,280,-3,12,-3,0
14053,220,-8179,291,-3,12,-3,0
14058,238,-8180,295,-3,12,-3,0
14063,250,-8183,307,-3,12,-3,0
14068,259,-8186,321,-3,11,-3,0
14073,269,-8187,331,-3,11,-3,0
14078,278,-8190,343,-4,11,-3,0
14083,285,-8189,358,-4,11,-3,0
14088,293,-8191,373,-4,11,-3,0
14093,303,-8189,385,-4,10,-3,0
14098,317,-8188,390,-4,10,-3,0
14103,334,-8186,391,-4,10,-3,0
14108,351,-8187,399,-4,10,-3,0
14113,365,-8186,406,-4,10,-3,0
14118,372,-8186,410,-4,9,-3,0
14124,375,-8186,419,-4,9,-3,0
14130,371,-8185,431,-4,8,-3,0
14135,367,-8186,449,-5,8,-3,0
14141,362,-8189,462,-5,7,-3,0
14146,355,-8191,470,-5,7,-3,0
14152,350,-8192,476,-5,6,-3,0
14158,355,-8191,479,-5,6,-3,0
14163,362,-8188,475,-5,6,-3,0
14169,371,-8185,470,-5,6,-2,0
14173,381,-8187,459,-5,5,-3,0
14178,391,-8186,450,-5,5,-3,0
14183,398,-8189,444,-5,5,-3,0
14189,400,-8189,438,-6,5,-3,0
14195,399,-8188,434,-6,4,-3,0
14200,398,-8186,427,-6,4,-3,0
14205,392,-8182,416,-6,3,-3,0
14211,386,-8185,397,-6,3,-3,0
14216,383,-8187,374,-6,3,-3,0
14222,380,-8189,348,-6,3,-3,0
14228,376,-8191,320,-6,4,-3,0
14233,371,-8191,291,-6,4,-3,0
14239,365,-8190,260,-6,4,-3,0
14244,359,-8188,238,-6,5,-3,0
14248,356,-8185,212,-6,6,-3,0
14253,360,-8182,192,-6,7,-3,0
14257,373,-8179,169,-6,8,-3,0
14262,391,-8176,147,-6,9,-2,0
14267,418,-8175,117,-6,10,-2,0
14272,448,-8177,83,-6,11,-2,0
14276,484,-8178,54,-6,11,-2,0
14281,518,-8180,33,-6,11,-2,0
14286,547,-8178,21,-6,10,-2,0
14290,569,-8176,19,-6,8,-2,0
14295,580,-8178,20,-6,7,-2,0
14299,585,-8177,23,-6,6,-2,0
14304,589,-8175,22,-6,6,-2,0
14309,587,-8177,18,-6,5,-2,0
14313,586,-8175,5,-6,5,-2,0
14317,581,-8176,-10,-6,4,-2,0
14323,573,-8176,-25,-6,4,-2,0
14328,557,-8176,-35,-6,4,-2,0
14332,540,-8176,-46,-6,4,-2,0
14338,525,-8175,-58,-6,4,-2,0
14343,512,-8175,-70,-6,3,-2,0
14348,502,-8175,-89,-6,3,-2,0
14352,501,-8175,-113,-6,2,-2,0
14358,500,-8173,-147,-5,1,-2,0
14362,503,-8173,-190,-5,1,-2,0
14367,504,-8172,-233,-5,2,-2,0
14372,499,-8175,-274,-5,2,-2,0
14377,491,-8176,-308,-5,3,-2,0
14382,479,-8176,-338,-5,4,-2,0
14387,459,-8177,-358,-5,5,-2,0
14392,435,-8180,-374,-5,6,-2,0
14397,411,-8181,-382,-5,7,-2,0
14401,389,-8183,-386,-5,7,-2,0
14407,366,-8181,-389,-4,8,-2,0
14412,350,-8181,-393,-4,8,-2,0
14417,337,-8180,-397,-4,8,-2,0
14421,329,-8179,-401,-4,8,-2,0
14426,323,-8182,-406,-4,8,-2,0
14431,317,-8182,-408,-4,8,-2,0
14436,308,-8185,-414,-4,9,-2,0
14441,302,-8187,-420,-4,10,-2,0
14446,298,-8186,-424,-4,12,-2,0
14451,296,-8184,-429,-4,13,-2,0
14456,297,-8182,-432,-4,15,-2,0
14461,304,-8180,-432,-4,16,-2,0
14466,316,-8180,-422,-4,17,-2,0
14471,330,-8183,-408,-3,18,-2,0
14476,349,-8182,-394,-3,18,-2,0
14481,370,-8178,-373,-3,19,-2,0
14486,391,-8175,-351,-3,18,-3,0
14491,402,-8176,-327,-3,18,-3,0
14496,406,-8181,-304,-3,17,-3,0
14501,403,-8183,-284,-3,17,-3,0
14505,395,-8183,-265,-3,17,-3,0
14510,388,-8183,-254,-3,17,-3,0
14515,392,-8184,-245,-3,18,-3,0
14519,407,-8182,-240,-3,18,-3,0
14524,428,-8182,-235,-3,18,-3,0
14529,451,-8181,-234,-3,19,-3,0
14533,477,-8181,-233,-3,19,-3,0
14538,504,-8181,-227,-3,19,-2,0
14543,533,-8182,-224,-3,19,-2,0
14548,564,-8182,-225,-3,19,-2,0
14553,598,-8182,-225,-3,19,-2,0
14558,627,-8184,-231,-3,19,-2,0
14563,653,-8186,-233,-3,18,-2,0
14567,675,-8184,-235,-3,17,-2,0
14572,691,-8182,-233,-3,16,-2,0
14577,700,-8181,-233,-2,15,-2,0
14583,709,-8180,-234,-2,15,-2,0
14587,715,-8179,-241,-2,15,-2,0
14592,718,-8178,-254,-2,15,-2,0
14597,721,-8176,-266,-2,16,-2,0
14602,723,-8177,-278,-2,16,-2,0
14607,727,-8179,-284,-2,16,-2,0
14612,730,-8183,-291,-2,16,-2,0
14617,733,-8184,-294,-2,16,-1,0
14622,738,-8186,-300,-2,16,-1,0
14628,745,-8184,-299,-2,16,-1,0
14633,754,-8183,-300,-2,16,-1,0
14637,759,-8183,-302,-2,16,-1,0
14642,765,-8181,-303,-2,15,-1,0
14647,772,-8181,-304,-2,15,-1,0
14652,784,-8182,-310,-1,14,-1,0
14657,796,-8180,-323,-1,14,-1,0
14663,812,-8178,-344,-1,13,-1,0
14667,825,-8176,-371,-1,12,-1,0
14672,827,-8174,-404,-1,12,-1,0
14677,815,-8172,-440,-1,11,-1,0
14682,789,-8173,-486,-1,12,0,0
14687,754,-8175,-530,0,13,0,0
14692,712,-8178,-570,0,16,0,0
14697,670,-8182,-596,0,19,0,0
14702,630,-8181,-611,0,23,0,0
14707,586,-8183,-607,0,27,0,0
14712,549,-8183,-586,0,31,0,0
14717,521,-8182,-548,0,33,0,0
14722,498,-8183,-490,0,33,0,0
14727,470,-8185,-425,0,31,0,0
14732,443,-8186,-356,0,28,0,0
14737,412,-8186,-292,0,24,0,0
14742,376,-8184,-251,1,21,-1,0
14747,339,-8185,-238,1,19,-1,0
14752,311,-8187,-243,1,20,-1,0
14757,288,-8185,-270,1,23,-1,0
14762,275,-8186,-299,1,25,-1,0
14767,267,-8188,-318,1,28,-1,0
14772,256,-8189,-325,1,30,-1,0
14777,251,-8189,-312,1,32,-1,0
14782,247,-8188,-292,1,33,-1,0
14787,248,-8189,-265,1,33,-1,0
14792,253,-8185,-242,1,32,-1,0
14797,267,-8184,-223,1,31,-1,0
14802,289,-8184,-214,1,29,-1,0
14807,328,-8186,-202,1,26,-1,0
14812,371,-8188,-179,1,23,-1,0
14817,407,-8186,-157,1,19,-1,0
14822,424,-8183,-128,1,17,-2,0
14827,422,-8180,-115,1,16,-2,0
14832,402,-8178,-115,2,18,-2,0
14837,375,-8179,-124,2,20,-2,0
14842,349,-8180,-146,2,20,-2,0
14847,316,-8180,-169,1,19,-2,0
14852,276,-8179,-182,1,18,-2,0
14857,236,-8177,-178,1,20,-2,0
14862,202,-8176,-156,2,23,-2,0
14867,187,-8176,-137,2,27,-2,0
14872,190,-8173,-134,2,29,-2,0
14877,197,-8175,-143,2,31,-2,0
14882,201,-8180,-160,2,33,-2,0
14887,212,-8184,-177,2,38,-2,0
14892,266,-8192,-143,1,43,-1,0
14897,357,-8192,-96,0,44,-1,0
14902,476,-8196,-29,0,40,0,0
14906,554,-8189,76,-1,31,0,0
14911,625,-8185,241,0,21,0,0
14916,707,-8196,425,0,17,0,0
14921,782,-8241,581,1,18,0,0
14926,858,-8287,634,2,21,-1,0
14931,934,-8284,574,2,22,-1,0
14936,975,-8258,328,1,18,-1,0
14941,952,-8241,28,0,10,-1,0
14946,894,-8225,-197,-1,3,-1,0
14951,806,-8199,-279,-2,3,-1,0
14956,730,-8169,-266,-2,9,-1,0
14961,666,-8141,-299,-2,16,-1,0
14966,618,-8129,-449,-1,20,-1,0
14971,574,-8155,-693,-2,20,-1,0
14976,546,-8211,-955,-2,20,-1,0
14981,476,-8232,-1001,-2,23,-1,0
14986,405,-8241,-960,-2,28,-1,0
14991,316,-8262,-867,-1,33,-1,0
14996,279,-8307,-912,-1,36,-2,0
15001,284,-8370,-1062,-1,38,-2,0
15006,331,-8431,-1236,-1,39,-2,0
15011,369,-8478,-1295,-2,40,-2,0
15016,387,-8505,-1211,-2,43,-2,0
15021,380,-8521,-1055,-2,46,-2,0
15026,392,-8537,-935,-2,47,-2,0
15031,444,-8545,-921,-2,47,-2,0
15036,539,-8550,-969,-3,45,-2,0
15041,645,-8542,-1020,-3,44,-2,0
15046,715,-8519,-992,-4,43,-2,0
15052,741,-8475,-898,-4,43,-2,0
15057,732,-8427,-800,-5,43,-2,0
15063,727,-8377,-768,-5,43,-1,0
15068,757,-8330,-799,-5,42,-1,0
15074,816,-8286,-866,-6,42,-1,0
15079,870,-8241,-897,-6,42,-1,0
15085,899,-8187,-871,-7,42,-1,0
15090,882,-8128,-816,-7,42,-1,0
15095,858,-8068,-777,-7,41,-1,0
15101,856,-8012,-788,-7,41,-1,0
15106,881,-7967,-833,-8,40,-1,0
15112,925,-7932,-873,-8,40,-1,0
15117,960,-7905,-882,-8,41,-1,0
15121,958,-7885,-853,-9,41,-1,0
15126,922,-7869,-795,-9,40,-1,0
15131,869,-7852,-765,-9,40,-1,0
15136,834,-7848,-771,-9,40,-1,0
15141,837,-7851,-789,-9,41,-1,0
15147,854,-7854,-803,-10,41,-1,0
15152,866,-7851,-784,-10,41,-1,0
15157,858,-7846,-729,-10,40,-1,0
15163,824,-7846,-680,-10,39,-2,0
15169,783,-7854,-662,-11,38,-2,0
15174,752,-7873,-679,-11,38,-2,0
15178,732,-7905,-695,-11,37,-2,0
15184,729,-7939,-694,-11,38,-2,0
15189,706,-8758,-656,-11,38,-2,0
15195,713,-8568,-870,-12,40,-3,0
15201,481,-8795,61,-9,49,-2,0
15206,423,-8596,-118,-11,43,-3,0
15212,256,-8637,540,-6,38,-2,0
15218,359,-8536,-3,-8,33,-3,0
15223,514,-8535,42,-6,36,-3,0
15229,675,-8501,-320,-8,33,-3,0
15234,791,-8461,-324,-8,33,-3,0
15240,766,-8404,-441,-9,32,-3,0
15244,726,-8363,-368,-10,31,-4,0
15249,659,-8330,-327,-10,32,-4,0
15253,545,-8308,-156,-10,32,-3,0
15258,518,-8297,-108,-9,31,-3,0
15262,547,-8306,-138,-9,30,-3,0
15267,630,-8330,-233,-10,28,-3,0
15272,713,-8351,-306,-10,27,-3,0
15277,708,-8365,-322,-11,26,-4,0
15281,652,-8373,-260,-11,25,-4,0
15286,554,-8381,-190,-11,25,-4,0
15291,498,-8387,-178,-10,26,-3,0
15295,498,-8390,-234,-11,27,-3,0
15299,559,-8389,-320,-11,27,-3,0
15304,622,-8381,-384,-11,27,-4,0
15309,647,-8363,-404,-11,26,-4,0
15313,619,-8342,-362,-11,25,-4,0
15317,562,-8316,-343,-11,25,-4,0
15323,519,-8303,-340,-10,25,-4,0
15328,525,-8302,-406,-11,25,-4,0
15332,570,-8313,-455,-11,25,-4,0
15337,612,-8320,-502,-11,26,-4,0
15341,638,-8326,-477,-11,25,-4,0
15346,611,-8328,-449,-11,25,-4,0
15351,575,-8329,-417,-10,24,-4,0
15356,546,-8326,-451,-10,25,-4,0
15361,562,-8322,-490,-10,25,-3,0
15366,605,-8313,-538,-10,26,-3,0
15370,650,-8303,-530,-11,27,-3,0
15375,684,-8282,-521,-11,27,-3,0
15379,686,-8258,-483,-10,27,-3,0
15384,678,-8229,-465,-10,26,-3,0
15389,689,-8200,-465,-10,26,-3,0
15393,712,-8174,-482,-10,26,-3,0
15399,750,-8159,-502,-10,26,-3,0
15403,776,-8153,-514,-11,26,-2,0
15408,775,-8151,-500,-11,25,-2,0
15413,763,-8147,-489,-10,24,-2,0
15417,744,-8140,-481,-10,24,-2,0
15422,741,-8137,-492,-10,23,-2,0
15427,757,-8137,-518,-10,23,-2,0
15432,772,-8142,-546,-10,23,-2,0
15436,779,-8145,-562,-10,22,-2,0
15441,775,-8141,-559,-10,22,-2,0
15447,766,-8123,-534,-10,21,-2,0
15453,752,-8108,-515,-10,19,-2,0
15458,741,-8097,-524,-10,19,-2,0
15464,726,-8088,-573,-10,21,-2,0
15470,721,-8080,-625,-10,22,-2,0
15476,707,-8069,-664,-10,21,-2,0
15482,692,-8056,-658,-10,22,-2,0
15487,692,-8047,-634,-10,22,-2,0
15493,702,-8045,-613,-10,22,-2,0
15499,708,-8044,-606,-10,22,-2,0
15505,722,-8044,-614,-10,21,-2,0
15511,727,-8043,-617,-10,21,-2,0
15516,718,-8036,-608,-11,20,-2,0
15522,708,-8030,-586,-11,20,-2,0
15528,691,-8028,-556,-11,20,-2,0
15534,682,-8035,-527,-11,20,-2,0
15539,684,-8047,-503,-11,19,-2,0
15545,683,-8057,-485,-11,18,-2,0
15551,680,-8060,-476,-11,16,-2,0
15556,673,-8060,-468,-11,15,-2,0
15562,654,-8064,-469,-11,14,-2,0
15568,634,-8068,-475,-11,14,-2,0
15574,615,-8068,-486,-11,14,-2,0
15579,598,-8065,-500,-11,14,-2,0
15585,576,-8059,-512,-10,15,-2,0
15591,560,-8052,-522,-10,15,-2,0
15596,547,-8045,-531,-10,16,-2,0
15602,544,-8038,-532,-10,16,-2,0
15607,547,-8031,-534,-10,16,-2,0
15613,556,-8026,-533,-10,16,-2,0
15619,566,-8018,-530,-10,16,-2,0
15625,571,-8009,-527,-10,16,-2,0
15631,580,-8002,-524,-10,16,-2,0
15637,594,-7997,-524,-9,15,-2,0
15642,609,-8000,-524,-9,15,-2,0
15648,623,-7999,-529,-9,15,-2,0
15654,633,-7999,-537,-9,14,-2,0
15660,628,-7999,-542,-9,14,-2,0
15666,612,-8003,-549,-9,14,-2,0
15672,591,-8009,-552,-9,14,-2,0
15677,574,-8014,-559,-8,14,-2,0
15683,554,-8020,-555,-8,14,-2,0
15689,537,-8027,-549,-8,15,-2,0
15694,523,-8035,-540,-8,15,-2,0
15700,500,-8047,-526,-8,15,-2,0
15706,475,-8060,-509,-8,15,-2,0
15712,454,-8073,-495,-7,16,-2,0
15718,444,-8084,-478,-7,16,-1,0
15724,447,-8095,-460,-7,17,-1,0
15730,464,-8106,-440,-7,16,-1,0
15734,477,-8116,-417,-7,16,-1,0
15740,483,-8119,-390,-7,14,-1,0
15744,477,-8119,-369,-7,13,-1,0
15749,460,-8118,-359,-6,12,-1,0
15754,445,-8111,-357,-6,12,-1,0
15759,427,-8102,-359,-6,12,-1,0
15764,417,-8086,-361,-6,12,-1,0
15768,414,-8064,-364,-6,13,-1,0
15773,413,-8042,-365,-5,13,-1,0
15778,416,-8020,-370,-5,14,-1,0
15783,417,-7997,-371,-5,14,0,0
15787,422,-7975,-367,-5,14,0,0
15792,438,-7956,-354,-5,14,0,0
15797,460,-7937,-342,-5,13,0,0
15801,484,-7919,-338,-4,13,0,0
15806,506,-7906,-343,-4,12,0,0
15810,514,-7899,-354,-4,12,0,0
15815,508,-7899,-366,-4,12,0,0
15819,491,-7909,-374,-4,12,1,0
15824,466,-7920,-377,-4,12,1,0
15829,444,-7933,-377,-4,13,1,0
15833,434,-7947,-378,-4,14,1,0
15838,431,-7956,-381,-4,15,1,0
15843,435,-7963,-389,-4,14,1,0
15848,435,-7969,-403,-3,14,1,0
15853,430,-7966,-420,-3,14,1,0
15857,423,-7963,-430,-3,14,1,0
15862,410,-7955,-425,-3,14,1,0
15866,406,-7941,-425,-3,14,1,0
15871,420,-8437,-438,-3,14,1,0
15875,535,-8657,-1034,-4,15,1,0
15881,412,-9263,-207,-1,24,2,0
15885,401,-8972,-442,-3,16,1,0
15890,221,-8730,170,1,8,2,0
15894,207,-8628,-178,1,0,2,0
15898,294,-8615,-200,2,8,2,0
15902,412,-8536,-456,2,16,2,0
15907,642,-8486,-689,1,21,1,0
15911,672,-8487,-772,1,20,2,0
15915,665,-8465,-759,0,15,1,0
15919,623,-8393,-600,1,16,1,0
15923,405,-8370,-264,1,17,2,0
15928,385,-8237,-231,2,15,2,0
15932,305,-8236,-66,3,18,3,0
15937,419,-8327,-263,2,18,2,0
15942,531,-8278,-325,2,20,2,0
15948,611,-8250,-406,2,19,2,0
15953,597,-8221,-303,2,19,2,0
15958,513,-8224,-187,2,18,2,0
15963,436,-8207,-71,2,18,2,0
15967,389,-8219,-65,3,18,3,0
15971,388,-8235,-79,3,17,3,0
15975,439,-8266,-135,3,16,3,0
15981,426,-8296,-118,3,16,3,0
15986,392,-8308,-55,3,15,3,0
15990,351,-8313,-8,4,15,3,0
15994,254,-8297,101,4,16,4,0
15999,207,-8289,128,5,18,4,0
16004,152,-8272,163,5,21,4,0
16009,111,-8259,178,6,24,5,0
16013,130,-8250,109,6,27,5,0
16017,169,-8240,31,5,29,5,0
16021,252,-8232,-80,5,30,4,0
16025,355,-8222,-184,4,30,4,0
16029,448,-8209,-241,4,29,4,0
16032,517,-8196,-279,4,28,4,0
16036,551,-8191,-267,4,29,4,0
16040,581,-8185,-248,4,31,4,0
16043,582,-8180,-249,4,32,4,0
16048,568,-8178,-256,5,31,4,0
16054,541,-8177,-296,5,29,4,0
16057,481,-8161,-296,5,28,4,0
16061,377,-8151,-337,5,28,5,0
16065,307,-8144,-403,4,32,4,0
16069,308,-8148,-379,4,38,3,0
16073,285,-8155,-458,4,43,4,0
16077,273,-8158,-515,4,48,4,0
16080,305,-8157,-559,4,51,4,0
16085,367,-8154,-623,4,56,5,0
16090,484,-8152,-643,4,64,6,0
16095,613,-8152,-630,4,68,6,0
16100,725,-8151,-612,4,67,6,0
16105,832,-8152,-580,4,62,6,0
16110,913,-8152,-564,4,55,5,0
16115,987,-8154,-547,4,45,5,0
16120,1000,-8157,-524,4,33,4,0
16125,965,-8159,-463,4,23,4,0
16130,961,-8166,-353,4,14,4,0
16135,1067,-8165,-320,4,-1,5,0
16140,1137,-8166,-290,5,-14,6,0
16145,1195,-8148,-299,5,-20,6,0
16150,1283,-8143,-399,6,-23,6,0
16154,1308,-8143,-435,5,-20,6,0
16159,1258,-8145,-499,5,-14,5,0
16164,1227,-8145,-511,4,-9,5,0
16170,1206,-8146,-488,4,-5,5,0
16174,1124,-8153,-459,4,-1,5,0
16179,986,-8150,-323,4,2,6,0
16185,842,-8144,-174,4,5,6,0
16189,759,-8143,-77,4,13,6,0
16195,717,-8145,-33,4,19,6,0
16199,756,-8144,33,4,18,6,0
16205,790,-8148,46,4,7,6,0
16210,767,-8150,-3,4,-8,5,0
16214,726,-8150,-25,4,-23,5,0
16219,666,-8157,-81,4,-35,4,0
16224,589,-8173,-42,4,-48,4,0
16229,489,-8182,45,3,-59,3,0
16234,427,-8188,98,3,-67,2,0
16239,330,-8194,224,3,-69,2,0
16244,145,-8193,353,3,-67,3,0
16249,-20,-8197,448,4,-67,3,0
16254,-77,-8196,475,4,-70,2,0
16259,-107,-8195,445,4,-75,2,0
16264,-104,-8195,354,4,-83,2,0
16270,-51,-8195,244,4,-91,2,0
16274,42,-8193,147,4,-97,1,0
16279,141,-8193,79,3,-101,1,0
16284,231,-8191,71,3,-104,1,0
16290,314,-8187,91,3,-107,1,0
16294,383,-8187,140,3,-111,0,0
16300,443,-8187,202,4,-117,0,0
16305,492,-8186,256,4,-122,0,0
16310,521,-8182,296,4,-126,0,0
16314,564,-8180,310,4,-129,0,0
16319,613,-8182,294,4,-132,0,0
16324,655,-8181,265,4,-135,0,0
16329,689,-8183,234,4,-138,0,0
16334,713,-8187,214,4,-140,0,0
16339,746,-8184,197,3,-143,0,0
16344,783,-8184,189,4,-146,0,0
16349,804,-8186,192,4,-150,0,0
16354,811,-8186,194,4,-156,0,0
16359,802,-8183,185,4,-160,0,0
16364,774,-8182,180,4,-161,0,0
16369,746,-8184,178,4,-161,0,0
16374,721,-8187,174,4,-161,0,0
16379,713,-8188,180,4,-161,0,0
16384,747,-8192,242,4,-165,0,0
16389,728,-8193,334,3,-174,-1,0
16394,614,-8188,395,3,-182,-1,0
16399,544,-8183,417,4,-185,-2,0
16404,508,-8184,429,4,-188,-1,0
16409,448,-8189,409,5,-194,-1,0
16414,369,-8192,337,4,-198,-1,0
16419,290,-8196,270,4,-195,-2,0
16425,215,-8200,223,3,-188,-2,0
16429,137,-8204,239,3,-181,-2,0
16434,68,-8208,362,2,-181,-2,0
16439,8,-8208,504,2,-185,-3,0
16444,-53,-8202,659,2,-188,-3,0
16449,-86,-8202,795,2,-189,-3,0
16454,-97,-8204,848,3,-188,-3,0
16460,-106,-8208,863,3,-182,-3,0
16464,-112,-8210,798,2,-173,-3,0
16469,-100,-8213,692,1,-158,-3,0
16474,-99,-8216,593,1,-140,-3,0
16480,-102,-8216,508,0,-121,-3,0
16485,-104,-8215,455,-1,-104,-3,0
16490,-116,-8216,427,-1,-88,-3,0
16495,-134,-8216,417,-1,-77,-3,0
16500,-151,-8216,405,-1,-72,-3,0
16505,-165,-8216,385,-1,-75,-3,0
16510,-157,-8217,365,-1,-85,-3,0
16515,-126,-8215,329,-1,-101,-3,0
16520,-82,-8210,293,0,-118,-3,0
16525,-20,-8207,248,0,-135,-4,0
16530,59,-8204,185,0,-149,-4,0
16535,143,-8204,148,0,-160,-5,0
16539,229,-8204,112,0,-169,-6,0
16544,313,-8202,72,0,-175,-6,0
16549,367,-8200,47,0,-172,-5,0
16554,400,-8197,21,0,-162,-5,0
16559,443,-8195,8,-1,-145,-4,0
16564,518,-8194,0,-1,-126,-4,0
16569,593,-8191,-11,-1,-108,-4,0
16574,672,-8188,3,-2,-97,-4,0
16579,779,-8184,-2,-2,-95,-4,0
16584,907,-8179,-15,-1,-104,-4,0
16589,1027,-8176,-16,-1,-127,-4,0
16594,1076,-8176,-51,0,-156,-4,0
16599,1038,-8180,-46,0,-177,-4,0
16604,933,-8185,-29,0,-185,-4,0
16609,815,-8189,9,-1,-181,-4,0
16614,708,-8193,79,-1,-166,-4,0
16619,630,-8196,146,-1,-150,-4,0
16624,602,-8194,220,-2,-137,-3,0
16629,618,-8197,279,-2,-131,-3,0
16635,656,-8200,326,-2,-134,-3,0
16639,702,-8200,377,-2,-142,-3,0
16644,749,-8201,429,-2,-153,-3,0
16649,782,-8198,472,-2,-162,-3,0
16654,824,-8194,498,-2,-167,-3,0
16659,898,-8189,510,-2,-171,-3,0
16664,1050,-8190,517,-2,-176,-3,0
16669,1239,-8189,567,-3,-191,-3,0
16674,1389,-8181,565,-3,-206,-3,0
16679,1513,-8174,588,-3,-214,-3,0
16684,1604,-8172,588,-3,-216,-2,0
16689,1642,-8169,529,-2,-213,-2,0
16694,1628,-8168,428,-2,-205,-2,0
16699,1555,-8169,243,-2,-192,-1,0
16704,1535,-8174,62,-2,-177,0,0
16709,1553,-8176,-55,-3,-174,0,0
16714,1520,-8172,-150,-4,-177,1,0
16719,1462,-8164,-196,-4,-178,1,0
16724,1341,-8161,-141,-3,-181,0,0
16729,1158,-8158,-113,-2,-192,-1,0
16734,1029,-8165,-70,-2,-211,-2,0
16739,877,-8174,17,-1,-230,-1,0
16744,732,-8181,77,-1,-246,0,0
16749,671,-8186,189,-2,-257,0,0
16754,625,-8189,303,-2,-261,0,0
16759,543,-8174,332,-2,-259,-1,0
16764,341,-8153,81,0,-242,-2,0
16769,238,-8148,-155,3,-220,-2,0
16773,136,-8147,-391,5,-198,-2,0
16778,-18,-8157,-629,5,-183,0,0
16784,-90,-8165,-782,3,-177,1,0
16789,-34,-8178,-835,2,-171,0,0
16794,95,-8190,-911,0,-163,0,0
16799,101,-8194,-965,-1,-155,1,0
16804,76,-8190,-911,-1,-150,1,0
16808,125,-8187,-886,-1,-146,0,0
16813,160,-8184,-812,0,-143,0,0
16818,175,-8185,-745,1,-147,0,0
16824,224,-8188,-722,1,-156,0,0
16828,270,-8192,-678,1,-164,0,0
16833,292,-8189,-641,1,-169,0,0
16838,316,-8186,-593,1,-171,0,0
16843,342,-8184,-544,1,-166,0,0
16848,332,-8181,-516,1,-153,0,0
16854,232,-8177,-504,1,-130,0,0
16859,73,-8183,-485,0,-98,0,0
16864,-52,-8190,-465,-1,-61,1,0
16869,-143,-8193,-473,-2,-31,1,0
16874,-229,-8195,-459,-2,-17,1,0
16879,-277,-8191,-476,-1,-18,1,0
16884,-330,-8195,-517,-1,-29,1,0
16889,-428,-8199,-582,0,-41,0,0
16894,-571,-8202,-691,0,-48,0,0
16900,-743,-8201,-797,0,-47,-1,0
16905,-917,-8205,-888,0,-37,-1,0
16910,-1089,-8207,-947,-1,-21,-1,0
16915,-1229,-8211,-958,-1,-4,-2,0
16920,-1302,-8214,-923,-1,10,-2,0
16925,-1316,-8214,-847,-1,20,-2,0
16930,-1239,-8214,-748,-1,26,-2,0
16936,-1004,-8224,-512,-2,24,-2,0
16942,-647,-8229,-219,-3,9,-2,0
16948,-282,-8231,89,-5,-19,-2,0
16954,-22,-8222,260,-5,-44,-3,0
16960,174,-8200,285,-4,-54,-3,0
16966,376,-8183,279,-2,-51,-2,0
16972,640,-8178,249,0,-50,-2,0
16977,1000,-8177,157,0,-60,-2,0
16983,1387,-8168,-19,0,-78,-2,0
16988,1600,-8162,-151,1,-91,0,0
16994,1686,-8153,-263,1,-102,1,0
16999,1791,-8150,-398,2,-115,1,0
17005,1831,-8146,-465,3,-125,0,0
17011,1836,-8149,-505,4,-138,0,0
17016,1834,-8152,-629,4,-152,-1,0
17022,1802,-8151,-809,3,-168,-2,0
17028,1752,-8152,-977,2,-183,-3,0
17034,1706,-8152,-1046,2,-197,-3,0
17040,1683,-8151,-1048,2,-213,-2,0
17046,1685,-8152,-962,3,-235,-2,0
17052,1706,-8151,-814,4,-263,-2,0
17057,1750,-8150,-657,5,-297,-3,0
17063,1786,-8149,-507,5,-330,-4,0
17069,1797,-8152,-338,6,-361,-4,0
17075,1771,-8155,-188,6,-388,-5,0
17081,1715,-8160,-36,7,-412,-5,0
17086,1628,-8162,135,7,-428,-5,0
17090,1516,-8169,285,7,-437,-6,0
17095,1377,-8173,441,7,-436,-6,0
17099,1159,-8183,572,6,-422,-5,0
17103,776,-8209,849,4,-384,-5,0
17107,169,-8234,1060,1,-325,-5,0
17111,-161,-8241,977,-2,-259,-7,0
17115,-358,-8226,894,-3,-182,-6,0
17119,-543,-8213,749,-3,-113,-5,0
17123,-543,-8202,638,-2,-62,-4,0
17128,-468,-8200,566,-2,-31,-2,0
17132,-420,-8204,491,-1,-25,0,0
17136,-402,-8206,436,-1,-41,0,0
17140,-262,-8207,320,-1,-68,0,0
17144,-104,-8210,237,0,-96,-1,0
17148,39,-8210,144,0,-125,-1,0
17152,212,-8206,70,0,-150,-2,0
17156,368,-8203,36,0,-168,-3,0
17160,442,-8198,28,0,-181,-3,0
17164,493,-8199,52,1,-190,-4,0
17168,505,-8198,75,1,-194,-4,0
17172,479,-8198,108,1,-198,-4,0
17176,460,-8199,121,1,-201,-4,0
17180,457,-8199,114,1,-204,-3,0
17184,466,-8197,91,1,-207,-3,0
17188,510,-8194,38,1,-211,-3,0
17193,568,-8194,-9,1,-216,-4,0
17198,627,-8194,-53,1,-224,-4,0
17203,684,-8195,-73,1,-236,-4,0
17208,715,-8193,-50,1,-251,-5,0
17213,718,-8195,9,1,-270,-5,0
17218,720,-8194,98,2,-288,-5,0
17223,699,-8190,172,2,-304,-5,0
17228,686,-8189,234,3,-318,-5,0
17233,670,-8189,235,3,-326,-5,0
17238,657,-8188,198,3,-331,-6,0
17243,628,-8190,137,3,-331,-6,0
17248,572,-8190,60,3,-328,-6,0
17253,477,-8195,-4,3,-322,-6,0
17258,340,-8197,-55,2,-309,-6,0
17263,176,-8198,-103,2,-293,-6,0
17268,-11,-8202,-134,2,-275,-6,0
17273,-199,-8202,-161,2,-257,-5,0
17278,-355,-8204,-183,2,-239,-5,0
17283,-478,-8206,-201,2,-223,-5,0
17288,-561,-8209,-201,1,-210,-5,0
17293,-608,-8213,-199,1,-198,-5,0
17298,-626,-8214,-180,1,-183,-5,0
17303,-624,-8213,-181,1,-166,-4,0
17308,-610,-8212,-181,1,-151,-5,0
17313,-585,-8213,-197,0,-135,-5,0
17318,-562,-8213,-230,0,-123,-5,0
17323,-535,-8213,-257,0,-114,-5,0
17328,-512,-8212,-290,-1,-106,-4,0
17333,-478,-8213,-310,-1,-99,-4,0
17338,-425,-8206,-332,-1,-93,-4,0
17343,-349,-8202,-357,-1,-86,-4,0
17348,-237,-8202,-391,0,-81,-4,0
17353,-104,-8196,-429,-1,-77,-4,0
17358,47,-8194,-459,-1,-75,-4,0
17363,204,-8191,-467,-1,-75,-3,0
17367,339,-8189,-463,-1,-76,-3,0
17373,453,-8187,-439,-1,-76,-3,0
17378,536,-8186,-414,-1,-77,-3,0
17383,592,-8187,-383,-1,-77,-3,0
17388,636,-8188,-355,0,-78,-3,0
17392,675,-8189,-322,-1,-80,-3,0
17398,722,-8191,-291,-1,-83,-3,0
17402,753,-8189,-261,-1,-88,-3,0
17407,767,-8189,-222,-1,-94,-3,0
17412,735,-8189,-193,-1,-100,-3,0
17417,673,-8185,-163,0,-105,-4,0
17422,594,-8184,-153,0,-111,-4,0
17427,477,-8187,-173,0,-118,-4,0
17432,352,-8187,-211,0,-125,-4,0
17437,216,-8191,-283,0,-128,-4,0
17442,69,-8193,-362,0,-125,-4,0
17447,-62,-8195,-461,0,-117,-4,0
17452,-167,-8192,-562,0,-105,-4,0
17457,-240,-8194,-658,0,-91,-4,0
17462,-285,-8197,-732,0,-78,-5,0
17467,-303,-8197,-783,0,-68,-5,0
17472,-296,-8194,-813,0,-60,-4,0
17478,-268,-8194,-815,0,-56,-5,0
17483,-215,-8192,-803,0,-55,-5,0
17489,-143,-8193,-785,0,-57,-5,0
17494,-58,-8189,-766,1,-62,-5,0
17500,38,-8186,-760,1,-70,-5,0
17506,132,-8184,-765,2,-79,-6,0
17512,219,-8179,-778,2,-90,-6,0
17516,302,-8178,-791,2,-99,-6,0
17522,370,-8177,-790,2,-107,-6,0
17527,419,-8175,-776,2,-112,-6,0
17533,450,-8175,-755,2,-114,-7,0
17538,446,-8177,-712,2,-114,-7,0
17543,412,-8179,-645,2,-113,-7,0
17549,346,-8180,-560,2,-111,-7,0
17554,253,-8179,-469,2,-107,-7,0
17559,158,-8180,-388,2,-104,-7,0
17563,73,-8186,-327,2,-101,-7,0
17568,4,-8188,-312,2,-99,-7,0
17573,-45,-8192,-332,2,-97,-7,0
17578,-77,-8193,-378,2,-94,-8,0
17583,-94,-8192,-439,2,-92,-8,0
17588,-107,-8192,-487,2,-90,-8,0
17593,-123,-8191,-507,2,-89,-8,0
17599,-146,-8191,-493,1,-87,-9,0
17603,-159,-8190,-455,1,-84,-9,0
17609,-156,-8188,-411,1,-79,-9,0
17614,-137,-8186,-366,2,-75,-9,0
17619,-98,-8185,-333,2,-72,-9,0
17625,-45,-8184,-312,1,-70,-9,0
17630,1,-8183,-293,1,-69,-9,0
17635,37,-8182,-274,1,-66,-9,0
17640,50,-8180,-239,1,-61,-9,0
17645,59,-8183,-196,0,-54,-9,0
17650,38,-8184,-140,0,-44,-9,0
17654,2,-8181,-88,0,-32,-9,0
17659,-21,-8179,-41,0,-19,-9,0
17664,-14,-8180,-10,-1,-7,-9,0
17669,52,-8182,9,-1,2,-8,0
17674,152,-8181,10,-1,7,-8,0
17678,271,-8175,14,-1,9,-8,0
17683,429,-8171,3,-2,10,-8,0
17687,601,-8163,-12,-2,11,-8,0
17692,769,-8158,-26,-2,10,-8,0
17696,937,-8153,-50,-2,6,-8,0
17701,1115,-8152,-73,-1,1,-8,0
17707,1272,-8151,-106,-1,-5,-7,0
17712,1397,-8148,-135,-1,-10,-7,0
17716,1502,-8148,-163,-1,-14,-7,0
17721,1607,-8146,-191,-1,-17,-7,0
17727,1689,-8146,-210,-1,-20,-6,0
17732,1739,-8145,-220,-1,-24,-6,0
17737,1775,-8143,-213,-1,-28,-6,0
17741,1794,-8145,-190,-1,-31,-6,0
17746,1782,-8144,-146,-1,-33,-6,0
17752,1746,-8146,-97,-1,-35,-5,0
17756,1693,-8148,-45,-1,-36,-5,0
17761,1625,-8151,9,-1,-36,-5,0
17766,1550,-8156,59,-1,-37,-5,0
17771,1474,-8162,104,-1,-37,-5,0
17776,1399,-8164,138,-2,-37,-5,0
17781,1336,-8166,162,-2,-36,-4,0
17785,1299,-8169,168,-2,-34,-4,0
17790,1277,-8170,158,-2,-31,-4,0
17795,1287,-8170,133,-2,-28,-4,0
17800,1315,-8170,86,-2,-26,-4,0
17804,1354,-8168,33,-2,-24,-3,0
17810,1402,-8166,-20,-2,-23,-3,0
17814,1457,-8163,-71,-2,-23,-3,0
17819,1508,-8160,-123,-3,-22,-3,0
17825,1548,-8159,-157,-3,-21,-3,0
17830,1584,-8157,-183,-3,-20,-2,0
17835,1620,-8154,-206,-3,-19,-2,0
17840,1644,-8151,-210,-3,-18,-2,0
17845,1653,-8147,-210,-3,-17,-1,0
17850,1654,-8147,-208,-3,-17,-1,0
17855,1638,-8146,-199,-3,-16,-1,0
17860,1603,-8147,-191,-3,-17,-1,0
17866,1549,-8150,-185,-3,-17,-1,0
17871,1487,-8154,-183,-3,-18,-1,0
17876,1425,-8154,-184,-3,-18,-1,0
17881,1359,-8158,-192,-3,-18,0,0
17886,1300,-8162,-208,-3,-17,0,0
17891,1244,-8161,-223,-3,-16,0,0
17895,1186,-8162,-236,-3,-13,0,0
17900,1139,-8161,-247,-3,-10,0,0
17904,1100,-8162,-257,-3,-7,0,0
17908,1066,-8164,-265,-3,-5,0,0
17912,1040,-8164,-269,-3,-3,0,0
17917,1021,-8162,-264,-3,-2,0,0
17922,1011,-8162,-265,-3,-2,0,0
17928,1013,-8165,-276,-3,-3,0,0
17932,1020,-8161,-288,-3,-4,0,0
17937,1038,-8160,-307,-3,-4,0,0
17942,1061,-8160,-328,-3,-5,0,0
17947,1077,-8161,-340,-3,-5,0,0
17952,1083,-8164,-351,-3,-4,0,0
17957,1085,-8165,-356,-3,-3,0,0
17962,1073,-8166,-354,-3,-3,0,0
17967,1052,-8166,-347,-3,-2,0,0
17973,1029,-8167,-347,-3,-2,1,0
17977,994,-8169,-342,-3,-1,1,0
17982,957,-8171,-342,-3,-1,1,0
17988,927,-8171,-344,-3,-1,1,0
17993,893,-8170,-348,-3,-1,1,0
17998,857,-8171,-362,-2,-1,1,0
18002,826,-8173,-382,-2,-1,0,0
18007,798,-8175,-405,-3,-2,0,0
18012,773,-8175,-422,-3,-2,0,0
18017,756,-8173,-434,-2,-1,0,0
18022,747,-8176,-438,-2,-1,0,0
18027,738,-8177,-431,-2,-1,0,0
18032,732,-8177,-414,-2,-2,0,0
18036,732,-8177,-401,-2,-2,0,0
18042,737,-8176,-386,-2,-3,0,0
18047,747,-8177,-380,-2,-3,0,0
18052,763,-8174,-378,-2,-2,0,0
18057,780,-8171,-382,-2,-2,0,0
18062,806,-8173,-382,-2,-1,0,0
18067,832,-8173,-374,-2,0,0,0
18072,857,-8172,-357,-2,0,0,0
18077,889,-8173,-344,-2,-1,0,0
18082,925,-8173,-333,-2,-1,0,0
18087,958,-8173,-330,-2,-1,0,0
18092,991,-8172,-325,-2,-2,0,0
18097,1009,-8171,-328,-2,-2,0,0
18103,1016,-8170,-327,-2,-2,0,0
18107,1012,-8169,-324,-2,-1,0,0
18112,1000,-8167,-323,-2,-1,0,0
18117,975,-8169,-313,-2,0,0,0
18121,950,-8170,-304,-2,0,1,0
18126,930,-8171,-293,-2,1,1,0
18131,916,-8173,-278,-2,1,1,0
18136,911,-8175,-258,-2,2,1,0
18142,909,-8174,-242,-2,3,1,0
18148,913,-8175,-226,-3,4,1,0
18153,923,-8173,-207,-3,5,1,0
18158,943,-8174,-196,-3,5,1,0
18164,968,-8175,-189,-3,6,1,0
18169,992,-8177,-193,-3,7,1,0
18175,1014,-8178,-200,-3,8,1,0
18180,1033,-8179,-204,-3,9,1,0
18186,1037,-8178,-202,-3,11,1,0
18190,1039,-8180,-200,-3,12,1,0
18195,1026,-8183,-181,-3,14,1,0
18200,1005,-8184,-148,-3,15,2,0
18206,984,-8186,-125,-3,16,2,0
18211,956,-8186,-94,-3,17,2,0
18215,931,-8184,-86,-3,19,2,0
18219,910,-8183,-93,-3,20,2,0
18223,891,-8183,-114,-4,22,2,0
18227,880,-8182,-155,-3,22,2,0
18231,872,-8184,-195,-4,21,2,0
18236,865,-8185,-236,-4,19,2,0
18241,854,-8185,-263,-4,17,2,0
18246,845,-8184,-274,-4,16,2,0
18251,839,-8181,-283,-4,14,2,0
18256,830,-8180,-280,-4,13,2,0
18261,821,-8179,-269,-3,11,1,0
18266,809,-8179,-264,-3,8,1,0
18271,799,-8180,-264,-3,6,1,0
18276,790,-8179,-270,-3,4,1,0
18281,776,-8179,-285,-3,3,1,0
18286,756,-8179,-308,-3,4,1,0
18291,735,-8178,-328,-3,5,1,0
18296,710,-8178,-342,-3,7,1,0
18301,681,-8180,-340,-3,9,1,0
18306,650,-8179,-325,-4,12,1,0
18311,617,-8179,-294,-4,14,1,0
18316,583,-8180,-252,-4,18,1,0
18321,561,-8184,-210,-4,21,1,0
18326,555,-8185,-176,-4,23,1,0
18331,559,-8188,-156,-4,23,1,0
18336,573,-8189,-151,-4,22,1,0
18341,590,-8191,-155,-4,20,1,0
18346,607,-8192,-168,-4,18,1,0
18351,621,-8191,-181,-4,17,1,0
18356,630,-8190,-191,-4,15,1,0
18361,636,-8190,-196,-4,13,0,0
18366,641,-8184,-204,-4,11,0,0
18371,644,-8181,-211,-4,9,0,0
18376,653,-8178,-221,-4,6,0,0
18381,663,-8180,-228,-4,4,0,0
18386,667,-8181,-234,-4,3,0,0
18391,676,-8178,-231,-4,2,0,0
18396,687,-8177,-227,-4,1,0,0
18401,697,-8182,-219,-4,0,0,0
18406,713,-8182,-210,-4,-2,0,0
18411,733,-8181,-190,-4,-2,0,0
18416,748,-8181,-194,-4,0,0,0
18421,787,-8179,-203,-4,2,0,0
18426,821,-8177,-216,-4,5,0,0
18431,837,-8176,-250,-4,7,0,0
18436,851,-8178,-263,-4,8,0,0
18441,853,-8179,-274,-4,8,0,0
18446,852,-8179,-260,-4,8,1,0
18451,862,-8180,-240,-4,9,1,0
18456,879,-8184,-216,-4,11,1,0
18461,902,-8186,-191,-4,13,1,0
18466,924,-8187,-184,-4,15,1,0
18471,945,-8187,-180,-5,17,1,0
18476,948,-8188,-189,-5,19,1,0
18481,946,-8190,-199,-5,20,1,0
18486,939,-8190,-196,-5,21,1,0
18491,929,-8188,-182,-5,22,1,0
18496,930,-8186,-147,-5,22,1,0
18501,937,-8185,-92,-5,21,1,0
18506,936,-8185,-25,-6,18,1,0
18511,929,-8183,41,-6,14,1,0
18516,905,-8183,104,-6,9,1,0
18521,858,-8183,168,-6,4,1,0
18526,798,-8184,215,-6,1,1,0
18531,741,-8187,227,-6,0,1,0
18536,677,-8189,210,-6,0,1,0
18541,626,-8189,162,-6,1,1,0
18546,583,-8191,89,-6,3,1,0
18551,546,-8193,16,-6,5,1,0
18556,513,-8192,-51,-7,7,1,0
18561,481,-8189,-93,-7,10,0,0
18566,450,-8185,-118,-7,13,0,0
18571,427,-8184,-133,-7,16,0,0
18576,409,-8185,-144,-7,18,0,0
18581,403,-8185,-161,-7,19,0,0
18586,404,-8182,-185,-7,20,0,0
18591,418,-8179,-218,-7,19,0,0
18596,442,-8178,-255,-7,19,0,0
18601,466,-8175,-282,-7,19,0,0
18606,484,-8171,-303,-7,19,0,0
18611,496,-8171,-324,-7,21,0,0
18616,505,-8171,-350,-7,23,0,0
18621,508,-8172,-369,-7,24,0,0
18626,507,-8173,-401,-7,25,0,0
18631,504,-8172,-426,-7,26,0,0
18636,503,-8171,-461,-7,27,0,0
18641,510,-8172,-491,-7,29,0,0
18646,530,-8171,-513,-7,32,0,0
18651,555,-8171,-539,-7,36,0,0
18656,585,-8168,-538,-7,40,0,0
18661,617,-8168,-528,-7,45,0,0
18666,647,-8167,-511,-7,49,0,0
18670,672,-8168,-473,-8,52,0,0
18675,687,-8170,-435,-8,53,0,0
18680,693,-8173,-380,-8,52,0,0
18685,682,-8175,-326,-8,50,0,0
18691,679,-8175,-284,-8,49,0,0
18696,688,-8175,-245,-8,47,0,0
18701,704,-8176,-223,-8,45,0,0
18706,733,-8175,-203,-8,42,0,0
18711,772,-8174,-191,-8,39,-1,0
18716,808,-8174,-174,-8,35,-1,0
18721,836,-8173,-154,-8,31,-1,0
18727,859,-8171,-139,-8,26,-1,0
18732,876,-8167,-132,-8,22,-1,0
18737,891,-8162,-139,-8,18,-1,0
18742,910,-8160,-164,-8,14,-1,0
18747,937,-8159,-208,-8,11,-1,0
18753,970,-8158,-269,-8,9,-1,0
18757,1010,-8157,-339,-8,8,-1,0
18763,1055,-8155,-413,-8,8,-1,0
18768,1091,-8151,-486,-8,8,-1,0
18773,1120,-8150,-562,-8,9,0,0
18778,1138,-8150,-634,-8,12,0,0
18783,1145,-8151,-700,-7,17,0,0
18788,1157,-8151,-777,-7,22,0,0
18793,1184,-8151,-852,-7,26,0,0
18797,1225,-8149,-922,-7,28,1,0
18802,1266,-8150,-979,-7,29,1,0
18807,1308,-8148,-1013,-7,32,1,0
18812,1349,-8148,-1027,-7,36,2,0
18816,1370,-8145,-1012,-7,41,2,0
18821,1378,-8142,-974,-7,46,2,0
18826,1390,-8144,-931,-7,49,2,0
18830,1398,-8146,-880,-7,49,2,0
18835,1393,-8149,-820,-7,46,3,0
18840,1390,-8150,-760,-7,39,3,0
18846,1401,-8152,-702,-7,32,3,0
18850,1406,-8155,-648,-7,25,3,0
18855,1401,-8155,-594,-7,18,3,0
18860,1394,-8154,-549,-7,13,2,0
18865,1376,-8156,-520,-6,8,2,0
18870,1347,-8158,-513,-6,4,2,0
18875,1298,-8158,-522,-6,1,2,0
18880,1232,-8159,-553,-6,0,2,0
18885,1160,-8158,-593,-6,0,2,0
18891,1086,-8158,-643,-6,1,2,0
18895,1011,-8158,-690,-6,3,3,0
18900,946,-8159,-740,-6,6,3,0
18905,903,-8159,-788,-6,9,3,0
18910,878,-8160,-838,-6,12,3,0
18915,870,-8158,-886,-6,15,3,0
18920,880,-8158,-935,-6,17,3,0
18925,904,-8155,-975,-6,18,3,0
18930,931,-8154,-1012,-6,19,3,0
18935,956,-8152,-1042,-6,19,3,0
18940,978,-8148,-1072,-5,18,3,0
18945,985,-8144,-1093,-5,16,3,0
18950,979,-8146,-1115,-5,15,3,0
18955,962,-8149,-1136,-5,13,3,0
18960,932,-8148,-1147,-5,12,3,0
18965,895,-8147,-1147,-4,11,3,0
18970,862,-8151,-1138,-4,11,3,0
18975,827,-8155,-1117,-4,11,3,0
18980,785,-8156,-1085,-4,11,3,0
18985,745,-8159,-1046,-4,10,3,0
18990,706,-8160,-1004,-4,9,3,0
18995,666,-8163,-973,-4,7,3,0
19000,624,-8168,-946,-4,6,3,0
19005,590,-8168,-935,-4,5,3,0
19010,566,-8168,-938,-4,5,3,0
19015,552,-8167,-946,-3,5,3,0
19020,550,-8167,-966,-3,7,3,0
19025,559,-8167,-980,-3,8,3,0
19030,575,-8166,-993,-3,10,3,0
19035,599,-8165,-993,-3,11,3,0
19040,625,-8166,-995,-3,11,3,0
19045,642,-8168,-980,-3,11,3,0
19050,654,-8168,-959,-3,9,3,0
19055,658,-8167,-935,-3,8,2,0
19060,658,-8170,-909,-3,6,2,0
19065,656,-8171,-886,-3,3,2,0
19070,655,-8170,-861,-3,1,2,0
19075,647,-8169,-844,-3,-1,2,0
19080,639,-8170,-831,-3,-2,2,0
19085,628,-8172,-819,-3,-2,2,0
19090,614,-8174,-814,-3,-2,2,0
19095,598,-8174,-802,-3,-1,2,0
19100,575,-8173,-786,-3,-1,2,0
19105,546,-8172,-765,-3,-2,2,0
19110,509,-8174,-744,-3,-1,2,0
19115,476,-8172,-722,-3,-1,2,0
19120,441,-8174,-708,-3,0,2,0
19125,411,-8174,-708,-3,0,2,0
19130,388,-8171,-713,-3,1,2,0
19135,367,-8172,-722,-3,1,2,0
19140,345,-8172,-730,-3,2,1,0
19145,326,-8172,-736,-3,3,1,0
19150,310,-8171,-744,-3,4,1,0
19155,299,-8171,-757,-3,4,1,0
19160,296,-8173,-774,-3,3,1,0
19165,303,-8175,-793,-2,2,1,0
19170,315,-8177,-814,-2,0,1,0
19176,325,-8175,-834,-2,-2,1,0
19180,336,-8175,-839,-2,-3,1,0
19185,344,-8172,-838,-2,-3,0,0
19190,345,-8172,-827,-2,-2,0,0
19195,346,-8175,-805,-2,-2,0,0
19200,342,-8175,-775,-2,-1,0,0
19205,339,-8173,-744,-2,-1,0,0
19211,335,-8175,-717,-2,-1,0,0
19215,335,-8177,-695,-2,-1,0,0
19220,339,-8178,-677,-2,0,0,0
19226,343,-8177,-664,-2,1,0,0
19230,351,-8176,-656,-2,2,0,0
19235,361,-8179,-651,-3,3,0,0
19241,370,-8181,-651,-3,4,0,0
19247,381,-8180,-656,-3,5,0,0
19252,397,-8180,-670,-3,5,0,0
19258,413,-8181,-678,-3,5,0,0
19263,435,-8180,-687,-3,4,0,0
19268,458,-8178,-686,-3,4,0,0
19274,476,-8174,-681,-3,4,0,0
19279,492,-8175,-675,-3,5,0,0
19284,507,-8174,-672,-3,6,0,0
19290,524,-8171,-669,-3,6,0,0
19296,547,-8173,-668,-3,5,0,0
19301,574,-8173,-675,-3,4,0,0
19306,604,-8171,-686,-3,2,0,0
19312,630,-8171,-695,-3,0,0,0
19316,658,-8168,-704,-3,-1,0,0
19321,687,-8168,-713,-3,-1,0,0
19325,695,-8170,-720,-2,-1,0,0
19329,686,-8170,-722,-2,-1,0,0
19333,676,-8170,-726,-2,-1,0,0
19337,652,-8171,-728,-2,-2,0,0
19343,617,-8172,-726,-2,-2,0,0
19348,582,-8176,-719,-2,-2,0,0
19353,552,-8178,-704,-3,-1,0,0
19357,525,-8177,-685,-3,0,0,0
19361,505,-8178,-660,-3,1,0,0
19365,492,-8178,-636,-3,2,0,0
19369,482,-8181,-614,-3,4,0,0
19375,478,-8182,-604,-3,6,0,0
19379,477,-8179,-603,-3,9,0,0
19384,474,-8178,-607,-3,11,0,0
19389,475,-8180,-617,-3,14,0,0
19394,485,-8182,-628,-3,15,0,0
19399,495,-8177,-637,-3,16,0,0
19404,511,-8172,-644,-3,17,0,0
19409,536,-8172,-657,-3,16,0,0
19414,564,-8170,-669,-3,14,0,0
19419,595,-8168,-687,-3,11,0,0
19424,637,-8169,-708,-3,7,0,0
19429,678,-8166,-733,-3,3,0,0
19434,710,-8165,-763,-3,-1,0,0
19439,738,-8165,-790,-3,-3,0,0
19445,758,-8165,-799,-3,-3,0,0
19449,761,-8165,-795,-3,-2,-1,0
19454,750,-8167,-780,-3,-2,-1,0
19459,733,-8168,-755,-3,-3,-1,0
19465,698,-8166,-727,-3,-3,-1,0
19469,653,-8167,-704,-3,-4,-1,0
19475,617,-8167,-700,-3,-3,0,0
19480,587,-8166,-706,-2,-1,0,0
19484,567,-8168,-723,-2,0,0,0
19489,562,-8168,-752,-3,2,0,0
19494,566,-8167,-782,-3,3,0,0
19499,571,-8167,-808,-3,4,0,0
19504,575,-8167,-831,-3,6,0,0
19510,581,-8168,-846,-3,7,0,0
19514,583,-8167,-859,-2,8,0,0
19519,591,-8166,-870,-2,9,0,0
19525,602,-8166,-882,-2,9,0,0
19530,617,-8170,-892,-2,8,0,0
19534,644,-8172,-891,-2,7,0,0
19539,676,-8169,-885,-2,4,0,0
19545,704,-8170,-877,-2,2,0,0
19550,736,-8169,-860,-2,0,0,0
19555,757,-8171,-836,-2,-1,0,0
19561,763,-8170,-811,-2,-3,0,0
19566,755,-8170,-789,-2,-4,-1,0
19572,732,-8171,-770,-2,-4,-1,0
19577,695,-8175,-757,-2,-5,-1,0
19583,657,-8175,-753,-2,-5,-1,0
19588,615,-8177,-750,-2,-4,-1,0
19594,572,-8177,-747,-2,-3,-1,0
19600,536,-8177,-740,-2,-1,-1,0
19605,512,-8178,-729,-2,0,-1,0
19611,504,-8180,-714,-2,2,-1,0
19616,508,-8181,-701,-2,2,-1,0
19622,525,-8182,-691,-2,2,-1,0
19626,550,-8182,-681,-2,2,-1,0
19631,572,-8181,-672,-2,2,-1,0
19636,594,-8181,-666,-2,2,-1,0
19641,613,-8179,-667,-2,3,-1,0
19646,625,-8180,-673,-2,3,-1,0
19651,638,-8178,-684,-2,4,-1,0
19655,647,-8178,-694,-2,3,-1,0
19661,658,-8180,-703,-2,3,0,0
19667,666,-8178,-710,-2,2,0,0
19671,673,-8178,-708,-2,2,0,0
19675,671,-8176,-703,-2,1,-1,0
19679,662,-8174,-699,-2,1,-1,0
19683,651,-8175,-693,-2,1,-1,0
19687,634,-8175,-688,-2,0,-1,0
19691,618,-8175,-687,-2,0,-1,0
19695,607,-8175,-687,-2,0,-1,0
19700,597,-8175,-694,-2,0,-1,0
19704,597,-8174,-697,-2,0,-1,0
19709,606,-8175,-698,-2,1,-1,0
19714,623,-8175,-691,-2,2,-1,0
19719,644,-8175,-683,-2,3,-1,0
19724,661,-8173,-677,-2,2,-1,0
19729,677,-8172,-671,-2,2,-1,0
19734,689,-8172,-664,-2,1,0,0
19739,701,-8172,-663,-2,1,0,0
19744,708,-8172,-662,-2,0,0,0
19749,708,-8172,-661,-3,0,-1,0
19754,696,-8171,-667,-3,0,-1,0
19759,678,-8172,-678,-2,0,-1,0
19764,659,-8173,-691,-2,1,-1,0
19769,641,-8173,-709,-2,1,0,0
19774,633,-8172,-730,-2,2,0,0
19779,634,-8170,-755,-2,3,0,0
19784,642,-8170,-772,-2,3,0,0
19789,657,-8168,-783,-2,4,0,0
19794,674,-8167,-780,-2,4,0,0
19799,690,-8170,-766,-2,3,0,0
19804,706,-8172,-746,-2,2,0,0
19809,719,-8174,-731,-2,1,0,0
19814,728,-8172,-722,-2,0,0,0
19819,730,-8171,-720,-2,-1,0,0
19824,725,-8171,-723,-2,-1,0,0
19829,712,-8173,-727,-2,-1,0,0
19834,700,-8173,-729,-2,-1,0,0
19839,682,-8170,-730,-2,0,0,0
19844,665,-8169,-730,-2,1,0,0
19849,654,-8170,-733,-2,1,0,0
19854,653,-8168,-738,-2,2,0,0
19859,657,-8169,-746,-2,2,0,0
19864,671,-8168,-763,-2,2,0,0
19869,686,-8166,-779,-2,1,0,0
19874,700,-8166,-793,-2,0,0,0
19879,713,-8165,-805,-2,-1,0,0
19884,716,-8164,-807,-2,-1,0,0
19890,717,-8164,-789,-2,-2,0,0
19896,708,-8163,-765,-2,-2,0,0
19901,696,-8164,-744,-2,-2,0,0
19906,679,-8166,-726,-2,-2,0,0
19912,658,-8167,-715,-2,-2,0,0
19917,644,-8169,-708,-2,-1,0,0
19922,633,-8170,-718,-2,-1,0,0
19928,624,-8170,-732,-2,0,0,0
19933,616,-8170,-747,-2,0,0,0
19937,616,-8169,-756,-2,0,0,0
19942,618,-8172,-758,-2,0,0,0
19948,620,-8174,-755,-2,0,0,0
19953,619,-8175,-743,-2,0,0,0
19958,617,-8175,-727,-2,0,0,0
19962,612,-8174,-716,-2,-1,0,0
19967,608,-8173,-708,-2,-1,0,0
19972,603,-8174,-706,-2,-1,0,0
19977,603,-8175,-714,-2,0,0,0
19982,605,-8177,-719,-2,0,0,0
19986,603,-8182,-731,-2,0,0,0
19991,605,-8182,-735,-2,1,0,0
19996,611,-8179,-733,-2,1,0,0
20001,609,-8179,-731,-2,1,0,0
20005,614,-8178,-726,-2,1,0,0
20010,616,-8177,-719,-2,2,0,0
20015,620,-8176,-714,-2,2,0,0
20020,623,-8175,-709,-2,2,0,0
20024,623,-8175,-708,-2,2,0,0
20029,619,-8176,-710,-2,2,0,0
20034,621,-8177,-712,-2,3,0,0
20038,622,-8178,-715,-2,3,0,0
20043,626,-8180,-714,-2,4,0,0
20049,633,-8181,-708,-2,4,0,0
20053,640,-8181,-698,-2,3,0,0
20058,648,-8182,-685,-2,3,0,0
20063,655,-8182,-672,-2,3,0,0
20069,659,-8184,-667,-2,3,0,0
20074,660,-8184,-661,-2,3,0,0
20078,660,-8182,-661,-2,3,0,0
20083,658,-8178,-666,-2,3,-1,0
20089,654,-8178,-668,-2,3,0,0
20093,652,-8175,-673,-2,3,0,0
20098,657,-8173,-681,-2,2,0,0
20103,665,-8173,-690,-2,2,0,0
20108,680,-8169,-693,-2,1,0,0
20113,698,-8168,-695,-2,0,0,0
20118,712,-8165,-695,-2,0,0,0
20123,724,-8164,-694,-2,0,0,0
20129,733,-8164,-689,-2,0,0,0
20134,738,-8164,-688,-2,0,0,0
20138,738,-8165,-690,-2,0,0,0
20143,735,-8165,-691,-2,0,0,0
20149,734,-8163,-689,-2,0,0,0
20153,730,-8166,-690,-2,0,0,0
20158,724,-8170,-683,-2,0,0,0
20163,720,-8171,-673,-2,0,0,0
20168,712,-8171,-664,-2,-1,0,0
20173,701,-8169,-654,-2,-1,0,0
20178,684,-8171,-648,-2,-1,0,0
20183,667,-8172,-640,-2,-1,0,0
20188,656,-8173,-633,-2,-1,0,0
20193,645,-8172,-629,-2,-1,0,0
20198,641,-8172,-631,-2,-1,0,0
20203,639,-8172,-639,-2,0,0,0
20209,641,-8171,-650,-2,0,0,0
20215,648,-8170,-664,-2,1,0,0
20220,652,-8172,-682,-2,2,0,0
20225,655,-8174,-699,-2,2,0,0
20231,661,-8172,-713,-2,2,0,0
20237,665,-8170,-729,-2,2,0,0
20242,663,-8170,-741,-2,2,0,0
20248,659,-8167,-751,-2,1,0,0
20254,654,-8167,-753,-2,1,0,0
20258,647,-8166,-754,-2,0,0,0
20264,640,-8167,-751,-2,0,0,0
20269,628,-8167,-748,-2,0,0,0
20275,615,-8168,-745,-2,0,0,0
20281,608,-8172,-743,-2,0,0,0
20286,601,-8173,-743,-2,0,0,0
20292,603,-8172,-748,-2,0,0,0
20297,601,-8170,-755,-2,0,0,0
20302,600,-8171,-757,-2,0,0,0
20308,599,-8170,-758,-2,1,0,0
20313,606,-8171,-757,-2,2,0,0
20318,616,-8169,-759,-2,2,0,0
20324,622,-8170,-760,-2,2,0,0
20329,628,-8169,-766,-2,2,0,0
20335,628,-8171,-765,-2,2,0,0
20340,626,-8172,-769,-2,1,0,0
20344,621,-8172,-763,-2,1,0,0
20349,609,-8171,-751,-2,0,-1,0
20354,591,-8171,-735,-2,0,-1,0
20359,571,-8174,-722,-2,-1,-1,0
20364,552,-8174,-708,-2,-1,-1,0
20369,534,-8172,-696,-2,-1,-1,0
20374,518,-8173,-692,-2,0,-1,0
20379,511,-8173,-695,-2,1,-1,0
20384,507,-8175,-702,-2,2,-1,0
20389,513,-8175,-717,-2,2,-1,0
20394,518,-8175,-735,-2,3,-1,0
20398,525,-8174,-752,-2,4,-1,0
20403,533,-8172,-767,-2,4,-1,0
20408,541,-8174,-781,-2,4,-1,0
20413,541,-8173,-792,-2,4,-1,0
20418,541,-8172,-800,-2,3,-1,0
20422,544,-8175,-812,-2,2,-1,0
20427,544,-8176,-821,-2,1,-1,0
20432,547,-8175,-830,-2,0,-1,0
20437,542,-8176,-839,-2,-1,-1,0
20442,531,-8176,-845,-2,-1,-1,0
20448,521,-8174,-844,-2,0,-1,0
20454,512,-8173,-838,-2,0,-2,0
20459,506,-8172,-833,-2,0,-2,0
20464,500,-8170,-836,-2,0,-2,0
20469,495,-8171,-843,-2,-1,-2,0
20474,492,-8172,-855,-1,-1,-2,0
20478,489,-8172,-869,-1,-1,-2,0
20484,497,-8171,-882,-1,-1,-2,0
20490,516,-8172,-890,-1,-2,-2,0
20496,542,-8170,-892,-1,-4,-2,0
20501,571,-8168,-895,-1,-4,-2,0
20505,601,-8167,-894,-1,-4,-2,0
20510,629,-8166,-882,-1,-3,-2,0
20514,649,-8168,-867,-1,-3,-2,0
20518,656,-8168,-851,-1,-2,-2,0
20522,653,-8167,-833,-1,-2,-2,0
20526,640,-8163,-821,-1,-2,-2,0
20530,621,-8160,-813,-1,-2,-2,0
20535,607,-8161,-827,-1,-1,-2,0
20539,597,-8161,-855,-1,0,-2,0
20543,600,-8164,-887,-1,1,-2,0
20547,614,-8165,-917,-1,1,-2,0
20551,637,-8168,-937,-1,2,-2,0
20555,665,-8167,-939,-1,2,-2,0
20559,691,-8165,-919,-1,2,-2,0
20563,712,-8166,-882,-1,2,-2,0
20568,723,-8165,-840,-1,0,-2,0
20573,721,-8165,-805,0,-2,-2,1
20578,704,-8166,-787,0,-4,-2,1
20583,676,-8166,-794,0,-6,-2,1
20589,642,-8169,-811,0,-6,-2,1
20595,610,-8170,-835,0,-5,-2,1
20600,580,-8169,-861,0,-4,-2,1
20605,548,-8170,-877,0,-2,-2,1
20610,524,-8169,-880,0,1,-2,1
20615,509,-8167,-868,0,3,-2,1
20619,499,-8168,-847,0,4,-2,1
20623,491,-8168,-816,0,5,-2,1
20628,494,-8166,-797,0,7,-2,1
20633,502,-8168,-792,0,7,-3,1
20638,517,-8170,-776,0,6,-3,1
20643,529,-8171,-779,0,5,-3,1
20648,554,-8172,-783,0,4,-3,1
20653,592,-8169,-775,0,2,-3,1
20658,628,-8171,-780,0,1,-3,1
20663,673,-8170,-771,0,0,-3,1
20669,719,-8167,-768,0,-1,-3,1
20675,759,-8166,-759,0,-2,-3,1
20680,799,-8165,-762,0,-3,-3,1
20685,833,-8164,-775,1,-5,-3,1
20691,859,-8161,-784,1,-7,-3,1
20697,882,-8161,-804,1,-7,-3,1
20703,897,-8160,-819,1,-8,-3,1
20709,917,-8158,-815,1,-8,-2,1
20715,932,-8157,-805,1,-7,-2,1
20720,940,-8158,-770,0,-7,-2,1
20726,946,-8159,-725,0,-6,-2,1
20732,947,-8159,-683,0,-4,-2,1
20737,940,-8160,-636,0,-3,-2,1
20742,923,-8162,-597,0,-1,-2,1
20748,901,-8167,-565,0,0,-2,1
20752,873,-8170,-542,0,1,-2,1
20757,835,-8173,-533,0,2,-2,1
20762,792,-8173,-523,0,4,-2,1
20767,756,-8177,-524,0,6,-2,1
20771,740,-8177,-540,0,8,-2,1
20776,744,-8177,-559,0,9,-2,1
20780,757,-8174,-579,0,10,-1,1
20784,790,-8172,-606,0,12,-1,1
20790,849,-8167,-637,0,14,-1,1
20795,927,-8164,-661,0,15,-1,1
20799,1007,-8162,-678,0,14,-1,1
20803,1086,-8164,-692,0,12,-1,1
20808,1148,-8165,-694,0,9,-1,1
20813,1187,-8165,-686,0,7,-1,1
20817,1212,-8162,-672,0,5,-1,1
20822,1230,-8162,-653,0,4,-1,1
20827,1233,-8160,-632,0,3,-1,1
20832,1220,-8157,-609,0,2,0,1
20836,1205,-8158,-590,1,2,0,1
20840,1186,-8159,-571,1,2,0,1
20844,1166,-8160,-559,1,3,0,1
20849,1148,-8160,-546,0,3,0,1
20853,1131,-8161,-536,0,3,0,1
20857,1115,-8161,-522,0,2,0,1
20862,1095,-8161,-504,0,2,0,1
20868,1078,-8160,-486,0,2,0,1
20872,1064,-8160,-470,0,2,0,1
20877,1046,-8160,-449,0,1,0,1
20882,1034,-8158,-432,0,1,0,1
20887,1026,-8157,-418,0,1,1,1
20892,1016,-8160,-405,0,1,1,1
20897,1007,-8164,-392,0,2,1,1
20902,992,-8166,-384,0,3,1,1
20907,972,-8167,-381,0,5,1,1
20912,952,-8171,-387,0,7,1,1
20917,932,-8174,-405,0,8,1,1
20922,909,-8176,-436,0,9,1,1
20927,889,-8176,-479,0,10,1,1
20932,872,-8174,-527,0,11,1,1
20937,860,-8173,-583,0,11,1,1
20942,850,-8170,-640,0,10,1,1
20947,847,-8167,-693,0,9,1,1
20952,851,-8165,-741,0,9,1,1
20957,859,-8164,-780,0,8,1,1
20962,869,-8162,-810,0,6,1,1
20967,879,-8158,-832,1,4,1,1
20972,875,-8156,-839,1,2,1,1
20977,860,-8156,-830,1,-1,1,1
20982,842,-8158,-803,1,-3,1,1
20987,820,-8159,-770,1,-5,1,1
20992,791,-8159,-730,1,-7,1,1
20997,771,-8160,-685,1,-7,1,1
21002,761,-8160,-644,1,-7,1,1
21007,760,-8164,-599,1,-7,1,1
21012,767,-8165,-556,1,-6,1,1
21017,785,-8166,-519,1,-6,1,1
21022,801,-8164,-490,1,-6,1,1
21027,812,-8165,-466,1,-5,1,1
21032,825,-8168,-455,1,-5,1,1
21037,834,-8170,-452,1,-4,1,1
21042,835,-8172,-447,1,-4,1,1
21047,836,-8172,-439,1,-4,1,1
21052,834,-8170,-426,1,-4,1,1
21057,832,-8168,-412,1,-4,1,1
21062,827,-8170,-395,1,-4,1,1
21067,812,-8169,-370,1,-4,1,1
21072,798,-8169,-351,1,-4,1,1
21077,780,-8169,-340,1,-3,1,1
21082,758,-8170,-335,1,-2,1,1
21087,736,-8169,-339,1,-1,1,1
21092,712,-8171,-341,1,-1,1,1
21097,703,-8171,-371,1,-1,1,1
21102,675,-8169,-373,1,0,1,1
21107,650,-8166,-389,1,0,1,1
21112,635,-8164,-402,1,0,1,1
21117,618,-8164,-413,1,-1,1,1
21122,606,-8167,-441,1,-1,1,1
21127,597,-8169,-466,1,-2,1,1
21132,597,-8168,-498,1,-2,0,1
21137,602,-8168,-528,1,-3,0,1
21142,613,-8169,-546,1,-4,0,1
21147,630,-8169,-555,1,-5,0,1
21152,646,-8168,-539,1,-6,0,1
21157,668,-8168,-500,1,-8,0,1
21162,689,-8169,-452,1,-10,0,1
21167,699,-8171,-397,1,-13,0,1
21172,700,-8171,-352,1,-14,0,1
21177,694,-8170,-312,1,-15,0,1
21182,680,-8172,-286,1,-14,0,1
21187,664,-8176,-270,1,-14,0,1
21192,641,-8182,-256,1,-13,0,1
21197,610,-8185,-239,1,-12,0,1
21202,582,-8186,-221,1,-10,0,1
21207,557,-8188,-203,1,-8,0,1
21212,539,-8190,-182,1,-6,0,1
21217,530,-8191,-165,1,-6,0,1
21222,527,-8191,-159,1,-6,0,1
21226,528,-8190,-162,1,-7,0,1
21232,526,-8191,-171,0,-8,-1,1
21237,523,-8192,-185,0,-8,-1,1
21243,515,-8191,-194,0,-8,-1,1
21248,512,-8190,-193,0,-8,-1,1
21253,507,-8188,-189,0,-8,-1,1
21258,506,-8190,-179,0,-8,-1,1
21264,507,-8191,-169,0,-9,-1,1
21269,510,-8191,-161,0,-9,-1,1
21275,514,-8190,-161,0,-9,-1,1
21279,516,-8189,-167,0,-9,-1,1
21284,513,-8190,-182,0,-9,-1,1
21289,512,-8190,-197,0,-9,-1,1
21294,512,-8191,-210,0,-8,-1,1
21299,516,-8191,-215,0,-7,-1,1
21304,521,-8190,-221,0,-6,-1,1
21309,540,-8188,-228,0,-5,-1,1
21314,567,-8189,-229,0,-4,-1,1
21318,600,-8188,-221,0,-4,-1,1
21323,640,-8187,-210,0,-5,-1,1
21328,679,-8189,-197,0,-5,-1,1
21333,712,-8187,-179,0,-5,-1,1
21338,742,-8186,-166,-1,-6,-1,1
21344,769,-8184,-151,-1,-6,-1,1
21349,788,-8183,-132,-1,-6,-1,1
21354,801,-8182,-116,-1,-5,-1,1
21358,809,-8181,-96,-1,-5,-1,1
21364,815,-8179,-74,-1,-4,-1,1
21369,816,-8178,-49,-1,-4,-1,1
21374,813,-8178,-23,-1,-2,-1,1
21378,808,-8179,1,-1,-1,-1,1
21383,796,-8182,20,-2,0,-1,1
21387,781,-8184,38,-2,1,-1,1
21393,763,-8187,53,-2,2,-1,1
21397,744,-8185,64,-2,3,-1,1
21402,723,-8188,63,-2,4,-1,1
21406,706,-8189,57,-2,5,-1,1
21411,690,-8191,42,-2,5,-1,1
21416,685,-8191,23,-2,6,-1,1
21421,693,-8191,1,-2,5,-1,1
21426,717,-8190,-18,-2,3,-1,1
21431,744,-8190,-19,-3,-1,-1,1
21437,739,-8190,2,-3,-4,-1,1
21442,695,-8192,48,-3,-6,-2,1
21447,598,-8198,122,-3,-6,-2,1
21453,414,-8206,225,-3,-6,-3,1
21458,201,-8238,320,-4,-7,-4,1
21464,-135,-8501,473,-4,-7,-4,1
21470,-451,-9079,434,-4,-5,-5,1
21476,-653,-9861,277,-4,10,-6,1
21481,-720,-10719,-15,-4,40,-6,1
21487,-525,-11528,-267,-4,77,-6,1
21494,-147,-12221,-525,-3,114,-4,1
21500,456,-12816,-752,-2,144,-3,1
21506,1115,-13325,-975,-1,165,-1,1
21512,1725,-13762,-1192,2,180,3,1
21517,2313,-14137,-1341,4,186,6,1
21523,2798,-14458,-1766,4,175,7,1
21528,3416,-14733,-2204,4,145,6,1
21533,4119,-14969,-2426,5,117,9,1
21539,4790,-15171,-2474,7,87,13,1
21544,5351,-15344,-2513,10,46,17,1
21550,5887,-15493,-2521,12,-3,19,1
21555,6349,-15620,-2563,15,-40,22,1
21560,6534,-15463,-2567,17,-69,23,1
21566,6321,-15023,-2474,18,-98,25,1
21571,5964,-14378,-2173,19,-119,26,1
21575,5482,-13585,-1766,20,-120,28,1
21579,4903,-12680,-1348,20,-108,29,1
21583,4296,-11683,-944,20,-95,30,1
21587,3716,-10628,-584,19,-80,30,1
21592,3141,-9548,-286,19,-67,31,1
21597,2596,-8472,-23,18,-56,31,1
21601,2104,-7436,214,17,-52,30,1
21604,1665,-6447,396,17,-56,29,1
21608,1289,-5513,551,16,-64,28,1
21612,993,-4651,672,15,-69,27,1
21615,762,-3879,770,14,-70,26,1
21619,553,-3202,854,14,-69,26,1
21623,373,-2622,930,13,-64,26,1
21627,202,-2135,997,12,-59,25,1
21631,9,-1727,1066,12,-55,25,1
21636,-236,-1382,1137,11,-52,23,1
21641,-654,-1089,1255,9,-48,21,1
21646,-960,-824,1293,7,-45,17,1
21652,-1332,-594,1411,7,-41,16,1
21657,-2021,-418,1645,6,-41,16,1
21661,-2516,-310,1701,6,-47,15,1
21666,-2777,-282,1610,5,-37,13,1
21671,-2715,-277,1390,4,-21,11,1
21676,-2503,-298,1239,2,-10,8,1
21681,-2355,-365,1227,1,-10,6,1
21686,-2301,-524,1348,0,-18,4,1
21691,-2335,-772,1439,0,-26,3,1
21696,-2318,-1078,1435,-1,-29,1,1
21701,-2266,-1392,1294,-1,-25,0,1
21707,-2102,-1681,1158,-3,-18,-2,1
21713,-1894,-1961,1135,-4,-10,-3,1
21719,-1672,-2223,1198,-5,-5,-4,1
21725,-1498,-2503,1303,-5,-4,-5,1
21731,-1322,-2805,1302,-5,-3,-7,1
21737,-1155,-3130,1183,-5,0,-8,1
21743,-991,-3467,943,-6,3,-9,1
21749,-795,-3818,755,-6,6,-9,1
21755,-593,-4173,640,-7,8,-10,1
21761,-370,-4547,646,-7,9,-11,1
21767,-182,-4928,655,-7,8,-11,1
21772,-28,-5302,635,-7,7,-12,1
21778,89,-5644,498,-7,10,-12,1
21784,163,-5945,373,-7,13,-13,1
21790,232,-6199,260,-8,17,-13,1
21795,304,-6421,243,-8,20,-13,1
21801,382,-6625,244,-8,21,-13,1
21806,462,-6816,237,-8,20,-13,1
21812,537,-6991,159,-7,17,-13,1
21818,578,-7149,49,-7,14,-14,1
21823,604,-7298,-65,-7,12,-14,1
21829,629,-7433,-122,-7,12,-14,1
21835,637,-7548,-121,-7,12,-13,1
21841,656,-7645,-111,-7,13,-13,1
21847,684,-7736,-121,-7,13,-13,1
21852,683,-7824,-175,-6,12,-13,1
21858,664,-7917,-255,-6,10,-13,1
21863,631,-8000,-305,-6,9,-13,1
21869,569,-8060,-281,-6,9,-13,1
21875,511,-8095,-199,-6,9,-13,1
21880,463,-8117,-98,-6,10,-13,1
21886,395,-8133,0,-6,10,-13,1
21891,335,-8144,48,-6,11,-14,1
21897,312,-8146,66,-7,13,-14,1
21903,317,-8142,62,-7,14,-13,1
21908,414,-8140,44,-7,14,-13,1
21914,678,-8135,16,-7,15,-12,1
21919,963,-8134,-17,-7,16,-10,1
21925,1013,-8145,1,-7,11,-9,1
21931,1079,-8184,-26,-7,8,-10,1
21936,1026,-8221,-2,-7,12,-10,1
21940,934,-8248,23,-8,12,-10,1
21945,776,-8269,87,-8,14,-9,1
21949,629,-8290,138,-8,14,-9,1
21954,566,-8304,150,-8,16,-9,1
21958,555,-8291,140,-8,15,-8,1
21964,619,-8267,104,-8,13,-8,1
21968,659,-8239,75,-9,11,-8,1
21973,666,-8222,66,-9,7,-8,1
21978,612,-8215,86,-9,5,-8,1
21983,515,-8219,105,-9,2,-8,1
21988,417,-8230,130,-9,1,-7,1
21993,359,-8239,136,-9,1,-7,1
21997,345,-8246,127,-10,1,-7,1
22002,366,-8259,119,-10,0,-7,1
22006,404,-8283,107,-10,0,-7,1
22010,428,-8318,101,-10,0,-7,1
22015,441,-8352,95,-10,0,-7,1
22019,453,-8376,72,-11,0,-7,1
22024,446,-8388,46,-11,0,-7,1
22029,437,-8389,26,-11,0,-7,1
22033,444,-8376,10,-11,1,-6,1
22037,448,-8350,8,-11,2,-6,1
22042,465,-8319,14,-11,5,-6,1
22047,492,-8277,16,-12,7,-6,1
22053,513,-8227,13,-12,9,-6,1
22057,543,-8166,3,-12,10,-6,1
22062,571,-8105,-12,-12,10,-6,1
22067,578,-8045,-20,-12,8,-6,1
22071,570,-7985,-24,-12,6,-6,1
22075,545,-7922,-21,-12,6,-6,1
22080,496,-7865,-7,-13,5,-6,1
22084,433,-7821,12,-13,6,-6,1
22088,307,-7801,66,-13,8,-6,1
22092,213,-7800,71,-14,7,-8,1
22095,238,-7815,57,-14,10,-8,1
22099,254,-7825,28,-14,11,-8,1
22103,293,-7846,-14,-14,9,-8,1
22107,338,-7865,-52,-14,9,-7,1
22111,431,-7870,-94,-14,8,-7,1
22115,509,-7866,-111,-14,7,-8,1
22119,576,-7865,-124,-14,5,-8,1
22123,599,-7867,-127,-14,3,-8,1
22127,599,-7867,-149,-14,1,-8,1
22131,586,-7864,-165,-14,1,-8,1
22135,596,-7859,-191,-14,1,-8,1
22139,628,-7857,-207,-14,1,-8,1
22143,693,-7864,-221,-14,1,-8,1
22147,747,-7881,-226,-14,1,-8,1
22151,777,-7906,-233,-14,0,-9,1
22155,780,-7934,-236,-14,-1,-9,1
22160,782,-7963,-247,-14,-1,-9,1
22165,801,-7988,-259,-14,-1,-9,1
22170,844,-8013,-270,-14,-1,-9,1
22175,893,-8038,-278,-14,-1,-9,1
22180,933,-8067,-289,-14,0,-9,1
22185,948,-8088,-300,-14,0,-9,1
22190,945,-8095,-322,-13,0,-9,1
22195,939,-8081,-354,-13,0,-9,1
22200,950,-8058,-392,-13,0,-9,1
22205,980,-8026,-431,-13,0,-9,1
22210,1015,-7986,-468,-13,0,-9,1
22215,1039,-7938,-491,-13,-1,-9,1
22220,1046,-7886,-505,-12,-2,-9,1
22225,1032,-7831,-524,-12,-2,-9,1
22230,1017,-7777,-532,-12,-2,-9,1
22235,1009,-7717,-543,-12,-2,-9,1
22240,1019,-7660,-545,-12,-1,-9,1
22245,1038,-7610,-539,-11,-1,-9,1
22250,1044,-7563,-523,-11,-1,-9,1
22255,1042,-7521,-518,-11,0,-9,1
22260,1034,-7494,-507,-11,1,-9,1
22265,1031,-7482,-494,-11,2,-9,1
22270,1047,-7482,-485,-11,3,-9,1
22276,1076,-7484,-484,-11,3,-9,1
22280,1112,-7495,-480,-11,3,-9,1
22286,1145,-7510,-478,-11,3,-9,1
22291,1165,-7533,-470,-11,3,-9,1
22297,1173,-7562,-463,-11,3,-9,1
22302,1184,-7593,-464,-10,3,-9,1
22308,1209,-7619,-471,-10,3,-9,1
22313,1259,-7643,-480,-10,3,-9,1
22319,1329,-7667,-481,-10,3,-9,1
22324,1389,-7691,-475,-10,2,-9,1
22330,1427,-7715,-466,-10,1,-9,1
22335,1440,-7746,-462,-10,1,-9,1
22340,1426,-7783,-460,-10,2,-9,1
22345,1413,-7818,-466,-10,2,-9,1
22351,1410,-7852,-480,-10,3,-9,1
22355,1421,-7887,-502,-10,3,-9,1
22360,1435,-7932,-527,-10,3,-9,1
22365,1427,-7987,-555,-10,3,-9,1
22370,1389,-8049,-587,-10,3,-10,1
22376,1340,-8119,-627,-9,3,-10,1
22380,1305,-8188,-672,-9,4,-10,1
22385,1302,-8254,-724,-9,5,-10,1
22389,1332,-8321,-771,-9,6,-10,1
22393,1361,-8391,-807,-8,5,-10,1
22397,1386,-8460,-839,-8,4,-10,1
22401,1404,-8532,-861,-8,3,-10,1
22406,1424,-8603,-878,-8,3,-10,1
22412,1462,-8662,-888,-7,3,-10,1
22418,1523,-8706,-890,-7,3,-10,1
22423,1597,-8739,-889,-7,4,-10,1
22428,1667,-8761,-888,-7,3,-10,1
22433,1715,-8774,-884,-7,2,-10,1
22437,1728,-8776,-879,-7,1,-10,1
22442,1721,-8770,-868,-6,1,-10,1
22447,1701,-8752,-852,-6,2,-9,1
22453,1677,-8726,-827,-6,4,-9,1
22458,1653,-8697,-803,-6,6,-9,1
22464,1614,-8665,-784,-6,8,-9,1
22470,1555,-8639,-790,-6,9,-9,1
22476,1498,-8620,-800,-6,11,-9,1
22481,1459,-8611,-812,-7,12,-9,1
22487,1447,-8601,-815,-6,12,-9,1
22493,1455,-8592,-815,-6,12,-9,1
22499,1477,-8587,-818,-6,12,-9,1
22504,1490,-8587,-829,-6,11,-9,1
22510,1494,-8582,-836,-6,11,-9,1
22516,1492,-8569,-847,-6,11,-8,1
22521,1501,-8556,-866,-6,11,-8,1
22527,1525,-8546,-890,-6,11,-8,1
22533,1560,-8539,-916,-6,10,-8,1
22539,1592,-8530,-944,-6,8,-7,1
22545,1608,-8520,-974,-6,6,-7,1
22551,1612,-8511,-994,-6,4,-7,1
22557,1615,-8507,-1015,-6,2,-7,1
22563,1621,-8503,-1028,-6,1,-6,1
22569,1626,-8501,-1042,-6,-1,-6,1
22575,1634,-8508,-1058,-6,-1,-6,1
22581,1634,-8522,-1066,-6,-1,-6,1
22587,1630,-8536,-1064,-6,0,-5,1
22593,1630,-8544,-1064,-6,2,-5,0
22599,1637,-8549,-1066,-6,3,-5,0
22604,1657,-8541,-1070,-6,4,-4,0
22610,1686,-8528,-1078,-6,4,-4,0
22616,1706,-8515,-1083,-6,4,-4,0
22622,1711,-8501,-1081,-6,4,-3,0
22628,1708,-8480,-1069,-6,4,-3,0
22633,1701,-8454,-1052,-6,5,-3,0
22639,1695,-8434,-1037,-6,6,-3,0
22644,1693,-8419,-1025,-7,7,-2,0
22649,1692,-8409,-1023,-7,8,-2,0
22654,1682,-8407,-1020,-7,8,-2,0
22658,1665,-8408,-1017,-7,8,-2,0
22663,1646,-8408,-1009,-7,8,-2,0
22668,1640,-8406,-1002,-7,8,-2,0
22673,1637,-8397,-1002,-7,7,-1,0
22678,1632,-8379,-1011,-7,6,-1,0
22683,1622,-8355,-1032,-7,4,-1,0
22687,1608,-8333,-1052,-7,3,-1,0
22691,1587,-8307,-1070,-7,2,-1,0
22695,1566,-8275,-1077,-7,2,-1,0
22699,1549,-8233,-1083,-7,2,-1,0
22704,1537,-8193,-1085,-7,1,-1,0
22709,1533,-8161,-1096,-7,1,-1,0
22715,1541,-8140,-1112,-7,2,-1,0
22720,1556,-8133,-1131,-7,2,-1,0
22725,1574,-8139,-1147,-7,3,-1,0
22731,1590,-8146,-1164,-7,3,-1,0
22735,1603,-8153,-1179,-7,3,-1,0
22739,1627,-8152,-1191,-7,3,-1,0
22743,1653,-8145,-1200,-7,3,0,0
22747,1669,-8137,-1208,-7,1,0,0
22752,1669,-8129,-1208,-7,1,0,0
22758,1648,-8117,-1201,-7,1,0,0
22762,1610,-8101,-1186,-7,2,0,0
22766,1572,-8089,-1179,-7,3,0,0
22769,1552,-8072,-1175,-7,4,0,0
22773,1554,-8051,-1184,-7,5,0,0
22777,1565,-8027,-1188,-7,5,0,0
22782,1573,-8013,-1187,-7,5,-1,0
22788,1571,-8013,-1176,-8,5,-1,0
22793,1563,-8017,-1163,-8,4,-1,0
22798,1562,-8015,-1151,-8,4,0,0
22803,1572,-8010,-1148,-8,3,0,0
22808,1594,-7996,-1149,-8,2,0,0
22812,1621,-7978,-1145,-8,0,0,0
22817,1640,-7961,-1129,-8,-2,0,0
22821,1642,-7944,-1113,-8,-3,0,0
22826,1624,-7933,-1109,-8,-4,0,0
22830,1593,-7924,-1120,-8,-4,0,0
22835,1553,-7925,-1138,-8,-3,0,0
22840,1517,-7936,-1159,-8,-1,0,0
22845,1489,-7952,-1180,-8,2,0,0
22850,1477,-7967,-1195,-8,5,0,0
22854,1474,-7981,-1214,-8,7,0,0
22859,1480,-7994,-1248,-8,7,0,0
22864,1489,-8002,-1288,-8,7,0,0
22869,1497,-8008,-1325,-7,6,0,0
22874,1505,-8002,-1339,-7,4,0,0
22879,1514,-7995,-1335,-7,3,0,0
22884,1524,-7982,-1318,-7,1,0,0
22888,1538,-7965,-1310,-7,-1,0,0
22893,1549,-7948,-1320,-7,-2,0,0
22898,1561,-7940,-1342,-6,-3,0,0
22903,1561,-7940,-1361,-6,-4,0,0
22908,1552,-7943,-1359,-6,-5,0,0
22913,1545,-7950,-1348,-6,-6,0,0
22917,1539,-7963,-1337,-6,-7,0,0
22922,1535,-7980,-1329,-6,-7,0,0
22927,1526,-7993,-1325,-6,-7,0,0
22932,1516,-8004,-1314,-6,-6,0,0
22937,1516,-8017,-1297,-6,-4,1,0
22941,1519,-8028,-1273,-6,-4,1,0
22946,1529,-8037,-1250,-6,-4,1,0
22950,1536,-8038,-1236,-6,-4,1,0
22955,1534,-8030,-1227,-6,-5,1,0
22960,1527,-8019,-1219,-6,-5,1,0
22965,1521,-8004,-1201,-7,-4,1,0
22970,1514,-7991,-1174,-7,-3,1,0
22975,1509,-7981,-1156,-7,-2,1,0
22980,1511,-7976,-1146,-7,-1,1,0
22985,1514,-7981,-1153,-7,-1,1,0
22990,1516,-7992,-1173,-7,0,1,0
22995,1522,-8003,-1197,-7,-1,1,0
23000,1531,-8015,-1216,-7,-2,1,0
23005,1541,-8025,-1227,-7,-2,1,0
23010,1555,-8033,-1230,-7,-2,1,0
23015,1566,-8042,-1235,-7,-2,1,0
23020,1572,-8053,-1251,-7,-1,1,0
23025,1577,-8064,-1273,-7,0,2,0
23030,1581,-8070,-1291,-7,0,2,0
23034,1591,-8074,-1301,-7,1,2,0
23038,1607,-8074,-1309,-7,0,2,0
23043,1622,-8079,-1310,-7,0,2,0
23048,1634,-8090,-1317,-7,-1,2,0
23053,1639,-8104,-1321,-7,0,2,0
23057,1625,-8117,-1323,-7,0,2,0
23062,1607,-8127,-1327,-7,1,2,0
23067,1593,-8131,-1332,-7,2,2,0
23072,1591,-8134,-1336,-7,2,2,0
23077,1606,-8134,-1339,-7,2,3,0
23081,1623,-8129,-1341,-7,2,3,0
23086,1631,-8122,-1348,-7,1,3,0
23090,1619,-8110,-1352,-7,1,3,0
23095,1594,-8097,-1348,-7,1,3,0
23099,1571,-8088,-1346,-7,0,3,0
23104,1563,-8074,-1342,-7,0,3,0
23109,1559,-8058,-1347,-7,-1,3,0
23114,1560,-8043,-1353,-7,-2,3,0
23118,1553,-8030,-1350,-7,-2,2,0
23123,1541,-8022,-1346,-7,-2,2,0
23128,1523,-8020,-1340,-7,-3,2,0
23132,1507,-8015,-1347,-7,-3,2,0
23138,1506,-8009,-1358,-6,-3,2,0
23143,1518,-8000,-1379,-6,-4,2,0
23149,1528,-7989,-1399,-6,-4,2,0
23155,1530,-7979,-1410,-6,-4,2,0
23160,1523,-7972,-1419,-6,-4,2,0
23166,1499,-7966,-1429,-6,-4,2,0
23172,1475,-7962,-1446,-6,-4,2,0
23178,1471,-7959,-1468,-6,-4,2,0
23183,1485,-7960,-1491,-5,-4,2,0
23189,1502,-7971,-1516,-5,-5,2,0
23195,1511,-7994,-1542,-5,-5,2,0
23201,1507,-8020,-1563,-5,-6,2,0
23206,1495,-8049,-1575,-5,-7,1,0
23212,1488,-8076,-1582,-4,-8,1,0
23218,1500,-8099,-1586,-4,-7,1,0
23222,1528,-8117,-1587,-4,-7,1,0
23226,1559,-8131,-1588,-4,-7,1,0
23231,1578,-8147,-1588,-4,-6,1,0
23237,1590,-8159,-1588,-4,-6,1,0
23241,1602,-8166,-1591,-4,-7,1,0
23246,1612,-8160,-1601,-3,-7,1,0
23251,1628,-8152,-1608,-3,-7,1,0
23255,1645,-8138,-1607,-3,-7,1,0
23259,1654,-8122,-1603,-3,-6,1,0
23263,1650,-8108,-1595,-3,-6,1,0
23268,1635,-8097,-1587,-3,-6,1,0
23272,1619,-8089,-1585,-3,-6,1,0
23276,1615,-8077,-1579,-2,-6,1,0
23280,1630,-8063,-1570,-2,-6,1,0
23284,1653,-8055,-1546,-2,-7,1,0
23288,1673,-8048,-1515,-2,-7,1,0
23292,1676,-8044,-1486,-2,-8,1,0
23296,1672,-8039,-1456,-2,-7,1,0
23300,1669,-8032,-1432,-2,-7,1,0
23304,1671,-8018,-1401,-2,-6,1,0
23308,1671,-8001,-1371,-2,-5,1,0
23313,1673,-7985,-1336,-2,-4,1,0
23318,1668,-7977,-1314,-2,-3,1,0
23323,1645,-7973,-1301,-2,-3,1,0
23328,1611,-7968,-1295,-2,-2,1,0
23333,1579,-7962,-1296,-2,-1,1,0
23338,1566,-7965,-1299,-2,1,1,0
23343,1572,-7971,-1309,-2,1,1,0
23348,1578,-7977,-1327,-2,0,1,0
23353,1577,-7987,-1344,-2,-1,1,0
23358,1568,-8001,-1363,-2,-1,1,0
23363,1560,-8011,-1387,-2,-2,1,0
23368,1555,-8015,-1406,-2,-2,1,0
23373,1560,-8023,-1423,-2,-2,1,0
23378,1571,-8038,-1437,-1,-3,1,0
23383,1580,-8049,-1464,-1,-4,1,0
23388,1580,-8054,-1498,-1,-6,1,0
23393,1571,-8059,-1530,-1,-7,1,0
23398,1563,-8066,-1562,-1,-7,1,0
23403,1555,-8073,-1573,0,-7,1,0
23408,1547,-8077,-1569,0,-7,1,0
23413,1537,-8083,-1555,0,-7,1,0
23418,1530,-8086,-1542,0,-6,1,0
23423,1523,-8087,-1527,0,-5,1,0
23428,1513,-8085,-1512,0,-5,1,0
23433,1506,-8081,-1488,0,-4,1,0
23438,1502,-8076,-1459,0,-3,1,0
23443,1498,-8073,-1426,0,-2,1,0
23448,1492,-8072,-1397,0,-1,1,0
23453,1491,-8075,-1378,0,0,1,0
23458,1490,-8075,-1365,0,0,2,0
23463,1494,-8070,-1350,0,0,2,0
23468,1502,-8065,-1335,0,0,2,0
23473,1506,-8059,-1313,0,-1,2,0
23478,1498,-8052,-1288,0,-1,2,0
23483,1474,-8047,-1262,0,-1,2,0
23488,1444,-8045,-1239,0,0,2,0
23493,1416,-8035,-1221,0,1,2,0
23498,1399,-8016,-1209,-1,3,2,0
23503,1387,-7996,-1206,-1,4,2,0
23509,1382,-7978,-1213,-1,4,2,0
23514,1369,-7960,-1234,-1,4,2,0
23519,1346,-7946,-1257,-1,4,2,0
23524,1317,-7936,-1272,-1,3,2,0
23530,1295,-7934,-1281,-1,4,2,0
23535,1282,-7933,-1285,-1,5,3,0
23540,1281,-7939,-1289,-1,6,3,0
23545,1288,-7944,-1295,-1,6,3,0
23550,1303,-7952,-1309,-1,4,3,0
23554,1313,-7960,-1322,-1,3,3,0
23559,1314,-7963,-1326,-1,2,3,0
23564,1312,-7964,-1323,-1,2,3,0
23569,1310,-7964,-1315,-1,1,3,0
23574,1305,-7967,-1311,-1,1,3,0
23579,1303,-7964,-1312,0,1,3,0
23584,1309,-7960,-1331,0,2,3,0
23588,1318,-7964,-1357,0,2,3,0
23593,1320,-7970,-1377,0,1,3,0
23598,1320,-7981,-1386,0,1,3,0
23603,1320,-7994,-1391,0,1,3,0
23608,1323,-8012,-1391,0,1,3,0
23613,1324,-8030,-1395,0,2,3,0
23618,1328,-8038,-1402,0,3,3,0
23623,1336,-8046,-1413,0,3,3,0
23628,1341,-8052,-1415,0,3,3,0
23633,1345,-8054,-1416,0,2,3,0
23638,1345,-8060,-1414,0,2,3,0
23643,1337,-8065,-1414,0,2,3,0
23648,1327,-8064,-1412,0,2,2,0
23653,1320,-8058,-1409,0,2,2,0
23658,1317,-8049,-1407,0,1,2,0
23663,1321,-8034,-1404,0,1,2,0
23668,1323,-8019,-1400,0,1,2,0
23673,1321,-8002,-1388,0,1,2,0
23678,1315,-7989,-1381,0,1,2,0
23683,1309,-7982,-1377,0,0,2,0
23688,1307,-7981,-1381,0,0,2,0
23693,1313,-7983,-1389,0,0,2,0
23698,1323,-7987,-1405,0,0,2,0
23703,1337,-7997,-1415,0,-1,2,0
23708,1347,-8009,-1416,0,-1,2,0
23713,1350,-8020,-1416,0,-2,1,0
23718,1349,-8030,-1412,1,-2,1,0
23723,1345,-8036,-1403,1,-2,1,0
23728,1344,-8037,-1394,1,-3,1,0
23733,1349,-8032,-1383,1,-2,1,0
23738,1349,-8022,-1369,1,-2,1,0
23743,1343,-8015,-1352,0,-2,1,0
23749,1332,-8006,-1335,0,-2,1,0
23754,1329,-7999,-1322,0,-1,1,0
23760,1327,-7994,-1315,0,-1,1,0
23765,1329,-7990,-1319,0,-1,1,0
23771,1332,-7996,-1330,0,0,1,0
23777,1335,-8009,-1340,0,0,1,0
23781,1334,-8024,-1347,0,1,1,0
23787,1333,-8040,-1352,0,1,1,0
23792,1330,-8050,-1348,0,1,1,0
23798,1329,-8059,-1342,0,2,1,0
23802,1334,-8065,-1338,0,2,1,0
23806,1337,-8070,-1328,0,2,1,0
23811,1336,-8074,-1323,0,1,1,0
23815,1339,-8078,-1314,0,2,1,0
23820,1346,-8085,-1306,0,3,1,0
23823,1350,-8087,-1297,0,3,1,0
23828,1355,-8088,-1302,0,4,0,0
23833,1365,-8088,-1318,0,5,0,0
23838,1376,-8093,-1332,0,5,0,0
23843,1390,-8095,-1345,0,4,0,0
23848,1404,-8100,-1353,0,3,0,0
23853,1418,-8105,-1349,0,2,0,0
23858,1432,-8108,-1343,0,0,0,0
23863,1435,-8118,-1342,0,-1,0,0
23868,1427,-8127,-1343,0,-2,0,0
23873,1414,-8134,-1341,0,-2,0,0
23878,1401,-8142,-1336,0,-2,0,0
23883,1391,-8148,-1329,0,-2,0,0
23888,1385,-8148,-1326,0,-2,0,0
23893,1386,-8141,-1321,0,-1,0,0
23898,1383,-8131,-1323,0,-1,0,0
23903,1374,-8122,-1330,0,-2,-1,0
23908,1365,-8115,-1337,0,-1,-1,0
23913,1357,-8113,-1341,0,-1,-1,0
23918,1357,-8114,-1343,0,0,-1,0
23923,1361,-8117,-1344,0,0,-1,0
23928,1363,-8122,-1350,0,0,-1,0
23933,1363,-8125,-1363,1,0,-1,0
23938,1368,-8132,-1373,1,-1,-1,0
23943,1373,-8140,-1369,1,-1,-1,0
23949,1372,-8142,-1354,0,-1,-1,0
23954,1373,-8140,-1329,1,-1,-1,0
23960,1372,-8138,-1311,1,-1,-1,0
23965,1370,-8136,-1300,0,-1,-1,0
23970,1371,-8125,-1293,0,0,-1,0
23975,1372,-8109,-1280,0,0,-1,0
23980,1371,-8088,-1264,0,0,-1,0
23986,1365,-8064,-1240,0,0,-1,0
23992,1354,-8044,-1218,0,0,-1,0
23997,1341,-8030,-1202,0,0,-1,0
24002,1336,-8018,-1195,0,1,-1,0
24008,1334,-8012,-1192,0,1,-1,0
24014,1332,-8004,-1185,0,1,-1,0
24019,1330,-7999,-1174,0,1,-1,0
24025,1328,-7993,-1153,0,1,-1,0
24030,1321,-7992,-1139,-1,2,-1,0
24036,1311,-7995,-1133,-1,3,-1,0
24042,1306,-8000,-1135,-1,4,-1,0
24048,1308,-8006,-1137,-1,5,-1,0
24054,1313,-8006,-1140,-1,5,-1,0
24060,1320,-8003,-1143,-1,6,-1,0
24066,1326,-7996,-1151,-1,6,-1,0
24072,1329,-7992,-1158,-1,5,-1,0
24078,1331,-7992,-1174,-1,5,-1,0
24083,1338,-7999,-1190,-1,5,-1,0
24089,1346,-8006,-1206,-1,4,-1,0
24095,1353,-8013,-1214,-1,2,-1,0
24101,1356,-8018,-1224,-1,1,-1,0
24107,1355,-8020,-1230,-1,1,-1,0
24113,1354,-8025,-1237,-1,0,-1,0
24118,1352,-8028,-1240,-1,0,-1,0
24124,1348,-8031,-1239,0,-1,-1,0
24130,1343,-8035,-1237,0,-1,-1,0
24135,1341,-8039,-1234,0,-1,-1,0
24140,1336,-8049,-1230,0,-1,-1,0
24145,1327,-8055,-1225,0,0,-1,0
24150,1317,-8059,-1226,-1,0,-1,0
24154,1305,-8062,-1222,-1,1,-1,0
24160,1296,-8067,-1214,-1,1,-1,0
24165,1293,-8071,-1207,-1,2,-1,0
24170,1293,-8075,-1202,-1,2,-1,0
24175,1296,-8085,-1202,-1,3,-1,0
24180,1299,-8105,-1206,-1,3,-1,0
24185,1302,-8126,-1219,-1,3,-1,0
24190,1304,-8146,-1231,-1,2,-1,0
24195,1303,-8166,-1239,-1,1,-1,0
24200,1304,-8186,-1247,-1,1,-1,0
24204,1307,-8202,-1250,-1,0,-1,0
24209,1304,-8215,-1247,-1,0,-1,0
24214,1302,-8230,-1246,-1,1,-1,0
24218,1297,-8239,-1244,-1,1,-1,0
24223,1288,-8242,-1241,-1,1,-1,0
24227,1280,-8242,-1238,-1,1,0,0
24233,1282,-8240,-1229,-1,1,0,0
24238,1289,-8238,-1222,-1,1,0,0
24242,1294,-8233,-1215,-1,1,0,0
24247,1296,-8231,-1208,-1,1,0,0
24251,1294,-8236,-1205,-1,1,0,0
24256,1292,-8243,-1203,-1,1,0,0
24260,1291,-8248,-1196,-1,1,0,0
24265,1292,-8250,-1185,-1,1,0,0
24269,1300,-8253,-1177,-1,1,0,0
24274,1309,-8254,-1165,-1,2,0,0
24279,1311,-8253,-1158,-1,1,0,0
24283,1303,-8250,-1157,-1,1,0,0
24287,1296,-8243,-1157,-1,1,0,0
24292,1293,-8231,-1155,-2,1,1,0
24296,1301,-8214,-1152,-2,1,1,0
24301,1313,-8192,-1154,-2,0,1,0
24306,1318,-8170,-1160,-2,-1,1,0
24311,1319,-8146,-1167,-2,-1,1,0
24316,1312,-8124,-1174,-2,-2,1,0
24320,1303,-8107,-1171,-2,-2,1,0
24325,1301,-8090,-1163,-2,-2,1,0
24330,1304,-8076,-1158,-2,-2,1,0
24335,1308,-8066,-1153,-2,-2,1,0
24340,1305,-8056,-1141,-2,-1,1,0
24345,1292,-8050,-1125,-2,-1,1,0
24350,1275,-8041,-1108,-2,0,1,0
24354,1261,-8033,-1093,-2,0,2,0
24359,1255,-8028,-1082,-2,0,2,0
24364,1256,-8016,-1075,-2,0,2,0
24368,1258,-8006,-1077,-2,0,2,0
24373,1258,-7997,-1080,-2,1,2,0
24378,1259,-7993,-1075,-2,1,2,0
24382,1258,-7989,-1082,-2,0,2,0
24387,1259,-7984,-1097,-2,-2,2,0
24392,1269,-7978,-1115,-2,-3,2,0
24397,1282,-7975,-1134,-2,-4,2,0
24401,1289,-7974,-1147,-2,-5,2,0
24406,1288,-7973,-1154,-2,-5,2,0
24411,1275,-7975,-1151,-2,-6,2,0
24416,1264,-7980,-1146,-2,-5,2,0
24420,1253,-7987,-1141,-2,-4,2,0
24426,1248,-7995,-1144,-2,-3,2,0
24430,1245,-8008,-1149,-2,-2,2,0
24435,1244,-8022,-1154,-2,-2,2,0
24439,1243,-8038,-1155,-2,-1,2,0
24444,1239,-8055,-1156,-2,-1,2,0
24449,1239,-8076,-1162,-2,0,2,0
24453,1244,-8094,-1174,-2,1,2,0
24458,1257,-8110,-1189,-2,1,1,0
24462,1274,-8128,-1203,-2,1,2,0
24467,1292,-8146,-1213,-2,1,1,0
24471,1304,-8167,-1221,-2,1,1,0
24475,1314,-8182,-1219,-2,1,1,0
24479,1323,-8195,-1217,-2,0,1,0
24483,1331,-8204,-1210,-2,0,1,0
24487,1344,-8208,-1202,-2,-1,1,0
24492,1358,-8209,-1187,-2,-1,1,0
24497,1368,-8206,-1164,-2,-2,1,0
24502,1372,-8203,-1144,-2,-2,1,0
24507,1364,-8201,-1121,-2,-2,1,0
24512,1352,-8198,-1106,-2,-3,1,0
24517,1341,-8193,-1092,-2,-3,1,0
24522,1330,-8188,-1078,-2,-3,1,0
24527,1320,-8180,-1064,-2,-3,1,0
24532,1310,-8175,-1056,-2,-3,1,0
24537,1299,-8172,-1048,-2,-2,1,0
24542,1280,-8168,-1042,-2,-2,1,0
24547,1263,-8165,-1039,-2,-1,1,0
24552,1256,-8161,-1035,-2,0,1,0
24557,1263,-8158,-1028,-2,1,1,0
24562,1276,-8154,-1025,-2,0,1,0
24567,1292,-8148,-1031,-2,-1,1,0
24572,1306,-8139,-1034,-2,-2,1,0
24577,1311,-8129,-1036,-2,-3,1,0
24582,1303,-8123,-1037,-2,-3,0,0
24587,1292,-8115,-1036,-2,-4,0,0
24592,1285,-8104,-1038,-2,-4,0,0
24597,1284,-8094,-1042,-2,-5,0,0
24601,1287,-8087,-1051,-2,-5,0,0
24607,1292,-8083,-1065,-2,-5,0,0
24611,1282,-8083,-1082,-2,-5,0,0
24616,1266,-8090,-1097,-2,-5,0,0
24621,1253,-8097,-1108,-2,-5,0,0
24626,1247,-8105,-1117,-2,-4,0,0
24631,1252,-8117,-1125,-2,-3,0,0
24636,1262,-8129,-1134,-1,-2,0,0
24641,1278,-8139,-1142,-1,-2,0,0
24646,1292,-8152,-1146,-1,-2,0,0
24651,1304,-8168,-1136,-1,-2,0,0
24656,1315,-8181,-1120,-1,-2,0,0
24661,1331,-8191,-1106,-1,-3,0,0
24666,1349,-8196,-1089,-1,-3,0,0
24671,1363,-8197,-1070,-1,-4,0,0
24676,1366,-8193,-1049,-1,-4,0,0
24681,1356,-8188,-1029,-1,-4,0,0
24686,1343,-8182,-1014,-1,-3,0,0
24692,1327,-8175,-1001,-1,-3,0,0
24698,1314,-8166,-998,-1,-2,0,0
24702,1307,-8156,-1003,-1,-1,0,0
24708,1306,-8146,-1017,-1,0,0,0
24713,1298,-8134,-1025,-1,0,0,0
24718,1283,-8117,-1033,-1,0,0,0
24722,1264,-8098,-1032,-1,1,0,0
24727,1240,-8080,-1022,-1,2,-1,0
24732,1224,-8059,-1020,-1,3,-1,0
24738,1220,-8035,-1024,-1,4,-1,0
24743,1224,-8009,-1040,-1,4,-1,0
24748,1231,-7985,-1056,0,3,-1,0
24752,1237,-7960,-1067,0,2,-1,0
24757,1241,-7936,-1073,0,1,-1,0
24762,1240,-7913,-1083,0,0,-1,0
24766,1234,-7891,-1085,0,-1,-1,0
24771,1230,-7869,-1087,0,-2,-1,0
24777,1226,-7851,-1092,0,-2,-1,0
24781,1226,-7836,-1095,0,-2,-2,0
24787,1225,-7825,-1093,0,-2,-2,0
24792,1223,-7822,-1091,0,-2,-2,0
24797,1226,-7822,-1092,0,-1,-2,0
24801,1235,-7823,-1092,0,-1,-2,0
24806,1253,-7831,-1091,0,-2,-2,0
24811,1269,-7841,-1086,0,-2,-2,0
24817,1286,-7854,-1076,0,-2,-2,1
24821,1297,-7871,-1061,0,-3,-2,1
24827,1300,-7892,-1047,0,-3,-2,1
24832,1302,-7915,-1035,0,-3,-2,1
24837,1300,-7934,-1030,0,-3,-3,1
24841,1297,-7955,-1025,0,-2,-3,1
24847,1296,-7976,-1013,0,-2,-3,1
24853,1294,-7998,-1003,0,-1,-3,1
24859,1293,-8023,-996,0,-1,-3,1
24863,1291,-8044,-996,0,-1,-3,1
24869,1292,-8061,-1000,0,-1,-3,1
24874,1296,-8078,-1002,0,-1,-3,1
24880,1297,-8092,-1012,-1,-1,-3,1
24886,1289,-8105,-1014,-1,-1,-3,1
24892,1280,-8119,-1016,-1,-1,-3,1
24898,1270,-8130,-1023,-1,-1,-3,1
24904,1260,-8140,-1024,-1,-1,-3,1
24910,1261,-8143,-1027,-1,0,-3,1
24916,1266,-8145,-1030,-1,0,-3,1
24921,1271,-8142,-1039,-1,0,-3,1
24925,1271,-8139,-1053,-1,0,-3,1
24931,1269,-8139,-1067,-1,-1,-3,1
24936,1262,-8139,-1082,-1,-1,-3,1
24941,1258,-8135,-1091,-1,-1,-3,1
24945,1255,-8133,-1090,-1,-1,-3,1
24949,1257,-8132,-1082,-1,-1,-3,1
24953,1254,-8130,-1080,-1,-2,-3,1
24958,1252,-8132,-1083,-1,-2,-3,1
24962,1249,-8138,-1088,-1,-2,-3,1
24966,1249,-8148,-1093,-1,-2,-3,1
24971,1260,-8159,-1088,-1,-1,-3,1
24975,1276,-8171,-1082,-1,-2,-3,1
24979,1290,-8184,-1082,-1,-2,-3,1
24983,1300,-8196,-1085,-1,-2,-3,1
24987,1303,-8207,-1089,-1,-3,-2,1
24991,1301,-8215,-1089,-1,-3,-2,1
24996,1301,-8221,-1083,-1,-3,-2,1
25001,1303,-8227,-1062,-1,-4,-2,1
25006,1304,-8229,-1049,-1,-4,-2,1
25011,1300,-8230,-1048,-1,-4,-2,1
25016,1295,-8228,-1052,-1,-4,-2,1
25021,1291,-8222,-1053,-2,-4,-2,1
25026,1291,-8214,-1048,-2,-3,-2,1
25031,1295,-8201,-1034,-2,-3,-2,1
25036,1306,-8187,-1015,-2,-3,-2,1
25041,1315,-8176,-999,-2,-3,-2,1
25046,1318,-8172,-991,-2,-3,-2,1
25051,1319,-8168,-985,-2,-2,-1,1
25056,1313,-8165,-977,-2,-1,-1,1
25061,1308,-8158,-972,-2,-1,-1,1
25067,1304,-8148,-962,-3,0,-1,1
25071,1305,-8140,-959,-3,0,-1,1
25077,1303,-8134,-963,-3,0,-1,1
25081,1294,-8128,-969,-3,0,-1,1
25086,1279,-8122,-977,-3,0,-1,1
25092,1262,-8113,-980,-3,1,-1,1
25096,1248,-8103,-981,-3,1,-1,1
25101,1242,-8090,-991,-3,1,-1,1
25107,1245,-8077,-1009,-3,1,-1,1
25111,1249,-8069,-1031,-3,0,-1,1
25117,1253,-8062,-1052,-3,0,-1,1
25121,1257,-8058,-1069,-3,-1,-1,1
25127,1264,-8053,-1078,-3,-2,-1,1
25132,1265,-8047,-1080,-3,-3,0,1
25137,1260,-8040,-1085,-3,-4,0,1
25141,1259,-8038,-1086,-3,-4,0,1
25146,1252,-8040,-1092,-3,-4,0,1
25151,1246,-8051,-1097,-3,-4,0,1
25156,1240,-8061,-1098,-3,-4,0,1
25161,1237,-8068,-1096,-3,-4,0,1
25166,1236,-8074,-1091,-3,-4,0,1
25171,1238,-8076,-1079,-3,-4,0,1
25176,1238,-8081,-1065,-3,-4,0,1
25181,1240,-8082,-1047,-3,-4,0,1
25186,1243,-8081,-1034,-3,-3,0,1
25191,1252,-8079,-1023,-3,-3,0,1
25196,1264,-8076,-1020,-3,-3,0,1
25201,1277,-8067,-1020,-3,-3,0,1
25206,1286,-8060,-1014,-3,-3,0,1
25212,1285,-8059,-1006,-3,-3,0,1
25217,1278,-8060,-997,-3,-2,0,1
25222,1270,-8064,-992,-3,-1,0,1
25226,1264,-8060,-986,-3,-1,0,1
25231,1267,-8049,-984,-3,0,0,1
25236,1272,-8033,-991,-3,0,0,1
25241,1276,-8019,-1005,-3,0,0,1
25246,1276,-8001,-1018,-3,-1,0,1
25251,1277,-7982,-1028,-3,-1,0,1
25256,1282,-7967,-1038,-3,-1,0,1
25261,1292,-7954,-1054,-2,-1,1,1
25266,1311,-7943,-1071,-2,-1,1,1
25271,1328,-7931,-1092,-2,-2,1,1
25276,1341,-7923,-1111,-2,-2,1,1
25281,1348,-7917,-1117,-2,-2,1,1
25286,1350,-7914,-1107,-2,-1,1,1
25291,1349,-7916,-1085,-2,1,1,1
25296,1352,-7922,-1064,-2,3,1,1
25301,1361,-7934,-1045,-2,4,1,1
25306,1380,-7951,-1028,-2,6,1,1
25311,1405,-7972,-1024,-2,6,1,1
25316,1436,-7994,-1024,-2,6,1,1
25320,1457,-8015,-1019,-2,4,1,1
25326,1466,-8032,-1008,-2,3,1,1
25330,1465,-8046,-990,-2,3,1,1
25336,1459,-8057,-969,-2,3,1,1
25341,1455,-8070,-956,-2,4,2,1
25345,1457,-8082,-940,-2,4,2,1
25350,1459,-8099,-931,-2,5,2,1
25355,1452,-8112,-931,-2,5,2,1
25361,1435,-8126,-936,-2,5,2,1
25366,1414,-8141,-942,-2,4,2,1
25370,1390,-8158,-953,-2,3,2,1
25375,1373,-8180,-961,-2,2,2,1
25380,1364,-8208,-965,-2,1,2,1
25385,1356,-8239,-968,-1,1,2,1
25390,1348,-8266,-972,-1,1,2,1
25395,1332,-8292,-980,-1,1,2,1
25401,1308,-8317,-990,-1,1,3,1
25406,1287,-8337,-1002,-1,1,3,1
25411,1271,-8353,-1009,-1,1,3,1
25415,1263,-8365,-1014,-1,1,3,1
25420,1260,-8374,-1015,0,1,3,1
25425,1258,-8383,-1020,0,0,3,1
25430,1246,-8392,-1034,0,-1,3,1
25436,1228,-8402,-1046,0,-1,3,1
25440,1207,-8415,-1062,0,-2,3,1
25445,1192,-8422,-1066,0,-2,3,1
25450,1185,-8420,-1069,1,-2,3,1
25455,1189,-8414,-1071,1,-2,3,1
25461,1187,-8400,-1076,1,-2,3,1
25466,1177,-8383,-1079,1,-2,3,1
25471,1160,-8362,-1075,1,-2,3,1
25476,1140,-8339,-1062,2,-2,4,1
25480,1124,-8311,-1046,2,-2,4,1
25485,1123,-8281,-1039,2,-2,4,1
25490,1126,-8258,-1035,2,-2,4,1
25495,1134,-8236,-1031,2,-2,4,1
25501,1123,-8217,-1017,2,-3,4,1
25506,1101,-8205,-988,3,-4,4,1
25511,1078,-8205,-955,3,-4,4,1
25515,1065,-8214,-926,3,-3,4,1
25520,1066,-8229,-910,3,-2,4,1
25525,1083,-8248,-901,3,-1,4,1
25530,1108,-8262,-901,3,0,4,1
25536,1132,-8275,-901,3,0,5,1
25540,1154,-8283,-894,3,0,5,1
25545,1173,-8281,-887,3,0,5,1
25550,1193,-8271,-880,3,0,5,1
25555,1208,-8262,-881,3,-1,5,1
25560,1212,-8259,-880,3,-1,5,1
25565,1208,-8264,-869,3,-1,5,1
25570,1201,-8280,-851,3,-1,5,1
25575,1195,-8303,-827,3,-1,5,1
25580,1194,-8333,-800,3,-1,5,1
25585,1202,-8370,-775,3,0,5,1
25590,1220,-8415,-762,3,1,5,1
25595,1240,-8461,-754,3,2,5,1
25600,1263,-8503,-751,3,3,5,1
25605,1297,-8539,-743,3,5,5,1
25610,1340,-8558,-742,3,6,5,1
25615,1382,-8558,-747,3,7,5,1
25620,1416,-8544,-756,3,7,6,1
25625,1427,-8517,-768,2,7,6,1
25630,1409,-8479,-776,2,6,6,1
25635,1375,-8437,-781,2,6,6,1
25640,1338,-8398,-785,2,5,6,1
25645,1305,-8352,-789,2,4,6,1
25650,1274,-8301,-800,2,3,6,1
25655,1240,-8256,-818,2,2,5,1
25660,1198,-8223,-837,2,1,5,1
25665,1148,-8202,-850,2,0,5,1
25670,1092,-8183,-856,2,0,5,1
25675,1055,-8161,-856,2,0,5,1
25680,1040,-8127,-853,2,0,5,1
25685,1029,-8096,-863,3,0,5,1
25690,1011,-8065,-881,3,-1,4,1
25695,987,-8035,-903,3,-1,4,1
25700,947,-8005,-917,3,-2,4,1
25705,916,-7971,-914,3,-2,4,1
25710,891,-7930,-903,3,-2,4,1
25715,877,-7879,-896,3,-3,4,1
25720,862,-7827,-894,4,-3,4,1
25725,839,-7774,-898,4,-3,3,1
25730,808,-7724,-897,4,-3,3,1
25735,774,-7678,-886,4,-2,3,1
25740,746,-7636,-864,4,-1,3,1
25745,737,-7594,-838,4,1,3,1
25750,751,-7551,-819,4,2,3,1
25755,777,-7500,-815,4,2,2,1
25760,801,-7436,-815,4,3,2,1
25765,812,-7364,-803,4,2,2,1
25770,805,-7283,-772,4,2,2,1
25775,788,-7196,-733,4,2,2,1
25780,773,-7101,-685,4,3,2,1
25785,762,-6992,-650,5,4,1,1
25790,757,-6866,-623,5,6,1,1
25795,751,-6725,-601,4,7,1,1
25800,737,-6574,-571,4,8,1,1
25805,716,-6414,-540,4,10,1,1
25810,697,-6246,-510,4,10,0,1
25815,680,-6056,-493,4,9,0,1
25820,671,-5847,-502,4,7,0,1
25825,663,-5622,-518,4,7,0,1
25830,637,-5403,-524,4,6,-1,1
25835,591,-5194,-509,4,7,-1,1
25840,543,-4992,-476,4,7,-1,1
25845,506,-4796,-442,4,9,-1,1
25850,491,-4606,-421,4,10,-1,1
25855,491,-4428,-411,4,11,-2,1
25860,491,-4259,-405,4,11,-2,1
25865,466,-4104,-385,4,11,-2,1
25870,405,-3960,-345,3,11,-2,1
25875,319,-3827,-277,3,12,-3,1
25880,234,-3702,-197,3,14,-3,1
25885,156,-3595,-123,3,17,-3,1
25890,100,-3504,-60,2,20,-4,1
25895,64,-3435,4,2,23,-4,1
25900,44,-3395,72,1,26,-4,1
25905,38,-3398,138,0,28,-5,1
25909,69,-3463,185,0,29,-5,1
25914,140,-3595,197,-1,30,-5,1
25920,245,-3777,166,-1,31,-5,1
25925,373,-4001,103,-1,32,-5,1
25930,501,-4259,21,-2,35,-5,1
25935,621,-4543,-70,-2,38,-5,1
25940,736,-4838,-162,-2,42,-5,1
25946,1062,-6487,-1629,0,46,-2,1
25951,2194,-3221,-3322,-3,22,-2,1
25956,2086,-4740,-2291,0,36,-2,1
25961,3280,-5437,-2650,-1,42,1,1
25965,3031,-5840,-2498,4,56,14,1
25970,2898,-6099,-2010,4,51,13,1
25975,2720,-6388,-2013,3,57,9,1
25980,1921,-6642,-1997,2,41,6,1
25985,1796,-6684,-2058,1,-2,3,1
25990,1709,-6848,-1928,1,-22,2,1
25995,1848,-7029,-2047,0,-25,2,1
26000,2149,-7174,-1929,0,-17,0,1
26004,2304,-7301,-1674,0,-10,0,1
26010,2362,-7426,-1530,-1,-9,-1,1
26015,2242,-7530,-1274,-1,-3,-1,1
26020,2071,-7619,-1071,0,2,-1,1
26024,1866,-7692,-992,1,1,-1,1
26029,1599,-7755,-911,2,-5,0,1
26034,1468,-7819,-960,3,-11,0,1
26040,1450,-7870,-1090,3,-16,1,1
26044,1567,-7912,-1204,2,-20,1,1
26049,1769,-7947,-1302,2,-24,1,1
26054,1941,-7970,-1288,1,-28,0,1
26059,2032,-7991,-1132,1,-34,0,1
26064,2011,-8008,-926,1,-38,0,1
26069,1900,-8020,-707,2,-39,0,1
26074,1745,-8034,-541,3,-37,0,1
26079,1561,-8049,-418,3,-34,1,1
26084,1388,-8071,-391,4,-30,1,1
26089,1246,-8091,-410,3,-27,2,1
26094,1184,-8106,-444,3,-24,2,1
26100,1229,-8114,-466,2,-20,3,1
26104,1328,-8114,-428,1,-19,2,1
26109,1426,-8114,-332,1,-19,2,1
26115,1435,-8117,-199,1,-21,1,1
26120,1368,-8121,-56,1,-23,1,1
26124,1276,-8126,56,2,-22,1,1
26129,1178,-8133,129,2,-20,1,1
26134,1086,-8141,156,2,-17,2,1
26139,1012,-8148,144,1,-14,2,1
26144,943,-8151,141,1,-12,2,1
26149,903,-8156,151,0,-10,2,1
26154,907,-8160,187,0,-8,2,1
26159,950,-8161,244,0,-7,2,1
26164,992,-8159,309,0,-7,2,1
26169,980,-8156,354,0,-9,1,1
26174,913,-8160,379,0,-11,1,1
26179,814,-8165,372,0,-10,1,1
26184,737,-8172,340,-1,-8,1,1
26190,692,-8178,305,-1,-6,1,1
26195,670,-8183,269,-1,-5,1,1
26200,646,-8184,254,-2,-5,1,1
26204,617,-8182,264,-2,-6,1,1
26209,616,-8181,280,-2,-6,1,1
26214,643,-8176,293,-2,-4,1,1
26219,680,-8172,289,-2,-4,1,1
26224,708,-8173,264,-2,-4,1,1
26229,674,-8177,228,-2,-4,1,1
26234,619,-8178,173,-2,-3,1,1
26239,586,-8179,129,-3,-1,1,1
26244,571,-8178,108,-3,1,1,1
26250,585,-8178,89,-3,1,1,1
26255,603,-8178,88,-3,0,1,1
26259,595,-8180,92,-3,0,0,1
26264,583,-8181,92,-3,-1,0,1
26269,587,-8181,82,-3,-1,0,1
26275,604,-8183,55,-3,-1,0,1
26280,616,-8182,16,-3,-1,0,1
26284,611,-8181,-25,-3,-1,0,1
26289,588,-8178,-61,-3,0,0,1
26294,574,-8177,-93,-3,0,0,1
26299,593,-8172,-121,-3,1,0,1
26304,647,-8169,-150,-3,2,0,1
26309,711,-8168,-184,-3,2,0,1
26314,761,-8164,-222,-3,1,0,1
26319,783,-8162,-264,-3,-1,0,1
26324,797,-8160,-312,-3,-2,0,1
26329,815,-8161,-358,-3,-2,-1,1
26335,842,-8162,-400,-3,-3,-1,1
26340,859,-8161,-438,-3,-4,0,1
26345,849,-8161,-463,-3,-5,-1,1
26350,823,-8162,-474,-3,-5,-1,1
26355,818,-8164,-482,-3,-5,0,1
26360,839,-8167,-486,-3,-5,0,1
26365,876,-8165,-494,-3,-5,-1,1
26370,905,-8166,-501,-2,-6,-1,1
26375,907,-8170,-511,-2,-7,-1,1
26380,892,-8172,-519,-2,-7,-1,1
26385,894,-8170,-525,-2,-7,-1,1
26390,915,-8173,-526,-2,-6,-1,1
26395,941,-8172,-519,-2,-6,-1,1
26400,960,-8172,-507,-2,-6,-1,1
26405,948,-8165,-491,-2,-6,-1,1
26410,996,-8162,-489,-2,-6,-1,1
26415,980,-8160,-466,-2,-6,-1,1
26419,985,-8162,-463,-2,-7,-1,1
26425,993,-8164,-463,-2,-6,-1,1
26431,964,-8166,-457,-2,-6,-1,1
26436,951,-8169,-470,-2,-7,-1,1
26441,928,-8169,-462,-2,-6,0,1
26446,922,-8168,-453,-2,-6,0,1
26451,942,-8170,-443,-2,-6,0,1
26456,955,-8171,-420,-2,-5,0,1
26461,948,-8172,-401,-2,-6,-1,1
26466,913,-8170,-373,-2,-6,-1,1
26471,884,-8168,-357,-2,-6,-1,1
26476,872,-8168,-349,-2,-6,-1,1
26481,865,-8167,-345,-2,-6,-1,1
26486,868,-8168,-345,-2,-5,-1,1
26491,850,-8169,-345,-2,-5,-1,1
26496,827,-8170,-338,-2,-4,-1,1
26502,823,-8168,-330,-2,-3,-1,1
26507,837,-8166,-323,-2,-3,-1,1
26513,863,-8163,-328,-2,-3,-1,1
26518,872,-8162,-336,-2,-5,-1,1
26523,858,-8160,-355,-2,-6,-1,1
26528,838,-8161,-385,-2,-7,-1,1
26533,829,-8163,-408,-2,-7,-1,1
26538,837,-8165,-427,-2,-7,-1,1
26543,850,-8167,-435,-2,-7,-1,1
26548,851,-8169,-427,-2,-7,-1,1
26553,838,-8168,-409,-2,-7,-1,1
26559,829,-8168,-379,-2,-7,-1,1
26564,837,-8168,-356,-2,-7,-1,1
26569,860,-8168,-345,-2,-7,-1,1
26574,887,-8169,-346,-2,-6,-1,1
26579,899,-8169,-352,-2,-6,-1,1
26583,898,-8169,-359,-2,-7,-1,1
26589,904,-8172,-361,-2,-6,-1,1
26594,925,-8171,-352,-2,-6,-1,1
26599,960,-8167,-334,-2,-5,-1,1
26604,988,-8165,-303,-2,-5,-1,1
26609,994,-8166,-273,-2,-6,-1,1
26615,990,-8166,-258,-2,-6,-1,1
26620,996,-8164,-246,-2,-6,-1,1
26625,1013,-8165,-242,-2,-6,-1,1
26630,1038,-8166,-243,-2,-6,-1,1
26635,1054,-8165,-231,-2,-6,-1,1
26640,1052,-8168,-205,-2,-7,-1,1
26645,1040,-8171,-164,-2,-8,-1,1
26650,1034,-8176,-117,-2,-8,-1,1
26656,1038,-8177,-66,-2,-7,-1,1
26660,1046,-8175,-24,-2,-7,0,1
26665,1040,-8174,9,-3,-6,-1,1
26670,1018,-8175,35,-3,-6,0,1
26675,1005,-8175,48,-3,-5,0,1
26681,1015,-8176,58,-3,-4,0,1
26685,1042,-8176,68,-3,-3,0,1
26690,1068,-8174,80,-4,-3,0,1
26695,1072,-8173,88,-4,-3,0,1
26699,1059,-8172,95,-4,-3,0,1
26703,1048,-8171,98,-4,-3,0,1
26708,1042,-8172,95,-4,-2,0,1
26713,1042,-8173,85,-4,-2,0,1
26718,1039,-8174,69,-4,0,0,1
26722,1019,-8176,52,-4,0,0,1
26727,995,-8175,32,-4,2,0,1
26732,986,-8176,15,-5,3,0,1
26736,987,-8177,0,-5,5,0,1
26741,999,-8177,-21,-5,6,0,1
26746,1002,-8175,-45,-5,6,0,1
26752,985,-8174,-74,-5,6,0,1
26757,966,-8172,-106,-5,7,0,1
26762,954,-8170,-143,-5,7,0,1
26768,957,-8169,-183,-5,8,0,1
26774,964,-8168,-218,-5,8,0,1
26779,958,-8167,-246,-5,8,0,1
26785,934,-8169,-278,-5,7,0,1
26790,912,-8169,-311,-5,7,0,1
26796,900,-8168,-345,-5,6,0,1
26801,900,-8167,-389,-5,6,0,1
26807,903,-8164,-437,-5,5,0,1
26813,894,-8161,-484,-5,4,0,1
26818,877,-8161,-527,-4,3,0,1
26824,867,-8160,-562,-4,3,0,0
26829,875,-8159,-587,-4,4,0,0
26835,888,-8158,-597,-4,3,0,0
26840,888,-8162,-605,-4,3,0,0
26844,871,-8163,-608,-4,2,0,0
26849,845,-8161,-605,-4,2,0,0
26853,831,-8164,-608,-4,2,0,0
26858,836,-8163,-620,-4,2,0,0
26862,848,-8164,-633,-4,2,0,0
26867,853,-8164,-644,-4,2,0,0
26872,844,-8166,-650,-4,1,0,0
26876,829,-8167,-648,-4,0,0,0
26880,825,-8168,-641,-3,0,0,0
26884,830,-8169,-630,-3,0,0,0
26888,834,-8170,-615,-3,-1,0,0
26892,834,-8171,-606,-3,-2,-1,0
26896,824,-8170,-599,-3,-2,-1,0
26900,819,-8172,-597,-3,-3,-1,0
26904,825,-8172,-600,-3,-3,-1,0
26908,843,-8173,-601,-3,-3,-1,0
26913,857,-8172,-586,-3,-4,-1,0
26918,857,-8171,-568,-3,-4,-1,0
26923,846,-8171,-547,-3,-4,-1,0
26928,842,-8170,-520,-3,-4,-1,0
26933,855,-8170,-493,-3,-4,-1,0
26938,873,-8170,-465,-3,-4,-1,0
26943,893,-8168,-439,-3,-4,-1,0
26948,901,-8169,-423,-3,-3,-1,0
26953,900,-8168,-403,-3,-2,-1,0
26958,903,-8167,-389,-3,-2,-1,0
26963,912,-8166,-376,-3,-1,-1,0
26968,926,-8165,-362,-3,-1,-1,0
26973,933,-8167,-354,-3,0,-1,0
26978,924,-8168,-351,-3,-1,-1,0
26983,915,-8167,-357,-3,-1,-1,0
26988,917,-8168,-369,-3,-1,-1,0
26993,931,-8167,-387,-3,-1,-1,0
26998,946,-8169,-404,-3,-1,-1,0
27003,949,-8168,-418,-3,-1,-1,0
27008,939,-8167,-426,-3,-2,-1,0
27013,926,-8166,-427,-3,-2,-1,0
27018,925,-8166,-426,-3,-1,-1,0
27023,940,-8166,-424,-3,-2,-1,0
27028,957,-8167,-417,-3,-2,-1,0
27033,961,-8165,-419,-3,-2,-1,0
27038,956,-8164,-424,-3,-2,-1,0
27043,956,-8164,-432,-3,-1,-1,0
27048,969,-8165,-439,-3,-1,-1,0
27053,987,-8167,-447,-3,-1,-1,0
27058,1000,-8168,-449,-3,-1,-1,0
27063,997,-8169,-451,-3,-1,-1,0
27068,987,-8173,-450,-3,-1,-1,0
27073,980,-8173,-452,-3,-1,-1,0
27078,992,-8175,-457,-3,-1,0,0
27083,1013,-8176,-466,-3,0,0,0
27088,1027,-8174,-473,-3,-1,0,0
27093,1028,-8173,-479,-3,-1,0,0
27099,1018,-8174,-483,-3,-1,0,0
27104,1014,-8175,-483,-3,-1,0,0
27109,1015,-8176,-482,-3,-1,0,0
27115,1011,-8174,-474,-3,-1,0,0
27120,996,-8173,-469,-3,-1,0,0
27125,972,-8171,-463,-3,-1,0,0
27130,953,-8172,-463,-3,-1,0,0
27135,948,-8170,-462,-3,0,0,0
27141,962,-8170,-465,-3,0,0,0
27146,975,-8169,-476,-3,0,0,0
27151,974,-8169,-484,-3,0,0,0
27156,961,-8171,-490,-3,0,0,0
27161,944,-8168,-498,-3,0,0,0
27167,938,-8169,-512,-3,0,0,0
27171,938,-8164,-529,-3,0,0,0
27175,935,-8162,-548,-3,0,0,0
27179,922,-8162,-562,-3,0,0,0
27183,907,-8162,-578,-3,0,0,0
27188,908,-8164,-582,-3,0,0,0
27193,921,-8163,-588,-3,0,0,0
27198,940,-8159,-593,-3,-1,0,0
27203,951,-8157,-595,-3,-1,-1,0
27208,948,-8160,-593,-3,-2,-1,0
27213,937,-8161,-595,-3,-2,-1,0
27218,937,-8159,-595,-3,-2,0,0
27223,949,-8160,-595,-3,-2,0,0
27228,957,-8162,-594,-3,-2,0,0
27233,957,-8162,-589,-3,-3,0,0
27238,950,-8163,-584,-3,-3,-1,0
27243,940,-8163,-582,-3,-3,-1,0
27248,941,-8163,-583,-2,-3,0,0
27253,951,-8162,-585,-2,-3,-1,0
27258,955,-8160,-591,-2,-4,-1,0
27263,951,-8158,-601,-2,-4,-1,0
27268,943,-8158,-610,-2,-4,-1,0
27273,941,-8161,-615,-2,-4,0,0
27278,951,-8161,-611,-2,-4,0,0
27283,972,-8161,-608,-2,-5,0,0
27288,986,-8161,-598,-2,-5,0,0
27293,986,-8162,-585,-2,-5,0,0
27298,981,-8161,-572,-2,-5,0,0
27303,978,-8160,-558,-2,-5,0,0
27308,978,-8161,-546,-2,-4,0,0
27313,979,-8162,-536,-2,-4,0,0
27318,973,-8164,-530,-2,-3,0,0
27323,963,-8165,-524,-2,-3,0,0
27328,955,-8163,-522,-2,-3,0,0
27333,954,-8163,-525,-2,-2,0,0
27338,963,-8162,-528,-2,-2,0,0
27343,975,-8163,-532,-2,-1,0,0
27348,985,-8164,-538,-2,-1,0,0
27353,984,-8166,-543,-2,-1,0,0
27358,976,-8167,-548,-2,-2,0,0
27363,978,-8166,-552,-2,-2,0,0
27368,984,-8165,-557,-2,-2,0,0
27373,988,-8164,-561,-2,-2,0,0
27378,985,-8165,-563,-2,-2,0,0
27383,978,-8165,-566,-2,-2,0,0
27388,975,-8165,-561,-2,-2,0,0
27392,985,-8167,-553,-2,-1,0,0
27398,999,-8165,-543,-2,-1,0,0
27403,1008,-8165,-538,-2,-1,0,0
27408,1001,-8167,-532,-2,-2,0,0
27413,986,-8167,-529,-2,-1,0,0
27418,977,-8167,-525,-2,-1,0,0
27423,977,-8168,-524,-2,-1,0,0
27428,987,-8168,-520,-2,0,0,0
27433,992,-8167,-516,-2,-1,0,0
27437,990,-8167,-508,-2,-1,0,0
27442,986,-8164,-503,-2,-2,0,0
27447,986,-8163,-502,-2,-2,0,0
27452,994,-8162,-495,-2,-2,0,0
27457,989,-8164,-489,-2,-2,0,0
27463,975,-8167,-477,-2,-2,0,0
27467,955,-8168,-462,-2,-1,0,0
27472,940,-8168,-445,-2,-1,0,0
27478,940,-8166,-428,-2,-1,0,0
27483,949,-8166,-417,-2,-1,0,0
27488,954,-8166,-403,-2,-2,0,0
27493,954,-8171,-389,-2,-2,0,0
27498,944,-8171,-381,-2,-2,0,0
27503,931,-8169,-370,-2,-2,0,0
27508,925,-8171,-361,-2,-2,0,0
27513,928,-8175,-348,-2,-1,0,0
27518,926,-8175,-340,-2,-1,0,0
27523,914,-8174,-335,-2,-1,0,0
27528,904,-8177,-335,-3,-1,0,0
27533,904,-8177,-340,-3,-1,0,0
27537,910,-8174,-350,-3,-1,0,0
27542,913,-8174,-363,-3,-1,0,0
27548,905,-8173,-377,-3,-1,0,0
27553,889,-8173,-389,-3,-1,0,0
27557,877,-8171,-397,-3,-1,0,0
27562,874,-8167,-409,-3,-1,0,0
27567,878,-8166,-420,-3,-1,0,0
27572,888,-8164,-440,-3,-1,0,0
27577,894,-8165,-460,-3,-1,0,0
27582,892,-8168,-484,-3,-1,0,0
27587,883,-8167,-504,-3,-1,0,0
27592,876,-8165,-522,-3,-1,0,0
27598,878,-8164,-539,-3,0,0,0
27602,880,-8164,-546,-3,-1,0,0
27607,868,-8165,-555,-2,-2,0,0
27613,855,-8165,-566,-2,-2,0,0
27618,853,-8162,-584,-2,-2,0,0
27623,862,-8162,-604,-2,-3,0,0
27627,871,-8163,-620,-2,-3,0,0
27632,883,-8161,-635,-2,-4,-1,0
27637,881,-8162,-646,-2,-5,-1,0
27642,867,-8161,-649,-2,-6,-1,0
27648,862,-8160,-653,-2,-6,-1,0
27653,866,-8162,-642,-2,-7,-1,0
27657,873,-8163,-631,-2,-8,-1,0
27662,874,-8161,-621,-2,-8,-1,0
27667,866,-8163,-614,-2,-9,-1,0
27673,861,-8163,-610,-2,-8,-1,0
27678,861,-8166,-603,-2,-8,-1,0
27683,869,-8166,-595,-2,-7,-1,0
27688,876,-8164,-586,-2,-7,-1,0
27693,878,-8164,-576,-2,-6,-1,0
27698,880,-8165,-567,-2,-6,-1,0
27703,884,-8165,-559,-2,-6,-1,0
27708,892,-8164,-554,-2,-6,-1,0
27714,904,-8166,-551,-2,-5,-1,0
27719,917,-8164,-547,-2,-4,-1,0
27724,927,-8162,-541,-2,-4,-1,0
27729,931,-8163,-532,-2,-4,-1,0
27734,937,-8161,-526,-2,-4,-1,0
27740,952,-8162,-519,-2,-4,-1,0
27745,968,-8164,-506,-2,-4,-1,0
27751,969,-8166,-496,-2,-4,-1,0
27756,958,-8166,-483,-2,-4,-1,0
27761,940,-8166,-472,-2,-4,-1,0
27766,936,-8168,-462,-2,-3,-1,0
27771,947,-8167,-448,-2,-2,-1,0
27777,960,-8167,-446,-2,-3,0,0
27782,971,-8167,-442,-2,-3,-1,0
27787,977,-8168,-442,-2,-3,-1,0
27793,980,-8170,-448,-2,-3,-1,0
27799,984,-8170,-445,-2,-3,-1,0
27804,991,-8168,-441,-2,-3,-1,0
27809,990,-8167,-439,-2,-2,-1,0
27815,987,-8168,-432,-2,-3,0,0
27819,977,-8166,-434,-2,-3,0,0
27823,967,-8167,-441,-2,-4,0,0
27828,965,-8168,-449,-2,-4,0,0
27833,970,-8166,-462,-2,-4,0,0
27838,974,-8166,-474,-2,-4,0,0
27843,969,-8167,-480,-2,-5,0,0
27848,949,-8168,-481,-2,-4,0,0
27853,931,-8168,-474,-2,-3,0,0
27858,923,-8169,-462,-2,-2,0,0
27863,921,-8169,-456,-2,-1,0,0
27868,919,-8168,-453,-2,-1,0,0
27872,915,-8167,-459,-2,-1,0,0
27877,916,-8170,-476,-2,-1,0,0
27882,922,-8174,-490,-2,-1,0,0
27887,935,-8171,-499,-2,-1,0,0
27892,949,-8168,-499,-2,0,0,0
27897,960,-8166,-497,-2,0,0,0
27901,961,-8164,-492,-2,0,0,0
27905,956,-8163,-484,-2,-1,0,0
27911,957,-8162,-480,-2,-1,0,0
27916,962,-8161,-481,-2,-1,0,0
27922,966,-8162,-487,-2,0,0,0
27926,964,-8161,-496,-2,-1,0,0
27932,957,-8161,-499,-2,-1,0,0
27937,946,-8162,-499,-2,-1,0,0
27942,942,-8159,-496,-2,-1,0,0
27947,941,-8158,-488,-2,-1,0,0
27952,931,-8158,-476,-2,-2,0,0
27957,911,-8160,-466,-2,-2,0,0
27962,889,-8161,-459,-2,-1,0,0
27967,876,-8163,-456,-2,-1,0,0
27972,874,-8164,-458,-2,0,0,0
27977,878,-8165,-461,-2,0,0,0
27981,881,-8164,-461,-2,1,0,0
27986,883,-8162,-459,-2,1,0,0
27991,882,-8162,-454,-2,1,0,0
27996,880,-8161,-452,-2,1,0,0
28001,885,-8164,-455,-2,1,-1,0
28005,888,-8163,-461,-2,1,-1,0
28010,882,-8159,-469,-2,1,-1,0
28015,874,-8159,-483,-2,1,-1,0
28019,867,-8159,-494,-2,1,-1,0
28025,867,-8159,-503,-2,1,0,0
28029,873,-8158,-507,-2,1,-1,0
28034,887,-8158,-512,-2,2,-1,0
28040,900,-8159,-512,-2,2,-1,0
28046,909,-8159,-512,-2,1,-1,0
28052,916,-8158,-525,-2,0,-1,0
28057,928,-8157,-544,-2,0,-1,0
28063,946,-8157,-566,-2,0,-1,0
28069,959,-8156,-584,-2,-1,-1,0
28074,960,-8156,-595,-2,-2,-1,0
28078,958,-8160,-602,-2,-2,-1,0
28082,956,-8162,-600,-2,-2,-1,0
28086,960,-8166,-590,-2,-2,-1,0
28091,969,-8166,-575,-2,-2,-1,0
28095,975,-8166,-562,-2,-3,-1,0
28099,973,-8164,-552,-2,-3,-1,0
28103,971,-8165,-545,-2,-3,-1,0
28108,967,-8166,-542,-2,-3,-1,0
28112,970,-8167,-540,-2,-3,-1,0
28116,970,-8169,-530,-2,-3,-1,0
28121,968,-8172,-520,-2,-3,-1,0
28126,959,-8173,-502,-2,-3,-1,0
28131,953,-8170,-483,-2,-3,-1,0
28136,953,-8171,-465,-2,-3,-1,0
