millis,ax,ay,az,gx,gy,gz,label
27728,490,-8288,120,-1,-1,-2,0
27733,490,-8288,122,-1,-1,-2,0
27738,492,-8289,126,-1,-1,-2,0
27743,497,-8289,140,0,-1,-2,0
27748,503,-8287,164,0,-2,-2,0
27753,511,-8286,191,0,-2,-2,0
27758,512,-8285,222,0,-2,-2,0
27763,510,-8283,256,-1,-2,-2,0
27768,509,-8282,293,-1,-2,-2,0
27773,511,-8283,326,-1,-2,-2,0
27778,518,-8285,349,-1,-2,-2,0
27783,526,-8284,367,-1,-1,-2,0
27788,531,-8284,383,-1,-1,-2,0
27793,533,-8286,392,-2,-2,-2,0
27798,532,-8286,394,-2,-2,-2,0
27803,533,-8287,384,-2,-1,-2,0
27808,529,-8287,368,-2,-1,-2,0
27813,526,-8288,345,-2,-1,-2,0
27818,521,-8289,311,-2,0,-2,0
27823,510,-8290,275,-2,0,-2,0
27828,501,-8290,240,-2,1,-2,0
27833,500,-8288,209,-2,1,-2,0
27838,498,-8287,176,-1,2,-2,0
27843,500,-8288,152,-1,3,-2,0
27848,513,-8288,130,-1,2,-2,0
27853,527,-8290,115,-1,1,-2,0
27858,545,-8292,111,-1,0,-2,0
27863,561,-8293,114,-1,-1,-2,0
27868,573,-8291,116,-1,-2,-2,0
27873,585,-8290,129,-1,-3,-2,0
27878,599,-8289,145,-1,-3,-2,0
27883,609,-8285,162,-1,-3,-2,0
27888,618,-8287,182,-1,-2,-2,0
27893,626,-8289,204,-1,-2,-2,0
27898,636,-8289,220,-1,-2,-2,0
27903,643,-8290,237,-1,-2,-2,0
27908,643,-8290,249,-1,-2,-1,0
27913,642,-8290,253,-1,-2,-1,0
27918,640,-8287,252,-2,-1,-1,0
27923,639,-8287,252,-2,-1,-1,0
27928,639,-8288,246,-2,-1,-1,0
27933,636,-8288,234,-2,-1,-1,0
27938,630,-8289,222,-1,-1,-1,0
27943,623,-8290,209,-1,-2,-1,0
27948,614,-8289,194,-1,-2,-1,0
27953,604,-8290,184,-1,-2,-1,0
27958,598,-8290,177,-1,-2,-1,0
27963,593,-8293,179,-1,-2,-1,0
27968,584,-8291,181,-1,-2,-1,0
27973,577,-8287,179,-1,-3,-1,0
27978,573,-8286,189,-1,-3,-1,0
27983,565,-8283,204,-1,-2,-1,0
27988,558,-8283,220,-1,-2,-1,0
27993,553,-8282,238,-1,-2,-1,0
27998,545,-8282,264,-1,-2,-1,0
28003,539,-8280,284,-1,-2,-1,0
28008,535,-8279,308,-1,-2,-1,0
28013,532,-8281,323,-1,-3,-1,0
28018,526,-8280,340,-1,-3,-1,0
28023,518,-8277,353,-2,-2,-1,0
28028,512,-8280,365,-2,-2,-1,0
28033,505,-8281,368,-2,-2,-1,0
28038,497,-8279,368,-2,-2,-1,0
28043,490,-8278,368,-2,-2,-1,0
28048,484,-8278,360,-2,-2,-1,0
28053,475,-8279,348,-2,-2,-1,0
28058,466,-8277,376,-2,-2,-2,0
28063,442,-8278,354,-2,-1,-2,0
28068,458,-8276,373,-2,-1,-2,0
28073,488,-8276,393,-2,-3,-2,0
28078,473,-8278,364,-3,-5,-1,0
28083,459,-8278,358,-2,-4,-1,0
28088,430,-8285,309,-2,-3,-1,0
28093,396,-8284,279,-2,-1,-2,0
28098,395,-8286,228,-2,0,-2,0
28103,345,-8291,171,-2,2,-2,0
28108,332,-8289,143,-2,3,-2,0
28113,316,-8288,114,-2,3,-2,0
28118,312,-8288,101,-2,3,-2,0
28123,346,-8291,86,-2,0,-2,0
28128,347,-8291,101,-2,-3,-2,0
28133,338,-8289,96,-2,-4,-2,0
28138,317,-8287,125,-2,-2,-3,0
28143,325,-8288,96,-2,0,-3,0
28148,323,-8288,82,-2,0,-3,0
28153,308,-8291,60,-2,1,-3,0
28158,295,-8295,32,-2,2,-3,0
28163,289,-8290,48,-2,4,-3,0
28168,325,-8290,26,-2,3,-3,0
28173,341,-8286,45,-2,1,-3,0
28178,353,-8285,50,-2,0,-3,0
28183,352,-8289,44,-1,1,-3,0
28188,350,-8289,48,-1,2,-3,0
28193,361,-8290,22,-1,2,-3,0
28198,356,-8287,23,-1,3,-3,0
28203,366,-8289,9,-2,7,-3,0
28208,390,-8291,6,-2,22,-3,0
28213,455,-8288,25,-2,46,-2,0
28218,571,-8287,26,-2,64,-1,0
28223,683,-8283,54,-2,70,-1,0
28228,760,-8283,61,-2,66,-2,0
28233,855,-8280,74,-1,54,-3,0
28238,912,-8278,91,-1,38,-3,0
28243,967,-8280,89,-1,18,-4,0
28248,987,-8279,99,-1,-3,-3,0
28253,960,-8281,82,-1,-18,-2,0
28258,916,-8282,83,-1,-24,-2,0
28263,850,-8283,85,0,-22,-1,0
28268,793,-8286,74,0,-15,-1,0
28273,738,-8284,86,0,-7,-1,0
28278,709,-8285,95,0,0,-1,0
28283,717,-8286,132,0,4,-2,0
28288,738,-8285,172,-1,5,-2,0
28293,775,-8280,203,-1,4,-1,0
28298,819,-8279,238,-1,2,-1,0
28303,849,-8278,251,-1,-2,-1,0
28308,850,-8278,262,-1,-5,0,0
28313,820,-8280,260,-1,-7,0,0
28318,777,-8280,263,0,-9,-1,0
28323,716,-8281,276,0,-10,-1,0
28328,668,-8284,300,-1,-12,-1,0
28333,630,-8286,336,-1,-15,-1,0
28338,591,-8285,375,-1,-19,-1,0
28343,549,-8282,412,-1,-23,-1,0
28348,508,-8282,437,-2,-25,-1,0
28353,475,-8281,438,-2,-27,-1,0
28358,450,-8286,407,-2,-28,-1,0
28363,418,-8290,346,-2,-29,-1,0
28368,385,-8293,284,-2,-29,-1,0
28373,347,-8293,213,-2,-27,-1,0
28378,311,-8291,151,-1,-23,-2,0
28383,272,-8290,114,-1,-18,-2,0
28388,241,-8293,83,-1,-11,-2,0
28393,230,-8294,88,-1,-5,-2,0
28398,243,-8293,114,-2,1,-2,0
28403,277,-8291,155,-2,4,-2,0
28408,304,-8289,185,-2,5,-2,0
28413,347,-8289,199,-2,5,-2,0
28418,383,-8290,198,-2,3,-2,0
28423,398,-8291,181,-2,1,-2,0
28428,412,-8293,162,-2,0,-2,0
28433,411,-8292,143,-2,-1,-3,0
28438,412,-8294,123,-2,-1,-3,0
28443,419,-8294,122,-2,0,-3,0
28448,423,-8295,122,-2,1,-3,0
28453,426,-8294,115,-2,2,-3,0
28458,434,-8298,113,-1,4,-3,0
28463,469,-8297,179,-2,5,-3,0
28468,496,-8291,261,-2,4,-2,0
28473,525,-8290,313,-2,4,-2,0
28478,564,-8282,367,-2,4,-2,0
28483,585,-8279,361,-2,4,-2,0
28488,605,-8275,347,-2,3,-3,0
28493,616,-8273,332,-2,1,-3,0
28498,613,-8272,298,-2,-2,-3,0
28503,608,-8272,274,-2,-5,-3,0
28508,578,-8275,230,-2,-6,-3,0
28513,550,-8279,209,-2,-6,-3,0
28518,521,-8282,184,-2,-6,-3,0
28523,491,-8286,154,-2,-4,-3,0
28528,469,-8287,140,-2,-3,-3,0
28533,443,-8289,119,-2,-2,-3,0
28538,434,-8292,119,-2,-2,-3,0
28543,433,-8294,119,-2,-1,-3,0
28548,428,-8295,110,-2,0,-3,0
28553,423,-8284,84,-2,1,-3,0
28558,418,-8290,15,-2,2,-3,0
28563,437,-8293,32,-2,2,-3,0
28568,448,-8291,78,-2,4,-3,0
28573,425,-8286,84,-2,8,-3,0
28578,405,-8288,65,-2,13,-3,0
28583,410,-8289,56,-2,18,-3,0
28588,424,-8287,42,-2,21,-4,0
28593,451,-8289,27,-2,22,-4,0
28598,479,-8290,18,-2,21,-4,0
28603,501,-8289,6,-2,18,-4,0
28608,523,-8288,-7,-2,15,-4,0
28613,529,-8287,-9,-2,13,-4,0
28618,528,-8289,-4,-1,10,-4,0
28623,519,-8291,0,-1,8,-4,0
28628,495,-8290,-1,-1,6,-4,0
28633,460,-8290,-9,-1,6,-4,0
28638,421,-8291,-18,-1,5,-4,0
28643,401,-8289,-32,0,4,-4,0
28648,386,-8293,-48,0,3,-4,0
28653,366,-8297,-53,0,3,-4,0
28658,345,-8298,-57,0,4,-4,0
28663,326,-8296,-69,0,7,-4,0
28668,315,-8296,-93,0,10,-4,0
28673,307,-8295,-126,0,12,-4,0
28678,311,-8297,-161,0,14,-4,0
28683,323,-8300,-199,0,15,-5,0
28688,337,-8302,-225,0,16,-5,0
28693,359,-8301,-241,0,17,-5,0
28698,394,-8303,-250,0,19,-5,0
28703,425,-8300,-239,0,21,-5,0
28708,442,-8302,-252,0,24,-5,0
28713,476,-8302,-224,0,27,-5,0
28718,511,-8301,-188,0,31,-5,0
28723,533,-8297,-181,0,35,-5,0
28728,559,-8298,-144,0,39,-5,0
28733,593,-8289,-46,0,44,-6,0
28738,618,-8278,-45,0,47,-6,0
28743,721,-8284,53,0,49,-6,0
28748,747,-8283,0,0,46,-5,0
28752,805,-8297,-13,0,37,-5,0
28758,803,-8326,-41,-1,27,-3,0
28763,771,-8295,-38,-2,17,-2,0
28768,724,-8276,-4,-2,10,-2,0
28773,688,-8297,38,-3,8,-1,0
28777,690,-8354,125,-3,8,-1,0
28783,596,-8321,23,-3,10,-1,0
28788,621,-8283,109,-3,10,-1,0
28793,546,-8263,31,-4,13,-1,0
28798,728,-8296,213,-3,11,-1,0
28803,740,-8317,136,-3,12,-1,0
28807,850,-8287,201,-3,8,-1,0
28813,806,-8279,104,-4,4,0,0
28818,778,-8302,100,-4,-3,1,0
28823,649,-8285,47,-5,-7,1,0
28828,547,-8260,97,-5,-8,2,0
28833,448,-8269,121,-5,-4,2,0
28838,448,-8263,162,-5,1,1,0
28843,396,-8300,93,-5,7,1,0
28847,512,-8311,161,-5,7,1,0
28853,517,-8311,119,-5,8,1,0
28858,616,-8322,152,-5,5,1,0
28863,623,-8339,162,-5,5,1,0
28868,648,-8326,155,-5,3,2,0
28873,625,-8332,163,-5,4,2,0
28878,654,-8304,176,-5,4,1,0
28883,645,-8277,198,-4,5,2,0
28887,642,-8326,179,-4,5,2,0
28893,656,-8339,220,-4,5,2,0
28897,669,-8382,247,-4,4,1,0
28902,641,-8379,255,-4,4,1,0
28907,638,-8359,256,-4,4,1,0
28913,607,-8343,242,-4,4,1,0
28918,619,-8335,279,-4,4,1,0
28922,569,-8287,219,-4,5,1,0
28928,588,-8257,226,-4,5,1,0
28932,572,-8283,212,-4,5,1,0
28937,527,-8265,174,-4,7,1,0
28942,497,-8239,134,-4,9,1,0
28948,541,-8262,152,-3,11,1,0
28953,520,-8278,107,-3,13,1,0
28958,527,-8239,89,-3,14,1,0
28963,502,-8249,72,-3,14,1,0
28967,523,-8304,82,-3,12,1,0
28973,483,-8319,70,-3,13,1,0
28977,519,-8301,84,-3,13,1,0
28983,566,-8288,92,-2,13,0,0
28987,624,-8248,69,-2,12,0,0
28993,666,-8264,68,-2,10,0,0
28998,614,-8257,10,-2,7,0,0
29003,602,-8199,32,-2,4,1,0
29007,516,-8228,8,-2,3,1,0
29012,496,-8230,15,-2,4,1,0
29017,412,-8235,-18,-2,9,0,0
29023,410,-8232,-24,-1,10,0,0
29027,424,-8259,-19,-1,13,0,0
29032,505,-8281,1,-1,13,0,0
29037,550,-8239,-14,-1,13,-1,0
29043,609,-8238,-18,-1,11,-1,0
29047,602,-8292,-21,-1,8,0,0
29053,543,-8298,-14,-1,5,0,0
29057,483,-8294,16,-1,4,0,0
29062,440,-8281,28,-1,5,0,0
29067,412,-8299,28,-1,6,0,0
29072,398,-8346,29,-1,7,0,0
29078,396,-8321,32,-1,6,0,0
29082,412,-8292,43,0,6,-1,0
29087,464,-8277,69,0,5,-1,0
29092,472,-8290,59,0,6,-1,0
29097,478,-8329,53,0,5,-1,0
29102,448,-8345,37,0,4,-2,0
29107,423,-8342,21,0,3,-2,0
29112,425,-8335,9,0,3,-2,0
29117,406,-8282,-15,0,5,-2,0
29122,432,-8297,-30,0,5,-2,0
29127,436,-8272,-56,0,5,-2,0
29132,458,-8267,-60,0,5,-2,0
29137,467,-8289,-77,0,4,-2,0
29142,474,-8288,-88,1,4,-2,0
29147,471,-8284,-118,1,5,-3,0
29152,521,-8307,-122,1,5,-3,0
29157,518,-8273,-147,1,6,-3,0
29162,572,-8295,-138,1,6,-3,0
29167,541,-8299,-178,1,6,-3,0
29172,548,-8297,-183,1,6,-3,0
29177,509,-8286,-218,1,6,-3,0
29182,522,-8289,-215,1,7,-3,0
29187,504,-8274,-270,1,9,-3,0
29192,491,-8243,-306,1,11,-3,0
29198,473,-8282,-336,1,11,-3,0
29203,483,-8266,-336,1,12,-3,0
29207,459,-8275,-355,1,13,-3,0
29212,491,-8323,-326,1,13,-3,0
29217,450,-8270,-359,1,14,-3,0
29223,517,-8289,-301,1,12,-3,0
29227,462,-8308,-333,1,13,-2,0
29233,482,-8285,-272,1,12,-2,0
29237,468,-8297,-273,1,13,-2,0
29242,493,-8313,-228,1,12,-2,0
29247,451,-8318,-249,1,13,-2,0
29252,477,-8315,-213,1,12,-2,0
29257,511,-8292,-197,1,12,-2,0
29262,512,-8258,-225,1,12,-2,0
29267,527,-8243,-231,1,11,-2,0
29272,477,-8276,-264,0,11,-1,0
29277,523,-8261,-169,0,9,-1,0
29282,465,-8257,-205,0,11,-1,0
29287,501,-8256,-149,0,11,-1,0
29292,463,-8249,-182,0,13,-1,0
29297,498,-8280,-139,0,11,0,0
29302,481,-8269,-116,-1,11,0,0
29307,520,-8284,-83,-1,12,0,0
29312,469,-8257,-101,-1,14,0,0
29317,578,-8288,4,-1,13,0,0
29322,519,-8279,-58,-1,13,0,0
29327,575,-8315,20,-1,11,0,0
29332,461,-8367,-79,-1,13,0,0
29337,530,-8236,75,-1,11,0,0
29342,472,-8293,29,-1,13,0,0
29347,419,-8243,-29,-1,13,0,0
29352,501,-8285,113,-1,13,0,0
29357,436,-8319,20,-2,12,0,0
29362,487,-8322,151,-1,11,0,0
29367,447,-8271,82,-2,13,0,0
29372,473,-8294,144,-1,13,0,0
29377,496,-8257,162,-1,12,0,0
29382,433,-8273,130,-1,12,0,0
29387,494,-8344,245,-1,10,0,0
29392,404,-8268,214,-2,11,0,0
29397,433,-8254,268,-1,10,-1,0
29402,421,-8358,268,-1,13,-1,0
29407,313,-8329,218,-1,12,-1,0
29412,488,-8301,389,-1,10,-2,0
29417,516,-8167,296,-1,14,-2,0
29422,724,-8090,372,0,14,-3,0
29427,721,-8061,169,-1,13,-2,0
29432,725,-8295,242,-1,3,-2,0
29437,523,-8217,137,-2,-4,-1,0
29442,397,-8236,276,-2,-5,-1,0
29447,288,-8363,221,-2,3,-2,0
29452,287,-8285,254,-1,12,-3,0
29457,331,-8290,140,-1,16,-3,0
29462,467,-8380,229,-1,16,-4,0
29467,484,-8320,127,-1,15,-4,0
29472,547,-8256,181,0,13,-4,0
29477,587,-8227,195,0,12,-4,0
29482,604,-8276,197,0,12,-5,0
29487,592,-8262,167,0,12,-5,0
29492,566,-8257,174,0,11,-5,0
29497,537,-8256,108,0,11,-5,0
29502,550,-8281,184,0,12,-5,0
29507,555,-8303,153,0,13,-5,0
29512,581,-8314,196,1,14,-6,0
29517,575,-8315,123,1,15,-6,0
29522,613,-8303,222,2,16,-6,0
29527,641,-8302,198,2,16,-6,0
29532,681,-8283,228,3,17,-6,0
29537,695,-8282,158,3,17,-6,0
29542,714,-8281,171,3,16,-6,0
29547,708,-8266,137,3,15,-6,0
29552,740,-8260,222,3,14,-6,0
29557,732,-8276,221,3,15,-6,0
29562,743,-8274,241,3,15,-6,0
29567,749,-8267,310,3,15,-6,0
29572,764,-8267,323,3,14,-6,0
29577,789,-8284,385,3,14,-6,0
29582,805,-8287,388,3,13,-6,0
29587,813,-8289,416,3,13,-5,0
29592,809,-8286,435,4,13,-5,0
29597,846,-8276,525,4,14,-5,0
29602,848,-8275,519,4,15,-5,0
29607,878,-8270,537,5,16,-5,0
29612,904,-8267,562,5,18,-5,0
29617,928,-8267,560,5,18,-5,0
29622,960,-8262,621,5,19,-5,0
29627,978,-8258,633,5,20,-5,0
29632,1007,-8255,642,5,22,-5,0
29637,1037,-8255,633,5,25,-5,0
29642,1060,-8260,577,5,28,-5,0
29647,1096,-8262,561,5,30,-4,0
29652,1118,-8261,522,5,31,-4,0
29657,1135,-8264,502,5,31,-4,0
29662,1116,-8266,520,4,32,-4,0
29667,1102,-8264,532,4,32,-4,0
29672,1127,-8266,587,4,31,-4,0
29677,1156,-8267,678,3,27,-4,0
29682,1183,-8266,778,2,19,-4,0
29687,1191,-8261,869,2,10,-3,0
29692,1154,-8259,908,2,5,-3,0
29697,1108,-8258,931,2,3,-3,0
29702,1048,-8256,951,2,5,-3,0
29707,992,-8258,959,1,9,-3,0
29712,954,-8257,959,1,13,-4,0
29717,935,-8258,964,1,15,-3,0
29722,939,-8257,935,1,17,-3,0
29727,977,-8258,876,1,16,-3,0
29732,1012,-8257,827,2,13,-2,0
29737,1034,-8254,744,2,10,-2,0
29742,1044,-8256,675,2,10,-2,0
29747,1057,-8260,626,2,11,-2,0
29752,1088,-8261,602,3,11,-2,0
29757,1140,-8261,607,3,9,-2,0
29762,1197,-8263,608,3,5,-2,0
29767,1260,-8258,616,3,1,-1,0
29772,1297,-8258,627,3,-2,0,0
29777,1325,-8257,625,3,-3,0,0
29782,1331,-8255,626,3,-5,0,0
29787,1328,-8258,622,3,-8,0,0
29792,1312,-8260,622,3,-14,0,0
29797,1274,-8260,642,3,-23,0,0
29802,1216,-8264,674,2,-35,0,0
29807,1110,-8267,723,2,-46,0,0
29812,972,-8268,774,1,-54,0,0
29817,810,-8269,826,0,-56,0,0
29822,622,-8269,878,0,-52,0,0
29827,434,-8268,915,-1,-41,-1,0
29832,266,-8268,924,-1,-26,-1,0
29837,139,-8267,916,-1,-8,-2,0
29842,76,-8267,896,-1,6,-2,0
29847,63,-8266,876,-1,15,-2,0
29852,74,-8268,859,-1,17,-2,0
29857,92,-8267,846,-1,16,-2,0
29862,109,-8263,837,-1,12,-3,0
29867,117,-8262,824,-1,8,-3,0
29872,113,-8262,806,-1,3,-3,0
29877,98,-8262,783,-1,0,-4,0
29882,64,-8264,760,-1,-3,-4,0
29887,22,-8267,729,-1,-3,-4,0
29892,-13,-8273,703,-1,-2,-5,0
29897,21,-8275,697,-1,-1,-5,0
29902,183,-8283,815,-2,1,-4,0
29907,483,-8283,976,-3,5,-2,0
29912,813,-8279,1116,-4,9,0,0
29917,904,-8263,1298,-5,14,1,0
29922,1154,-8255,1504,-6,14,0,0
29927,1643,-8241,1602,-7,25,0,0
29932,1991,-8269,1201,-6,44,2,0
29937,2350,-8292,1327,-5,48,1,0
29942,2506,-8290,1126,-5,32,2,0
29947,2709,-8299,1088,-5,-2,3,0
29952,2661,-8302,1018,-6,-34,6,0
29957,2583,-8294,1020,-6,-59,7,0
29962,2307,-8263,941,-6,-66,8,0
29967,2040,-8237,836,-6,-60,8,0
29972,1713,-8215,711,-5,-39,6,0
29977,1585,-8233,665,-5,-17,4,0
29982,1349,-8254,561,-5,3,3,0
29987,1241,-8254,508,-5,10,2,0
29992,1111,-8257,478,-5,13,2,0
29997,1020,-8256,482,-5,10,2,0
30002,871,-8254,434,-4,6,2,0
30007,715,-8256,365,-3,1,1,0
30012,567,-8260,317,-3,-5,1,0
30017,352,-8270,212,-3,-8,1,0
30022,200,-8275,170,-2,-12,0,0
30027,60,-8280,130,-3,-13,0,0
30032,-59,-8287,134,-3,-15,0,0
30037,-156,-8287,154,-3,-16,0,0
30042,-234,-8294,8,-3,-9,0,0
30047,-167,-8294,-83,-2,6,0,0
30052,-105,-8290,-51,-1,13,0,0
30057,-56,-8294,-41,-2,9,1,0
30062,24,-8291,-6,-2,4,0,0
30067,35,-8288,2,-2,2,-1,0
30072,56,-8284,33,-2,1,-1,0
30077,64,-8282,58,-3,-1,-2,0
30082,36,-8283,72,-3,-3,-2,0
30087,11,-8280,94,-2,-4,-2,0
30092,-29,-8280,62,-2,-4,-2,0
30097,-50,-8277,55,-2,-4,-2,0
30102,-77,-8278,46,-1,-4,-2,0
30107,-33,-8292,101,-1,-5,-2,0
30112,-8,-8288,281,-2,-6,-2,0
30117,-19,-8288,356,-3,-4,-2,0
30122,94,-8282,552,-4,-2,-2,0
30127,171,-8275,687,-4,0,-2,0
30132,267,-8271,762,-4,-1,-2,0
30137,349,-8263,837,-4,-2,-2,0
30142,381,-8269,773,-4,-4,-2,0
30147,446,-8266,738,-4,-5,-2,0
30152,486,-8267,655,-4,-6,-3,0
30157,559,-8269,586,-3,-9,-3,0
30162,624,-8269,551,-3,-16,-3,0
30167,693,-8278,474,-3,-28,-3,0
30172,796,-8280,505,-3,-45,-2,0
30177,863,-8285,447,-3,-63,-2,0
30182,956,-8286,421,-3,-83,-1,0
30187,989,-8279,441,-4,-101,0,0
30192,971,-8272,461,-4,-115,0,0
30197,834,-8268,477,-4,-124,1,0
30202,706,-8264,507,-4,-124,1,0
30207,662,-8258,578,-3,-118,0,0
30212,675,-8254,652,-3,-110,0,0
30217,710,-8259,661,-3,-105,-1,0
30222,746,-8259,680,-3,-107,-1,0
30227,742,-8263,699,-3,-112,0,0
30232,748,-8267,685,-3,-119,0,0
30237,730,-8273,642,-4,-125,0,0
30242,687,-8280,581,-4,-128,1,0
30247,636,-8284,539,-4,-129,1,0
30252,540,-8290,485,-4,-128,0,0
30257,447,-8286,483,-4,-126,0,0
30262,349,-8282,491,-4,-121,0,0
30267,239,-8277,481,-4,-115,0,0
30272,166,-8273,498,-4,-110,0,0
30277,114,-8278,473,-4,-105,0,0
30282,84,-8282,442,-4,-102,0,0
30287,72,-8280,363,-4,-99,0,0
30292,43,-8286,188,-4,-95,0,0
30297,32,-8288,49,-4,-87,0,0
30302,52,-8284,-84,-5,-77,-1,0
30307,80,-8283,-175,-5,-67,-1,0
30312,122,-8279,-207,-4,-58,-2,0
30317,185,-8281,-250,-4,-50,-2,0
30322,245,-8283,-286,-3,-44,-2,0
30327,313,-8285,-327,-3,-42,-2,0
30332,371,-8289,-392,-3,-41,-2,0
30337,409,-8291,-427,-3,-42,-2,0
30342,437,-8291,-452,-3,-43,-2,0
30347,445,-8294,-472,-3,-43,-2,0
30352,428,-8292,-450,-3,-42,-2,0
30357,398,-8293,-430,-2,-41,-3,0
30362,366,-8293,-403,-2,-40,-3,0
30367,324,-8293,-366,-2,-37,-3,0
30372,291,-8294,-348,-2,-35,-3,0
30377,270,-8297,-325,-2,-31,-3,0
30382,259,-8295,-295,-2,-28,-3,0
30387,271,-8290,-276,-2,-25,-3,0
30392,291,-8284,-257,-2,-21,-3,0
30397,305,-8258,-45,-1,-18,-4,0
30402,376,-8234,19,-1,-16,-4,0
30407,413,-8227,-27,0,-18,-4,0
30412,454,-8240,-134,-1,-21,-4,0
30417,490,-8257,-258,-2,-25,-3,0
30422,516,-8267,-310,-2,-26,-3,0
30427,510,-8268,-303,-2,-25,-4,0
30432,490,-8264,-274,-2,-24,-4,0
30437,475,-8259,-212,-1,-22,-4,0
30442,457,-8256,-169,-1,-21,-4,0
30447,482,-8260,-159,0,-22,-4,0
30452,512,-8271,-174,0,-24,-4,0
30457,550,-8279,-217,0,-27,-3,0
30462,608,-8282,-262,0,-31,-3,0
30467,658,-8283,-274,0,-34,-3,0
30472,701,-8285,-268,0,-36,-3,0
30477,742,-8286,-252,0,-38,-3,0
30482,775,-8284,-215,0,-40,-3,0
30487,810,-8284,-193,0,-41,-3,0
30492,841,-8282,-183,1,-43,-3,0
30497,865,-8282,-184,1,-44,-3,0
30502,888,-8283,-208,1,-44,-3,0
30507,909,-8283,-225,1,-44,-3,0
30512,913,-8285,-214,0,-43,-2,0
30517,908,-8288,-194,0,-42,-3,0
30522,892,-8287,-156,1,-42,-3,0
30527,865,-8286,-106,1,-43,-3,0
30532,838,-8289,-62,1,-44,-2,0
30537,813,-8289,-25,1,-43,-2,0
30542,787,-8288,-2,1,-40,-2,0
30547,778,-8289,2,1,-36,-2,0
30552,782,-8287,0,1,-29,-2,0
30557,787,-8282,-9,1,-22,-2,0
30562,803,-8283,-29,1,-14,-3,0
30567,818,-8284,-43,1,-8,-3,0
30572,838,-8282,-59,1,-3,-3,0
30577,872,-8285,-72,1,0,-3,0
30582,898,-8284,-68,1,1,-3,0
30587,926,-8284,-61,1,1,-3,0
30592,958,-8285,-37,1,2,-2,0
30597,982,-8284,2,1,3,-2,0
30602,1002,-8282,37,1,3,-2,0
30607,1019,-8278,83,1,4,-2,0
30612,1036,-8275,131,1,4,-2,0
30617,1049,-8275,166,1,4,-2,0
30622,1054,-8272,195,1,4,-2,0
30627,1051,-8272,228,1,4,-2,0
30632,1038,-8275,257,1,4,-2,0
30637,1027,-8275,287,1,3,-2,0
30642,1011,-8275,327,1,3,-1,0
30647,997,-8278,359,1,3,-1,0
30652,998,-8275,411,0,2,-1,0
30657,985,-8277,461,0,1,-1,0
30662,989,-8274,512,0,-1,-1,0
30667,985,-8273,583,0,-6,-1,0
30672,986,-8268,639,0,-11,-1,0
30677,999,-8264,703,0,-19,0,0
30682,987,-8263,712,0,-26,0,0
30687,987,-8261,677,0,-32,0,0
30692,996,-8266,620,0,-38,0,0
30697,982,-8270,535,0,-43,1,0
30702,956,-8272,469,0,-48,1,0
30707,895,-8274,414,-1,-49,1,0
30712,813,-8275,397,-1,-46,0,0
30717,727,-8276,405,-1,-40,0,0
30722,636,-8274,403,-1,-32,0,0
30727,548,-8273,392,-1,-23,0,0
30732,472,-8274,350,0,-15,-1,0
30737,425,-8281,290,0,-8,-1,0
30742,408,-8284,235,-1,-7,-1,0
30747,403,-8287,179,-1,-8,-1,0
30752,415,-8287,152,-1,-10,-1,0
30757,432,-8289,148,-1,-12,-1,0
30762,456,-8288,156,-1,-12,-1,0
30767,493,-8284,183,-1,-11,-1,0
30772,521,-8283,218,-1,-11,-1,0
30777,550,-8281,238,-1,-11,-1,0
30782,570,-8282,256,-1,-13,-1,0
30787,577,-8284,258,0,-15,-1,0
30792,582,-8283,249,-1,-18,-1,0
30797,573,-8284,243,-1,-21,-1,0
30802,558,-8281,227,-1,-21,-1,0
30807,551,-8282,202,-1,-20,-1,0
30812,551,-8283,172,0,-18,-1,0
30817,564,-8284,135,0,-17,-1,0
30822,587,-8284,109,0,-16,-1,0
30827,614,-8283,87,0,-15,-1,0
30832,647,-8282,71,0,-13,-1,0
30837,681,-8281,80,-1,-11,-1,0
30842,713,-8279,99,-1,-10,-1,0
30847,742,-8278,124,-1,-9,-1,0
30852,768,-8276,155,0,-10,-1,0
30857,779,-8276,180,0,-12,-1,0
30862,776,-8277,195,0,-14,-1,0
30867,759,-8275,190,0,-16,-1,0
30872,725,-8275,169,0,-19,-1,0
30877,676,-8276,136,0,-20,-1,0
30882,623,-8280,96,0,-20,-1,0
30887,562,-8282,67,0,-18,-1,0
30892,508,-8283,57,0,-15,-1,0
30897,455,-8285,57,0,-10,-1,0
30902,412,-8286,72,0,-5,-2,0
30907,393,-8285,102,0,-2,-2,0
30912,380,-8283,136,0,-1,-2,0
30917,368,-8282,163,0,-2,-2,0
30922,360,-8280,192,0,-2,-2,0
30927,362,-8278,221,0,-1,-2,0
30932,374,-8279,241,0,-1,-2,0
30937,389,-8280,261,0,-2,-2,0
30942,405,-8280,281,0,-3,-2,0
30947,417,-8282,304,0,-3,-2,0
30952,430,-8282,324,0,-4,-2,0
30957,437,-8283,341,0,-5,-2,0
30962,435,-8281,348,0,-6,-2,0
30967,437,-8282,344,0,-6,-2,0
30972,434,-8282,334,0,-7,-3,0
30977,434,-8281,326,0,-6,-2,0
30982,440,-8279,319,-1,-5,-2,0
30987,455,-8280,311,-1,-3,-3,0
30992,481,-8278,311,-1,-1,-3,0
30997,515,-8277,310,-1,-1,-3,0
31002,547,-8274,320,-1,-1,-3,0
31007,572,-8272,323,-1,-1,-3,0
31012,591,-8275,321,-1,-2,-3,0
31017,596,-8273,322,-1,-2,-3,0
31022,589,-8273,315,-1,-2,-3,0
31027,577,-8272,306,-1,-3,-3,0
31032,557,-8271,309,-1,-3,-3,0
31037,534,-8273,296,-1,-3,-3,0
31042,521,-8274,284,-1,-2,-3,0
31047,524,-8271,274,-1,-1,-3,0
31052,542,-8273,256,-1,-1,-3,0
31057,566,-8272,240,-1,-1,-3,0
31062,591,-8271,227,-1,-1,-3,0
31067,620,-8273,208,-1,-1,-3,0
31072,648,-8276,199,-1,-1,-3,0
31077,674,-8277,194,-1,-1,-3,0
31082,699,-8278,191,-1,-1,-3,0
31087,722,-8277,194,-1,-1,-3,0
31092,741,-8277,202,-1,-1,-3,0
31097,757,-8279,207,-1,-1,-3,0
31102,768,-8280,218,-1,-1,-3,0
31107,777,-8281,226,-1,-2,-2,0
31112,780,-8280,230,-1,-3,-2,0
31117,778,-8280,236,-1,-3,-2,0
31122,779,-8282,244,-1,-3,-2,0
31127,779,-8283,247,-1,-3,-2,0
31132,777,-8281,256,-1,-3,-2,0
31137,778,-8281,266,-1,-3,-2,0
31142,783,-8281,271,-1,-3,-2,0
31147,793,-8279,280,-1,-3,-2,0
31152,806,-8280,286,-1,-3,-2,0
31157,824,-8281,291,-1,-3,-2,0
31162,838,-8284,296,-1,-3,-2,0
31167,851,-8285,297,-1,-3,-2,0
31172,858,-8285,298,-1,-3,-2,0
31177,853,-8283,297,-1,-4,-2,0
31182,846,-8282,292,-1,-5,-2,0
31187,829,-8282,290,-1,-5,-2,0
31192,802,-8282,291,-1,-5,-2,0
31197,780,-8283,296,-1,-4,-2,0
31202,759,-8284,297,-1,-4,-2,0
31207,740,-8285,301,-1,-3,-2,0
31212,725,-8286,307,-1,-2,-2,0
31217,721,-8287,319,-1,-2,-2,0
31222,721,-8285,334,-1,-2,-2,0
31227,725,-8281,349,-1,-2,-2,0
31232,729,-8276,360,-1,-2,-2,0
31237,733,-8274,375,-1,-2,-2,0
31242,731,-8273,388,-1,-3,-2,0
31247,729,-8272,402,-1,-3,-2,0
31252,723,-8272,417,-1,-3,-2,0
31257,715,-8272,428,-1,-4,-2,0
31262,705,-8273,436,-1,-4,-1,0
31267,693,-8272,449,-1,-5,-2,0
31272,678,-8273,460,-2,-5,-2,0
31277,660,-8273,465,-2,-5,-2,0
31282,643,-8275,469,-2,-6,-2,0
31287,627,-8275,470,-2,-6,-2,0
31292,609,-8275,468,-2,-7,-2,0
31297,597,-8277,465,-2,-7,-2,0
31302,590,-8279,459,-2,-6,-2,0
31307,590,-8280,455,-2,-6,-2,0
31312,599,-8282,442,-2,-5,-2,0
31317,614,-8282,429,-2,-4,-2,0
31322,633,-8281,411,-2,-4,-2,0
31327,660,-8281,398,-2,-4,-2,0
31332,684,-8281,390,-2,-4,-2,0
31337,707,-8284,398,-2,-4,-2,0
31342,728,-8284,410,-2,-5,-2,0
31347,741,-8281,419,-2,-5,-2,0
31352,747,-8280,434,-2,-7,-2,0
31357,746,-8279,439,-2,-8,-2,0
31362,739,-8278,442,-2,-9,-2,0
31367,726,-8279,443,-2,-10,-2,0
31372,715,-8282,438,-2,-10,-1,0
31377,702,-8281,436,-3,-9,-1,0
31382,695,-8281,429,-3,-8,-1,0
31387,691,-8281,418,-3,-7,-1,0
31392,689,-8279,413,-3,-6,-2,0
31397,698,-8279,409,-3,-5,-2,0
31402,716,-8280,401,-3,-5,-1,0
31407,736,-8281,393,-3,-4,-1,0
31412,765,-8283,384,-3,-4,-1,0
31417,795,-8285,367,-3,-5,-1,0
31422,821,-8285,347,-3,-6,-1,0
31427,841,-8283,325,-3,-6,-1,0
31432,850,-8283,298,-3,-7,-1,0
31437,849,-8285,274,-3,-8,-1,0
31442,842,-8284,242,-3,-9,-1,0
31447,833,-8283,223,-3,-9,-1,0
31452,817,-8280,205,-3,-8,-1,0
31457,804,-8281,192,-3,-8,-1,0
31462,795,-8279,184,-3,-8,-1,0
31467,783,-8280,183,-3,-7,-1,0
31472,776,-8280,184,-3,-7,-1,0
31477,768,-8279,195,-3,-7,-1,0
31482,762,-8282,206,-3,-8,-1,0
31487,760,-8281,212,-3,-9,-1,0
31492,755,-8277,217,-3,-9,-1,0
31497,747,-8277,217,-3,-9,0,0
31502,736,-8277,213,-3,-9,-1,0
31507,721,-8279,211,-3,-9,-1,0
31512,705,-8280,210,-3,-8,-1,0
31517,688,-8280,208,-3,-8,-1,0
31522,675,-8278,206,-3,-8,-1,0
31527,667,-8280,197,-3,-8,-1,0
31532,662,-8280,192,-3,-8,-1,0
31537,656,-8281,191,-3,-7,-1,0
31542,652,-8282,191,-3,-5,-1,0
31547,650,-8282,197,-3,-4,-1,0
31552,645,-8282,208,-3,-4,-1,0
31557,634,-8283,211,-3,-4,-1,0
31562,621,-8283,205,-3,-5,-1,0
31567,605,-8283,192,-3,-5,-1,0
31572,585,-8286,173,-3,-6,-1,0
31577,564,-8287,149,-3,-6,-1,0
31582,545,-8288,132,-3,-6,-1,0
31587,538,-8287,127,-3,-7,-1,0
31592,539,-8287,133,-3,-7,-1,0
31597,553,-8289,141,-3,-8,-1,0
31602,576,-8289,154,-3,-9,-1,0
31607,600,-8287,162,-3,-10,-1,0
31612,628,-8287,144,-3,-12,-1,0
31617,653,-8285,120,-2,-13,-1,0
31622,668,-8284,89,-2,-14,-1,0
31627,677,-8283,55,-2,-16,-1,0
31632,680,-8282,24,-2,-17,-1,0
31637,677,-8283,-5,-2,-17,-1,0
31642,666,-8283,-27,-2,-17,-1,0
31647,643,-8284,-50,-2,-16,-1,0
31652,611,-8285,-82,-2,-15,-1,0
31657,573,-8287,-119,-2,-13,-1,0
31662,539,-8292,-162,-2,-12,-1,0
31667,507,-8294,-190,-2,-11,-1,0
31672,484,-8296,-212,-2,-10,-1,0
31677,470,-8296,-222,-2,-8,-1,0
31682,467,-8297,-214,-1,-5,-1,0
31687,477,-8299,-193,-1,-3,-1,0
31692,494,-8300,-171,-1,-2,-1,0
31697,513,-8297,-141,-1,-2,-1,0
31702,530,-8297,-115,-1,-2,-2,0
31707,548,-8298,-92,-1,-2,-1,0
31712,569,-8297,-65,-1,-2,-1,0
31717,594,-8294,-38,-1,-2,-1,0
31722,618,-8293,-19,-1,-3,-1,0
31727,640,-8290,-2,-1,-3,-1,0
31732,659,-8289,16,-1,-3,-1,0
31737,672,-8288,30,-1,-4,-1,0
31742,678,-8287,33,-1,-4,-1,0
31747,676,-8286,31,-1,-5,-1,0
31752,666,-8287,27,-1,-5,-1,0
31757,650,-8287,6,-1,-4,-1,0
31762,631,-8289,-14,-1,-3,-1,0
31767,610,-8292,-22,-1,-2,-1,0
31772,596,-8295,-30,-1,-1,-1,0
31777,591,-8295,-36,-1,0,-1,0
31782,589,-8295,-30,-1,0,-1,0
31787,589,-8295,-20,-1,0,-1,0
31792,607,-8295,-4,-1,1,-1,0
31797,649,-8295,16,-1,2,-1,0
31802,677,-8296,37,0,1,-1,0
31807,706,-8290,69,-1,0,-1,0
31812,727,-8287,79,-1,-1,-1,0
31817,727,-8285,97,0,-2,-1,0
31822,707,-8284,111,0,-4,-1,0
31827,673,-8282,111,0,-5,-1,0
31832,630,-8283,103,0,-4,-1,0
31837,584,-8284,93,0,-3,-1,0
31842,548,-8286,83,0,-2,-1,0
31847,508,-8288,82,0,-2,-1,0
31852,472,-8287,87,0,-2,-1,0
31857,460,-8288,92,0,-2,-1,0
31861,446,-8286,102,0,-1,-1,0
31867,436,-8287,119,0,-1,-2,0
31872,444,-8288,130,0,0,-2,0
31877,465,-8283,140,0,0,-2,0
31882,487,-8282,152,0,0,-2,0
31887,519,-8282,147,0,-1,-2,0
31892,558,-8281,156,0,-1,-2,0
31897,597,-8280,155,0,-1,-2,0
31902,630,-8281,144,0,-2,-2,0
31906,655,-8281,133,0,-2,-2,0
31911,666,-8281,116,0,-3,-2,0
31917,668,-8279,104,0,-3,-2,0
31921,660,-8280,90,0,-4,-1,0
31926,641,-8279,84,0,-4,-2,0
31931,613,-8278,78,0,-4,-2,0
31937,587,-8276,77,0,-4,-2,0
31941,571,-8276,79,0,-3,-2,0
31946,567,-8276,81,0,-2,-1,0
31951,570,-8279,90,0,-2,-1,0
31956,579,-8280,98,0,-1,-1,0
31961,605,-8283,107,0,-1,-2,0
31966,631,-8285,127,0,-1,-2,0
31971,658,-8285,145,0,-1,-2,0
31976,685,-8284,169,0,-2,-2,0
31981,701,-8280,192,0,-2,-1,0
31986,717,-8279,203,0,-2,-1,0
31991,730,-8277,209,0,-2,-1,0
31996,736,-8278,208,0,-2,-1,0
32001,738,-8278,200,0,-3,-1,0
32007,731,-8282,189,0,-3,-1,0
32011,725,-8283,169,0,-2,-1,0
32016,715,-8283,153,0,-2,-1,0
32021,697,-8282,126,0,-3,-1,0
32026,679,-8281,104,0,-3,-1,0
32031,661,-8283,70,0,-3,-1,0
32036,645,-8286,41,0,-2,-1,0
32041,630,-8289,21,0,-2,-1,0
32047,619,-8290,17,0,-2,-1,0
32051,615,-8287,27,0,-1,-1,0
32056,611,-8283,56,0,-1,-1,0
32061,609,-8280,88,0,-2,-1,0
32066,607,-8280,115,0,-2,-1,0
32072,601,-8279,140,0,-3,-1,0
32077,594,-8278,156,1,-3,-1,0
32081,583,-8281,169,0,-3,-1,0
32086,568,-8280,175,0,-2,-1,0
32091,552,-8278,182,0,-2,-1,0
32096,528,-8278,196,0,-3,-1,0
32101,499,-8279,219,0,-5,-2,0
32106,469,-8279,239,0,-6,-2,0
32112,440,-8279,252,0,-8,-2,0
32116,413,-8280,260,0,-9,-2,0
32121,391,-8282,260,0,-9,-2,0
32127,380,-8282,262,0,-8,-2,0
32132,372,-8283,269,0,-7,-2,0
32137,379,-8279,284,0,-6,-2,0
32141,395,-8276,299,0,-5,-2,0
32147,419,-8276,311,0,-5,-2,0
32151,450,-8276,318,0,-4,-2,0
32156,479,-8278,320,0,-4,-2,0
32161,509,-8279,316,0,-4,-2,0
32166,532,-8281,315,0,-5,-2,0
32171,544,-8283,312,0,-6,-2,0
32176,548,-8284,308,0,-8,-2,0
32181,540,-8283,311,0,-9,-2,0
32186,526,-8282,327,0,-10,-2,0
32191,503,-8283,347,0,-10,-2,0
32196,480,-8281,369,0,-9,-2,0
32201,463,-8281,388,0,-7,-2,0
32206,448,-8280,412,0,-5,-3,0
32211,443,-8279,429,-1,-3,-3,0
32216,447,-8283,445,-1,-1,-3,0
32221,459,-8284,455,-1,-1,-3,0
32226,482,-8285,455,-1,-1,-3,0
32231,514,-8286,449,-1,-1,-3,0
32236,547,-8285,444,-1,0,-3,0
32241,581,-8284,428,-1,-1,-3,0
32246,609,-8283,413,-1,-1,-3,0
32251,628,-8282,406,-1,-2,-3,0
32256,640,-8281,393,-1,-2,-3,0
32261,641,-8279,385,-1,-2,-3,0
32266,637,-8279,380,-1,-2,-3,0
32271,631,-8280,373,-1,-2,-3,0
32276,624,-8281,365,-1,-2,-3,0
32281,624,-8279,366,-1,-2,-3,0
32286,635,-8276,369,-1,-1,-2,0
32291,652,-8276,374,-1,-1,-2,0
32296,674,-8275,380,-1,-1,-2,0
32301,696,-8277,385,-1,-1,-2,0
32306,719,-8279,394,-1,-1,-2,0
32311,740,-8280,401,-1,-2,-2,0
32316,753,-8278,401,-1,-2,-2,0
32321,759,-8278,398,-1,-3,-2,0
32326,759,-8277,394,-1,-3,-2,0
32331,755,-8277,385,-2,-3,-2,0
32336,746,-8279,375,-2,-3,-2,0
32341,736,-8279,360,-2,-3,-2,0
32346,727,-8279,343,-2,-2,-2,0
32351,717,-8276,326,-2,-2,-2,0
32356,711,-8275,313,-2,-1,-2,0
32361,711,-8276,302,-2,-1,-2,0
32366,715,-8279,294,-2,-1,-2,0
32371,727,-8278,290,-2,-1,-2,0
32376,739,-8278,285,-2,-1,-2,0
32381,749,-8277,285,-2,-1,-2,0
32386,761,-8278,285,-2,-1,-2,0
32391,772,-8279,287,-2,-1,-2,0
32396,779,-8280,299,-2,-1,-2,0
32401,787,-8282,304,-2,-2,-2,0
32406,787,-8282,305,-2,-2,-2,0
32411,783,-8282,304,-2,-2,-2,0
32416,772,-8280,308,-2,-3,-2,0
32421,752,-8280,306,-2,-3,-2,0
32426,729,-8280,300,-2,-3,-2,0
32431,707,-8283,299,-2,-3,-2,0
32436,682,-8285,298,-2,-2,-2,0
32441,664,-8283,305,-2,-1,-2,0
32446,657,-8282,312,-2,-1,-2,0
32451,658,-8281,312,-2,-1,-2,0
32456,664,-8278,305,-2,-1,-2,0
32461,678,-8278,300,-2,0,-2,0
32466,696,-8276,291,-2,0,-2,0
32471,712,-8275,281,-2,0,-2,0
32476,728,-8275,275,-2,0,-2,0
32481,734,-8276,273,-2,0,-2,0
32486,728,-8277,277,-2,0,-2,0
32491,722,-8279,288,-2,0,-2,0
32496,711,-8281,303,-2,0,-2,0
32501,691,-8281,321,-2,0,-2,0
32506,669,-8282,334,-2,0,-2,0
32511,647,-8283,339,-2,0,-2,0
32516,624,-8282,346,-2,0,-2,0
32521,607,-8279,344,-2,0,-2,0
32526,592,-8280,341,-2,0,-2,3
32531,575,-8283,326,-2,0,-2,3
32536,562,-8283,304,-2,0,-2,3
32541,553,-8284,276,-2,0,-2,3
32546,547,-8287,243,-2,1,-2,3
32551,544,-8289,207,-2,1,-2,3
32556,541,-8289,177,-2,3,-2,3
32561,541,-8291,148,-2,5,-2,3
32566,550,-8292,128,-2,8,-2,3
32571,564,-8293,107,-2,11,-2,3
32576,584,-8288,90,-2,12,-2,3
32581,604,-8288,72,-2,13,-2,3
32586,629,-8285,64,-2,14,-2,3
32591,656,-8285,53,-2,14,-2,3
32596,681,-8287,52,-2,13,-2,3
32601,707,-8290,55,-2,10,-2,3
32606,729,-8287,64,-2,6,-2,3
32611,741,-8285,77,-2,1,-2,3
32616,740,-8285,96,-2,-4,-2,3
32621,732,-8286,108,-2,-6,-2,3
32626,721,-8287,114,-2,-7,-2,3
32631,711,-8290,118,-2,-6,-2,3
32636,710,-8288,127,-2,-4,-2,3
32641,714,-8287,139,-2,-3,-2,3
32646,719,-8289,144,-2,-2,-2,3
32651,722,-8288,144,-2,-2,-2,3
32656,719,-8285,137,-1,-3,-2,3
32661,713,-8285,114,-1,-5,-2,3
32666,704,-8289,81,-1,-7,-2,3
32671,695,-8289,46,-1,-8,-1,3
32676,688,-8289,16,-1,-7,-1,3
32681,687,-8288,-9,-1,-5,-1,3
32686,695,-8287,-27,-1,-2,-1,3
32691,715,-8286,-35,-1,1,-1,3
32696,737,-8288,-34,-1,2,-1,3
32701,763,-8287,-27,-1,1,-1,3
32706,785,-8286,-19,-1,0,-1,3
32711,799,-8284,-4,-1,-1,-1,3
32716,810,-8282,11,-1,-2,-1,3
32721,811,-8278,30,-1,-2,-1,3
32726,810,-8276,50,-1,-3,-1,3
32731,806,-8277,69,-1,-3,-1,3
32736,798,-8277,85,-1,-4,-1,3
32741,787,-8276,103,-1,-5,-1,3
32746,770,-8274,125,-1,-5,-1,3
32751,752,-8271,145,-1,-5,-1,3
32756,735,-8272,164,-1,-5,-1,3
32761,715,-8271,188,-1,-5,-1,3
32766,695,-8274,219,-1,-5,-1,3
32771,670,-8276,253,-1,-4,-1,3
32776,644,-8276,282,-1,-4,-1,3
32781,621,-8271,304,-1,-3,-1,3
32786,608,-8272,319,-1,-1,-1,3
32791,603,-8271,321,-1,0,-1,3
32796,608,-8272,311,-1,2,-1,3
32801,627,-8272,299,-1,3,-1,3
32806,655,-8274,276,-1,5,-1,3
32811,689,-8276,249,-1,7,-1,3
32816,730,-8277,233,-1,9,-1,3
32821,774,-8281,218,-1,10,-1,3
32826,812,-8282,210,-1,10,-1,3
32831,839,-8281,216,-1,9,-1,3
32836,853,-8281,230,-1,7,-1,3
32841,847,-8278,260,-1,5,-1,3
32846,824,-8276,300,-1,3,-1,3
32851,793,-8280,343,-1,1,-1,3
32856,758,-8279,379,-1,0,-1,3
32861,721,-8277,405,-1,1,0,3
32866,697,-8279,410,-1,3,0,3
32871,681,-8280,402,-1,6,-1,3
32876,674,-8284,383,-1,10,-1,3
32881,674,-8286,353,-2,13,-1,3
32886,678,-8287,324,-2,15,-1,3
32891,679,-8287,308,-2,17,-1,3
32896,677,-8286,293,-2,18,-1,3
32901,673,-8286,286,-2,20,-1,3
32906,665,-8295,278,-2,21,-1,3
32911,663,-8314,268,-2,22,-1,3
32916,659,-8359,278,-2,22,-1,3
32921,616,-8441,286,-2,20,-1,3
32926,558,-8547,303,-2,17,0,3
32931,499,-8666,307,-2,13,0,3
32936,461,-8785,318,-2,10,1,3
32941,436,-8890,334,-2,10,1,3
32946,421,-8975,355,-2,9,1,3
32951,401,-9039,375,-2,7,1,3
32956,382,-9080,402,-2,5,2,3
32961,366,-9105,412,-2,2,2,3
32966,351,-9118,416,-2,2,2,3
32971,334,-9127,408,-2,3,2,3
32976,315,-9142,412,-2,3,2,3
32981,284,-9165,424,-2,4,3,3
32986,240,-9200,442,-2,4,3,3
32991,188,-9245,455,-2,5,3,3
32996,128,-9294,452,-2,6,3,3
33001,67,-9354,435,-2,8,3,3
33006,13,-9416,423,-2,10,3,3
33011,-27,-9474,426,-2,13,2,3
33016,-45,-9524,441,-2,14,2,3
33021,-45,-9562,451,-2,15,2,3
33026,-37,-9584,454,-2,14,2,3
33031,-25,-9593,453,-2,13,2,3
33036,-21,-9589,456,-2,11,2,3
33041,-24,-9572,459,-3,10,2,3
33046,-38,-9541,462,-3,9,2,3
33051,-58,-9496,461,-3,10,2,3
33056,-75,-9440,466,-3,12,2,3
33061,-79,-9375,474,-3,14,2,3
33066,-66,-9309,493,-3,15,2,3
33071,-41,-9236,508,-3,16,2,3
33076,-12,-9158,513,-3,15,2,3
33081,20,-9075,509,-4,15,2,3
33086,46,-8986,492,-4,14,2,3
33091,73,-8883,473,-4,13,2,3
33096,98,-8769,455,-4,12,3,3
33101,122,-8648,428,-4,12,3,3
33106,141,-8519,392,-4,12,3,3
33111,160,-8386,337,-4,12,3,3
33116,176,-8249,288,-4,11,3,3
33121,195,-8108,236,-4,11,3,3
33126,225,-7961,205,-4,12,3,3
33131,258,-7813,170,-4,12,3,3
33136,291,-7664,142,-4,13,3,3
33141,322,-7510,111,-4,12,4,3
33146,351,-7357,79,-3,11,4,3
33151,377,-7205,47,-3,10,4,3
33156,406,-7056,8,-3,9,4,3
33161,432,-6905,-42,-3,8,4,3
33166,462,-6751,-103,-2,8,4,3
33171,493,-6585,-158,-2,7,4,3
33176,521,-6407,-205,-2,6,4,3
33181,552,-6220,-245,-1,6,5,3
33186,583,-6018,-288,-1,7,5,3
33191,617,-5809,-339,0,7,5,3
33196,659,-5597,-399,0,7,5,3
33201,714,-5375,-456,1,8,5,3
33206,780,-5145,-515,2,8,5,3
33211,853,-4895,-565,2,10,6,3
33216,938,-4632,-618,3,11,6,3
33221,1033,-4361,-679,4,12,6,3
33226,1138,-4085,-737,4,12,7,3
33231,1261,-3815,-807,5,11,8,3
33236,1392,-3565,-868,6,10,8,3
33241,1519,-3350,-923,7,7,9,3
33246,1624,-3180,-967,8,4,10,3
33251,1695,-3072,-1004,9,1,11,3
33256,1742,-3028,-1028,10,-1,12,3
33261,1768,-3049,-1045,11,-3,13,3
33266,1778,-3129,-1038,12,-4,13,3
33271,1776,-3261,-1008,12,-4,14,3
33276,1765,-3447,-950,13,-3,15,3
33281,1745,-3687,-864,14,-3,16,3
33286,1715,-3980,-754,15,-3,16,3
33291,1665,-4324,-635,15,-3,17,3
33296,1591,-4722,-503,16,-5,17,3
33301,1123,-6387,1141,27,3,20,3
33306,1857,-5464,1282,12,-41,21,3
33311,2723,-3914,677,11,-107,14,3
33316,1763,-2400,1093,5,-155,9,3
33321,1213,-880,1581,-3,-215,4,3
33326,-609,-90,2921,-2,-211,7,3
33331,-1934,-2417,3964,1,-208,9,3
33336,-2655,-3718,3317,3,-166,9,3
33341,-3228,-3813,3015,3,-96,5,3
33346,-3395,-4186,1710,0,-2,-3,3
33351,-3862,-4805,1324,-3,104,-12,3
33356,-3944,-5849,1039,-6,201,-20,3
33361,-3978,-7182,1315,-6,290,-24,3
33366,-3351,-8496,1730,-4,321,-23,3
33371,-2167,-9622,1814,-2,288,-18,3
33376,-1104,-10531,1899,-2,196,-11,3
33381,214,-11152,2063,-3,75,-6,3
33386,1207,-11488,2164,-5,-3,-5,3
33391,1753,-11578,2391,-6,-38,-8,3
33396,1660,-11476,2230,-7,-65,-9,3
33401,1280,-11195,2169,-7,-96,-8,3
33406,573,-10752,2179,-6,-110,-5,3
33411,-159,-10205,2052,-6,-104,-4,3
33416,-633,-9602,1668,-5,-72,-5,3
33421,-883,-8988,1169,-6,-18,-9,3
33426,-1000,-8411,856,-7,37,-13,3
33431,-957,-7895,591,-7,71,-16,3
33436,-832,-7416,533,-7,77,-15,3
33441,-568,-6965,452,-6,63,-14,3
33446,-174,-6519,230,-5,46,-12,3
33451,165,-6052,-34,-4,36,-12,3
33456,452,-5553,-307,-3,26,-11,3
33461,697,-5018,-598,-2,19,-11,3
33466,878,-4445,-818,-1,14,-11,3
33471,1009,-3837,-1039,0,10,-10,3
33476,1138,-3207,-1283,1,6,-9,3
33481,1266,-2557,-1483,3,7,-7,3
33486,1423,-1909,-1684,5,10,-6,3
33491,1598,-1284,-1875,7,13,-4,3
33496,1750,-696,-2009,9,12,-2,3
33501,1934,-174,-2172,12,7,1,3
33506,2322,278,-2515,13,6,2,3
33511,2674,655,-2808,15,12,2,3
33516,2900,969,-2947,16,13,3,3
33521,2942,1219,-2848,17,2,5,3
33526,2839,1392,-2560,19,-19,9,3
33531,2722,1484,-2315,21,-39,12,3
33536,2599,1487,-2081,23,-48,13,3
33541,2460,-496,-2136,23,-49,14,3
33546,1049,-2765,-125,41,-31,16,3
33551,1460,-30,-266,10,-104,17,3
33556,1237,2313,381,9,-222,11,3
33561,-156,4323,1535,-2,-295,1,3
33566,-2391,1596,3656,0,-255,-1,3
33571,-3980,3708,4763,-6,-165,-2,3
33576,-3527,2255,3473,0,-131,-2,3
33581,-4161,127,3788,3,-57,-4,3
33586,-4283,-1439,3186,3,8,-9,3
33591,-4285,-2596,2403,4,68,-10,3
33596,-3981,-3483,1884,3,106,-10,3
33601,-3249,-4236,1255,1,124,-9,3
33606,-2494,-4861,888,-1,121,-6,3
33611,-1783,-5348,898,-3,103,-3,3
33616,-938,-5762,995,-4,79,-2,3
33621,-64,-6105,1179,-5,61,-1,3
33626,647,-6395,1237,-5,48,-2,3
33631,1429,-6623,1638,-3,35,-4,3
33636,2009,-6832,1762,-2,27,-6,3
33641,2329,-7023,1833,-1,5,-6,3
33646,2296,-7194,1860,-1,-23,-5,3
33651,2060,-7364,1580,-1,-47,-2,3
33656,1742,-7495,1404,-2,-59,-1,3
33661,1285,-7608,1267,-3,-53,0,3
33666,894,-7713,1054,-3,-39,0,3
33671,589,-7796,955,-3,-21,-1,3
33676,312,-7864,918,-3,-2,-2,3
33681,179,-7923,868,-3,9,-3,3
33686,147,-7971,848,-3,13,-2,3
33691,105,-8013,846,-3,13,-2,3
33696,166,-8046,810,-2,10,-1,3
33701,282,-8078,754,-2,9,-1,3
33706,360,-8106,723,-2,9,-1,3
33711,503,-8131,653,-2,6,-1,3
33716,614,-8150,601,-2,2,-2,3
33721,639,-8169,591,-2,-2,-2,3
33726,675,-8185,558,-3,-6,-1,3
33731,635,-8197,580,-3,-6,-1,3
33736,562,-8205,624,-3,-7,-1,3
33741,518,-8209,626,-3,-10,-1,3
33746,437,-8216,647,-2,-10,-1,3
33751,361,-8222,649,-2,-11,-1,3
33756,297,-8229,588,-2,-10,-1,3
33761,232,-8236,523,-2,-9,-1,3
33766,179,-8244,441,-2,-8,-1,3
33771,139,-8257,340,-2,-8,-1,3
33776,121,-8269,268,-2,-7,-1,3
33781,97,-8274,216,-2,-5,-1,3
33786,100,-8274,188,-2,-5,-1,3
33791,123,-8276,193,-2,-4,-1,3
33796,123,-8276,214,-1,-3,-1,3
33801,142,-8275,229,-1,-3,-1,3
33806,153,-8275,255,-1,-2,-2,3
33811,148,-8274,281,-1,-3,-2,3
33816,177,-8274,288,-1,-4,-2,3
33821,185,-8274,308,-1,-4,-1,3
33826,201,-8272,331,-1,-5,-1,3
33831,232,-8273,341,-1,-5,-1,3
33836,237,-8273,365,-1,-5,-1,3
33841,257,-8274,389,-1,-6,-1,3
33846,269,-8276,392,-1,-6,-1,3
33851,261,-8277,406,-1,-7,-2,3
33856,260,-8276,430,-1,-8,-1,3
33861,261,-8275,444,-1,-9,-1,3
33866,265,-8271,474,-1,-9,-1,3
33871,264,-8271,514,-1,-8,-1,3
33876,283,-8268,545,-1,-7,-1,3
33881,300,-8267,575,-1,-5,-1,3
33886,306,-8267,615,-1,-5,-1,3
33891,320,-8266,618,-1,-5,-1,3
33896,300,-8266,622,-1,-4,-1,3
33901,280,-8268,640,-1,-3,-1,3
33906,271,-8269,622,-1,-2,-1,3
33911,239,-8271,636,-1,0,-1,3
33916,233,-8273,668,-1,1,-1,3
33921,233,-8271,678,-1,1,-1,3
33926,227,-8268,727,-1,2,-1,3
33931,241,-8266,751,-1,1,-1,3
33936,247,-8264,758,-1,0,-1,3
33941,253,-8265,788,-2,0,-1,3
33946,260,-8266,788,-2,-1,-1,3
33951,261,-8265,797,-2,-2,-1,3
33956,261,-8267,811,-2,-2,-1,3
33961,255,-8266,812,-2,-3,-1,3
33966,247,-8264,818,-2,-3,-1,3
33971,234,-8263,816,-2,-3,-1,3
33976,220,-8265,800,-2,-3,-1,3
33981,202,-8268,772,-2,-3,-1,3
33986,177,-8269,752,-2,-2,-1,3
33991,163,-8269,710,-2,-2,-2,3
33996,151,-8270,689,-2,-2,-2,3
34001,144,-8269,688,-2,-2,-2,3
34006,153,-8269,661,-2,-2,-1,3
34011,153,-8267,664,-2,-2,-1,3
34016,165,-8269,662,-2,-3,-1,3
34021,184,-8270,638,-2,-4,-2,3
34026,190,-8270,632,-2,-4,-2,3
34031,194,-8271,612,-2,-5,-2,3
34036,186,-8269,587,-2,-5,-2,3
34041,168,-8270,577,-2,-5,-2,3
34046,157,-8272,552,-2,-5,-2,3
34051,150,-8272,544,-2,-4,-2,3
34056,153,-8270,551,-2,-4,-2,3
34061,163,-8270,547,-2,-4,-2,3
34066,172,-8269,553,-2,-4,-2,3
34071,188,-8268,554,-2,-4,-2,3
34076,193,-8269,544,-2,-4,-2,3
34081,197,-8270,541,-2,-5,-2,3
34086,194,-8273,536,-2,-5,-2,3
34091,194,-8276,526,-2,-5,-2,3
34096,193,-8278,517,-2,-5,-2,3
34101,188,-8280,510,-2,-5,-2,3
34106,194,-8280,495,-2,-4,-2,3
34111,190,-8280,487,-2,-4,-2,3
34116,185,-8282,476,-2,-3,-2,3
34121,191,-8284,438,-2,-3,-2,3
34126,185,-8283,410,-2,-2,-2,3
34131,174,-8283,380,-2,-2,-2,3
34136,169,-8280,351,-2,-1,-2,3
34141,156,-8279,337,-2,-1,-2,3
34146,152,-8278,320,-2,0,-2,3
34151,151,-8281,301,-2,1,-2,3
34156,146,-8279,298,-2,1,-2,3
34161,155,-8277,291,-1,1,-2,3
34166,165,-8279,289,-1,1,-2,3
34171,179,-8279,291,-1,1,-2,3
34176,202,-8280,289,-1,1,-2,3
34181,212,-8278,287,-1,1,-2,3
34186,222,-8277,288,-1,1,-2,3
34191,230,-8277,285,-1,1,-2,3
34196,237,-8280,289,-1,1,-2,3
34201,240,-8279,296,-1,1,-2,3
34206,249,-8277,299,-1,0,-2,3
34211,255,-8277,307,-1,0,-2,3
34216,252,-8277,328,-1,1,-2,3
34221,261,-8277,338,-1,2,-2,3
34226,259,-8279,352,-1,2,-2,3
34231,264,-8278,378,-1,2,-2,3
34236,283,-8278,395,-1,2,-2,3
34241,299,-8279,417,-1,2,-2,3
34246,325,-8278,440,-1,1,-2,3
34251,356,-8277,450,-1,0,-2,3
34256,378,-8274,473,-1,0,-2,3
34261,393,-8269,498,-1,-1,-2,3
34266,395,-8270,508,-1,-2,-2,3
34271,381,-8268,526,-1,-2,-2,3
34276,362,-8265,539,-1,-2,-2,3
34281,338,-8264,549,-1,-2,-2,3
34286,317,-8267,574,-1,-1,-2,3
34291,307,-8270,595,-1,-1,-2,3
34296,307,-8270,617,-1,-1,-2,3
34301,312,-8271,653,-1,-1,-2,3
34306,330,-8273,684,-1,-1,-1,3
34311,352,-8271,709,-1,-1,-1,3
34316,366,-8270,736,-1,-2,-1,3
34321,380,-8267,751,-1,-3,-1,3
34326,383,-8264,764,-2,-3,-1,3
34331,380,-8263,781,-2,-3,-1,3
34336,377,-8262,777,-2,-3,-1,3
34341,372,-8261,780,-2,-3,-1,3
34346,367,-8261,790,-2,-3,-1,3
34351,372,-8261,795,-2,-4,-1,3
34356,377,-8261,812,-2,-4,-1,3
34361,389,-8260,821,-2,-5,-1,3
34366,401,-8260,817,-2,-7,-1,3
34371,399,-8261,814,-2,-8,-1,3
34376,394,-8261,804,-2,-9,-1,3
34381,384,-8261,779,-2,-11,-1,3
34386,365,-8259,754,-2,-12,-1,3
34391,342,-8255,724,-2,-13,-1,3
34396,324,-8254,697,-3,-13,-1,3
34401,304,-8257,670,-3,-13,-1,3
34406,284,-8260,639,-2,-13,0,3
34411,271,-8261,604,-2,-12,-1,3
34416,253,-8263,576,-2,-10,-1,3
34421,237,-8266,543,-2,-9,-1,3
34426,222,-8267,506,-2,-8,-1,3
34431,200,-8266,474,-2,-6,-1,3
34436,196,-8267,434,-2,-5,-1,3
34441,201,-8269,406,-2,-4,-1,3
34446,212,-8270,392,-2,-3,-1,3
34451,235,-8269,373,-2,-3,-1,3
34456,251,-8266,379,-2,-3,-1,3
34461,267,-8266,395,-2,-4,-1,3
34466,278,-8267,404,-2,-5,-1,3
34471,276,-8268,413,-2,-6,-1,3
34476,266,-8268,420,-2,-7,-1,3
34481,248,-8271,417,-2,-7,-1,3
34486,223,-8273,416,-2,-7,-1,3
34491,196,-8273,405,-2,-5,-1,3
34496,176,-8273,396,-2,-4,-1,3
34501,166,-8272,386,-2,-2,-2,3
34506,163,-8274,374,-2,-1,-2,3
34511,171,-8274,351,-3,-1,-2,3
34516,190,-8273,321,-3,0,-3,3
34521,170,-8273,339,-3,-1,-2,3
34526,131,-8269,375,-2,-3,-2,0
34531,71,-8266,422,-2,-3,-2,0
34536,26,-8264,457,-2,-2,-1,0
34541,27,-8266,459,-1,-1,-1,0
34546,60,-8274,446,-1,0,-1,0
34551,107,-8280,412,-1,-1,-1,0
34556,150,-8285,368,-1,-1,-1,0
34561,172,-8288,334,-2,-1,-2,0
34566,176,-8285,310,-2,-1,-2,0
34571,164,-8280,303,-2,-2,-2,0
34576,137,-8277,303,-1,-2,-2,0
34581,110,-8276,289,-1,-2,-2,0
34586,95,-8276,283,-1,-1,-2,0
34591,92,-8281,275,-1,-1,-2,0
34596,110,-8283,267,-1,-2,-2,0
34601,138,-8285,267,-1,-2,-2,0
34606,180,-8284,272,-1,-3,-2,0
34611,229,-8285,283,-1,-4,-2,0
34616,274,-8283,299,-1,-5,-1,0
34621,306,-8282,316,-1,-6,-1,0
34626,326,-8284,325,-1,-7,-2,0
34631,336,-8283,341,-1,-9,-1,0
34636,340,-8281,352,-1,-11,-1,0
34641,325,-8282,359,-1,-14,-1,0
34646,288,-8283,367,-1,-14,-1,0
34651,244,-8285,365,0,-12,-1,0
34656,201,-8285,360,0,-9,-1,0
34661,165,-8284,366,-1,-6,-2,0
34666,146,-8284,373,-1,-4,-1,0
34671,143,-8286,396,-1,-2,-1,0
34676,158,-8284,425,0,-2,-1,0
34681,194,-8281,444,0,-2,-1,0
34686,239,-8282,472,0,-2,-1,0
34691,285,-8279,489,0,-3,-1,0
34696,317,-8279,498,0,-5,-1,0
34701,323,-8278,508,0,-7,-1,0
34706,310,-8277,512,-1,-8,-1,0
34711,282,-8274,516,-1,-9,-1,0
34716,247,-8273,526,-1,-8,-1,0
34721,213,-8271,535,-1,-7,-1,0
34726,196,-8271,542,-1,-6,-1,0
34731,189,-8270,556,-1,-5,-1,0
34736,195,-8270,570,-1,-4,-1,0
34741,218,-8271,584,-1,-3,-1,0
34746,239,-8271,604,-1,-3,-1,0
34751,268,-8270,618,-1,-3,-1,0
34756,290,-8267,630,-1,-4,-1,0
34761,304,-8264,648,-1,-5,-1,0
34766,315,-8264,650,-1,-6,-1,0
34771,321,-8263,651,-1,-7,-1,0
34776,323,-8265,650,-1,-8,-1,0
34781,324,-8266,642,-1,-9,-1,0
34786,322,-8266,642,-1,-9,-1,0
34791,315,-8267,636,-1,-9,-1,0
34796,309,-8270,630,-1,-9,-1,0
34801,293,-8272,626,-1,-9,-1,0
34806,266,-8272,615,-1,-8,-1,0
34811,234,-8272,593,-1,-7,-1,0
34816,198,-8272,571,-1,-5,-1,0
34821,171,-8273,563,-1,-2,-1,0
34826,169,-8272,564,-1,-1,-1,0
34831,182,-8270,584,-2,0,-1,0
34836,214,-8267,619,-2,-1,-1,0
34841,262,-8266,650,-2,-1,-1,0
34846,310,-8264,683,-2,-1,-1,0
34851,350,-8264,701,-1,-3,-1,0
34856,381,-8262,701,-2,-4,-1,0
34861,392,-8260,692,-2,-5,-1,0
34866,395,-8261,680,-2,-7,-1,0
34871,389,-8261,667,-2,-8,-1,0
34876,374,-8262,658,-2,-10,0,0
34881,354,-8262,657,-2,-11,0,0
34886,334,-8265,657,-2,-11,0,0
34891,309,-8268,658,-2,-10,0,0
34896,289,-8268,654,-2,-10,-1,0
34901,265,-8265,645,-2,-10,0,0
34906,243,-8264,633,-2,-10,0,0
34911,234,-8264,621,-2,-10,0,0
34916,233,-8266,607,-2,-10,0,0
34921,235,-8264,603,-2,-10,0,0
34926,241,-8266,603,-2,-10,0,0
34931,241,-8268,595,-2,-11,0,0
34936,235,-8271,584,-2,-11,0,0
34941,226,-8272,566,-2,-12,0,0
34946,212,-8275,551,-2,-12,0,0
34951,194,-8273,534,-2,-13,0,0
34956,175,-8270,520,-2,-13,0,0
34961,149,-8270,512,-2,-13,0,0
34966,129,-8271,511,-2,-13,0,0
34971,115,-8270,512,-2,-12,-1,0
34976,90,-8270,516,-2,-12,-1,0
34981,68,-8271,511,-2,-12,-1,0
34986,44,-8275,499,-2,-12,-1,0
34991,27,-8277,483,-2,-11,-1,0
34996,16,-8280,466,-2,-10,-1,0
35001,17,-8282,454,-2,-9,-1,0
35006,23,-8281,453,-2,-8,-1,0
35011,36,-8280,458,-2,-7,-1,0
35016,54,-8278,469,-2,-7,-1,0
35021,71,-8276,472,-2,-7,-1,0
35026,82,-8275,467,-2,-8,-1,0
35031,88,-8273,461,-2,-8,-1,0
35035,88,-8275,444,-2,-8,-1,0
35041,85,-8277,420,-2,-8,-1,0
35045,73,-8279,402,-2,-8,-1,0
35051,61,-8281,390,-2,-8,-2,0
35056,47,-8279,388,-2,-7,-2,0
35061,34,-8277,401,-2,-6,-2,0
35065,27,-8272,411,-2,-5,-2,0
35071,29,-8271,427,-2,-5,-2,0
35075,37,-8271,439,-2,-5,-2,0
35081,46,-8275,440,-2,-5,-2,0
35086,63,-8276,437,-2,-5,-2,0
35090,83,-8275,432,-2,-5,-2,0
35096,93,-8273,435,-2,-5,-2,0
35101,102,-8270,437,-2,-5,-2,0
35106,101,-8270,440,-2,-5,-2,0
35111,92,-8271,443,-2,-5,-2,0
35116,75,-8271,441,-2,-4,-2,0
35121,61,-8272,436,-1,-2,-2,0
35125,50,-8273,427,-1,-1,-2,0
35130,45,-8274,429,-2,-1,-2,0
35135,42,-8274,432,-1,-1,-2,0
35141,48,-8273,443,-1,-1,-2,0
35146,60,-8275,460,-1,0,-2,0
35151,79,-8274,469,-1,0,-2,0
35155,99,-8275,469,-1,-1,-2,0
35160,115,-8277,467,-1,-1,-2,0
35166,133,-8279,455,-1,-1,-2,0
35170,149,-8277,451,-1,-2,-2,0
35175,160,-8278,446,-1,-2,-2,0
35180,171,-8279,447,-1,-2,-2,0
35185,180,-8276,455,-1,-2,-2,0
35190,181,-8273,454,-1,-3,-2,0
35195,181,-8272,457,-1,-3,-2,0
35201,174,-8272,463,-1,-2,-2,0
35205,160,-8272,471,-1,-2,-2,0
35210,150,-8273,470,-1,0,-2,0
35216,154,-8273,473,-1,0,-3,0
35221,154,-8272,472,-1,-1,-2,0
35225,149,-8274,472,-1,-1,-2,0
35231,147,-8274,463,-1,0,-3,0
35235,150,-8273,437,-1,1,-2,0
35241,154,-8276,400,-1,2,-2,0
35245,153,-8278,361,-1,4,-3,0
35250,154,-8280,320,-1,6,-3,0
35255,164,-8281,295,-1,9,-3,0
35260,182,-8283,297,-1,11,-3,0
35265,209,-8280,325,-1,13,-3,0
35271,244,-8274,367,-1,13,-3,0
35276,276,-8275,411,-1,12,-3,0
35280,306,-8276,438,-1,11,-2,0
35285,288,-8273,445,-1,11,-2,0
35290,286,-8278,452,-1,14,-3,0
35296,333,-8275,448,-1,14,-3,0
35300,354,-8274,449,-1,9,-2,0
35305,387,-8270,452,-1,5,-2,0
35311,389,-8271,450,-1,4,-2,0
35315,402,-8270,467,-1,3,-2,0
35321,408,-8267,478,-1,3,-2,0
35325,394,-8266,484,-1,2,-2,0
35330,371,-8265,484,-1,2,-2,0
35336,329,-8268,465,-1,2,-2,0
35340,300,-8273,438,-1,3,-2,0
35346,274,-8273,412,-1,5,-2,0
35350,258,-8274,390,-1,6,-2,0
35355,254,-8276,382,-1,7,-2,0
35360,249,-8277,392,-1,8,-2,0
35365,256,-8277,411,-1,8,-2,0
35370,252,-8273,430,-1,7,-2,0
35375,245,-8272,455,-1,7,-2,0
35380,240,-8270,472,-1,7,-2,0
35385,233,-8271,483,-1,6,-2,0
35390,224,-8274,492,-1,6,-2,0
35395,212,-8275,494,-1,6,-2,0
35400,203,-8277,497,-1,6,-2,0
35405,193,-8279,502,-1,6,-2,0
35410,199,-8280,517,-1,5,-2,0
35415,203,-8280,532,-1,5,-2,0
35420,205,-8279,544,-1,4,-2,0
35425,203,-8279,556,-1,5,-2,0
35430,215,-8279,564,-1,6,-2,0
35435,240,-8277,574,-1,5,-2,0
35440,253,-8275,568,-1,2,-2,0
35445,265,-8273,558,-1,-1,-2,0
35450,271,-8274,541,-1,-2,-2,0
35455,278,-8274,529,-1,-3,-2,0
35460,274,-8272,523,-1,-4,-2,0
35465,260,-8273,514,-1,-5,-2,0
35470,240,-8277,516,-1,-6,-2,0
35475,213,-8278,527,-1,-6,-2,0
35480,198,-8280,534,-1,-6,-2,0
35485,188,-8278,549,-1,-6,-2,0
35490,184,-8281,558,-1,-6,-2,0
35495,190,-8278,560,-1,-6,-2,0
35500,202,-8278,551,-1,-6,-2,0
35505,214,-8277,531,-1,-7,-2,0
35510,228,-8274,514,-1,-7,-2,0
35515,244,-8277,495,-1,-8,-1,0
35520,256,-8278,483,-1,-8,-1,0
35525,266,-8279,476,-1,-9,-1,0
35530,268,-8280,476,-1,-10,-1,0
35535,265,-8280,484,-1,-10,-1,0
35540,251,-8280,492,-1,-11,-1,0
35545,234,-8278,499,-1,-11,-1,0
35550,217,-8275,497,-1,-11,-1,0
35555,198,-8271,490,-1,-10,-1,0
35560,184,-8271,476,-1,-9,-1,0
35565,173,-8271,463,-1,-8,-2,0
35570,172,-8271,454,-1,-7,-2,0
35575,176,-8272,450,-1,-7,-2,0
35580,188,-8273,453,-1,-6,-1,0
35585,206,-8271,454,-1,-6,-1,0
35590,223,-8271,452,-1,-6,-1,0
35595,242,-8271,446,-1,-6,-2,0
35600,260,-8274,436,-1,-7,-2,0
35605,274,-8278,430,-1,-8,-1,0
35610,283,-8276,427,-1,-9,-1,0
35615,292,-8273,431,-1,-10,-1,0
35620,298,-8273,443,-1,-11,-1,0
35625,303,-8278,457,-1,-12,-1,0
35630,301,-8277,470,-1,-13,-1,0
35635,288,-8273,474,-1,-14,-1,0
35640,272,-8272,479,-1,-14,-1,0
35645,250,-8273,480,-1,-14,-1,0
35650,229,-8271,482,-1,-14,-1,0
35655,208,-8272,485,-1,-13,-1,0
35660,190,-8272,485,-1,-12,-1,0
35665,179,-8272,487,-1,-11,-1,0
35670,169,-8272,492,-1,-10,-1,0
35675,162,-8273,490,-1,-9,-1,0
35680,149,-8276,477,-1,-8,-1,0
35685,135,-8279,456,-1,-6,-2,0
35690,122,-8282,434,-1,-4,-2,0
35695,117,-8286,416,-1,-3,-2,0
35700,119,-8286,418,-1,-3,-2,0
35705,128,-8285,430,-1,-2,-2,0
35710,143,-8280,449,-1,-2,-2,0
35715,160,-8276,467,-1,-1,-2,0
35720,173,-8274,479,-1,-1,-2,0
35725,179,-8274,482,-1,-2,-2,0
35730,177,-8276,482,-1,-2,-2,0
35735,169,-8272,485,-1,-2,-2,0
35740,157,-8270,481,-1,-1,-2,0
35745,148,-8271,480,-1,-1,-2,0
35750,145,-8270,486,-1,0,-2,0
35755,146,-8269,496,-1,0,-2,0
35760,153,-8269,504,-1,0,-2,0
35765,165,-8269,501,-1,0,-2,0
35770,184,-8271,496,-1,-1,-2,0
35775,199,-8272,483,-1,-1,-2,0
35780,210,-8274,471,-1,-1,-2,0
35785,217,-8274,464,-1,-1,-2,0
35790,217,-8274,463,-1,-1,-2,0
35795,211,-8273,468,-1,-1,-2,0
35800,199,-8269,474,-1,-1,-2,0
35805,186,-8268,483,-1,-1,-2,0
35810,175,-8269,485,-1,0,-2,0
35815,165,-8267,482,-1,1,-2,0
35820,157,-8269,475,-1,2,-2,0
35825,150,-8270,468,-1,3,-2,0
35830,136,-8270,455,-1,4,-2,0
35835,126,-8269,440,-1,5,-2,0
35840,119,-8272,440,-1,6,-2,0
35845,106,-8272,447,-1,7,-2,0
35850,91,-8270,458,-1,8,-2,0
35855,72,-8272,470,-1,9,-3,0
35860,68,-8272,476,-1,11,-3,0
35865,83,-8272,477,-1,12,-3,0
35870,92,-8272,470,-1,11,-3,0
35875,96,-8274,463,-1,11,-3,0
35880,122,-8275,457,-1,11,-3,0
35885,143,-8275,446,-1,10,-3,0
35890,159,-8275,430,-1,9,-3,0
35895,180,-8277,401,-1,9,-3,0
35900,201,-8279,363,-1,8,-2,0
35905,218,-8278,323,-1,6,-2,0
35910,227,-8280,287,-1,6,-3,0
35915,230,-8283,275,-1,6,-3,0
35920,226,-8279,280,-1,6,-3,0
35925,222,-8277,293,-1,6,-3,0
35930,212,-8276,316,-1,6,-2,0
35935,194,-8277,337,-1,6,-3,0
35940,188,-8274,358,0,6,-3,0
35945,190,-8273,376,0,7,-3,0
35950,200,-8273,403,-1,7,-3,0
35955,222,-8275,432,-1,7,-3,0
35960,251,-8274,466,-1,6,-2,0
35965,282,-8275,497,-1,4,-2,0
35970,312,-8277,524,-1,2,-2,0
35975,330,-8279,546,-1,1,-2,0
35980,336,-8280,564,-1,1,-2,0
35985,334,-8279,580,-1,1,-2,0
35990,326,-8278,593,-1,1,-2,0
35995,315,-8276,605,-1,2,-2,0
36000,307,-8274,620,-1,2,-2,0
36005,306,-8275,633,-1,2,-2,0
36010,313,-8272,641,-1,2,-2,0
36015,332,-8270,650,-1,2,-2,0
36020,356,-8269,656,-1,2,-2,0
36025,382,-8268,655,-1,2,-2,0
36030,403,-8267,650,-1,1,-2,0
36035,412,-8266,642,-1,1,-2,0
36040,409,-8266,637,-1,0,-2,0
36045,402,-8267,635,-1,0,-2,0
36050,394,-8266,634,-1,0,-2,0
36055,384,-8263,628,-1,0,-1,0
36060,373,-8261,625,-1,0,-1,0
36065,368,-8265,615,-2,0,-1,0
36070,366,-8268,608,-2,0,-1,0
36075,362,-8271,602,-2,0,-1,0
36080,353,-8271,605,-2,0,-1,0
36085,348,-8270,609,-2,0,-1,0
36090,337,-8270,614,-2,0,-1,0
36095,327,-8269,621,-2,-1,-1,0
36100,317,-8264,622,-2,-2,-1,0
36105,308,-8263,617,-2,-2,-1,0
36110,284,-8266,603,-2,-3,-1,0
36115,243,-8263,579,-2,-2,-1,0
36120,254,-8263,551,-2,-1,-1,0
36125,317,-8266,511,-2,-4,-1,0
36130,381,-8270,448,-2,-9,0,0
36135,402,-8273,376,-1,-11,0,0
36140,407,-8277,317,-1,-9,-1,0
36145,397,-8278,276,-2,-7,-1,0
36150,342,-8278,277,-2,-5,-1,0
36155,263,-8276,289,-2,-5,-1,0
36160,161,-8276,313,-2,-3,-1,0
36165,70,-8275,330,-1,0,-1,0
36170,28,-8277,329,-1,3,-1,0
36175,41,-8280,314,-1,4,-1,0
36180,89,-8284,274,-1,4,-1,0
36185,139,-8288,228,-1,3,-1,0
36190,185,-8289,187,-1,3,-1,0
36195,216,-8286,164,-1,3,-2,0
36200,223,-8283,179,-1,2,-2,0
36205,211,-8282,208,-1,1,-2,0
36210,178,-8281,254,-1,-1,-1,0
36215,147,-8281,304,-1,-2,-1,0
36220,130,-8279,341,0,-3,-1,0
36225,129,-8280,375,0,-3,-1,0
36230,142,-8283,387,0,-4,-1,0
36235,170,-8284,400,0,-5,-1,0
36240,203,-8279,414,0,-7,-1,0
36245,239,-8276,438,-1,-9,-1,0
36250,273,-8271,467,-1,-12,-1,0
36255,299,-8271,496,-1,-16,-1,0
36260,323,-8271,520,0,-20,-1,0
36265,342,-8269,531,0,-24,-1,0
36270,358,-8268,532,0,-27,0,0
36275,362,-8267,518,0,-30,0,0
36280,351,-8270,496,0,-32,0,0
36285,326,-8272,485,0,-34,0,0
36290,279,-8272,473,-1,-34,0,0
36295,217,-8275,469,0,-32,-1,0
36300,157,-8277,483,0,-30,-1,0
36305,108,-8279,498,0,-28,-1,0
36310,68,-8276,528,-1,-26,-1,0
36315,41,-8271,560,-1,-24,-1,0
36320,42,-8270,599,-1,-20,-1,0
36325,76,-8268,657,-1,-17,-1,0
36330,135,-8266,706,-1,-16,-1,0
36335,181,-8264,745,-1,-16,-1,0
36340,212,-8263,773,-1,-17,-1,0
36345,215,-8261,791,-1,-16,-2,0
36350,203,-8262,804,-1,-15,-2,0
36355,185,-8264,806,-2,-15,-2,0
36360,154,-8259,804,-2,-14,-1,0
36365,139,-8261,784,-2,-11,-1,0
36370,138,-8261,762,-2,-8,-1,0
36375,153,-8264,731,-2,-6,-1,0
36380,181,-8265,693,-2,-4,-2,0
36385,209,-8267,662,-2,-3,-2,0
36390,235,-8269,640,-2,-3,-2,0
36395,244,-8270,629,-2,-3,-2,0
36400,248,-8271,630,-2,-3,-2,0
36405,254,-8269,633,-2,-3,-2,0
36410,256,-8268,638,-2,-3,-1,0
36415,260,-8271,635,-2,-3,-1,0
36420,271,-8272,630,-2,-3,-1,0
36425,287,-8273,621,-2,-3,-1,0
36430,302,-8276,608,-2,-3,-1,0
36435,315,-8278,603,-2,-4,-1,0
36440,325,-8278,603,-2,-4,-1,0
36445,329,-8275,604,-2,-5,-1,0
36450,327,-8272,613,-2,-5,-1,0
36455,320,-8270,613,-2,-6,-1,0
36460,309,-8269,606,-2,-6,-1,0
36465,297,-8269,591,-2,-7,-1,0
36470,287,-8270,571,-2,-7,-1,0
36475,276,-8272,549,-2,-7,-1,0
36480,270,-8272,532,-2,-7,-1,0
36485,264,-8270,510,-2,-7,-1,0
36490,261,-8269,501,-2,-6,-1,0
36495,257,-8269,498,-2,-7,-1,0
36500,253,-8269,493,-2,-7,-1,0
36505,252,-8269,486,-2,-8,-1,0
36510,249,-8270,479,-2,-8,-1,0
36515,248,-8269,465,-2,-8,-1,0
36520,240,-8273,450,-2,-8,-1,0
36525,230,-8276,434,-2,-9,-1,0
36530,213,-8277,420,-2,-9,-1,0
36535,197,-8278,413,-2,-8,-1,0
36540,175,-8279,402,-2,-8,-1,0
36545,149,-8279,390,-2,-6,-1,0
36550,127,-8279,372,-2,-5,-1,0
36555,117,-8280,359,-2,-4,-1,0
36560,115,-8282,346,-2,-4,-1,0
36565,118,-8279,340,-2,-4,-1,0
36570,127,-8275,343,-2,-3,-1,0
36575,140,-8275,348,-2,-3,-1,0
36580,147,-8276,353,-2,-3,-1,0
36585,149,-8279,361,-1,-4,-1,0
36590,146,-8280,356,-1,-4,-2,0
36595,136,-8281,351,-1,-4,-2,0
36600,125,-8281,352,-2,-4,-1,0
36605,118,-8281,360,-2,-4,-1,0
36610,114,-8280,374,-2,-4,-1,0
36615,113,-8277,395,-1,-4,-2,0
36620,114,-8276,412,-1,-4,-2,0
36625,118,-8274,422,-1,-4,-2,0
36630,123,-8274,429,-1,-4,-2,0
36635,130,-8275,427,-1,-5,-2,0
36640,134,-8277,428,-1,-5,-2,0
36645,137,-8277,424,-1,-6,-2,0
36650,136,-8278,420,-1,-6,-2,0
36655,134,-8276,410,-1,-5,-2,0
36660,133,-8277,400,-1,-5,-2,0
36665,134,-8279,394,-1,-4,-2,0
36670,141,-8280,386,-1,-3,-2,0
36675,152,-8279,394,-1,-2,-2,0
36680,161,-8277,412,-1,-2,-2,0
36685,170,-8276,427,-1,-2,-2,0
36690,173,-8276,434,-1,-2,-2,0
36695,169,-8277,424,-1,-2,-2,0
36700,161,-8278,408,-1,-1,-2,0
36705,157,-8281,393,-1,-1,-2,0
36710,156,-8284,387,-1,0,-2,0
36715,161,-8282,393,-1,0,-2,0
36720,176,-8278,415,-1,0,-2,0
36725,194,-8277,440,-1,0,-2,0
36730,210,-8277,465,-1,-1,-2,0
36735,222,-8274,480,-1,-1,-2,0
36740,223,-8273,485,-1,-2,-2,0
36745,217,-8273,471,-1,-2,-2,0
36750,208,-8273,460,-1,-2,-2,0
36755,200,-8274,455,-1,-2,-2,0
36760,196,-8277,453,-1,-1,-2,0
36765,197,-8275,458,-1,-1,-2,0
36770,201,-8275,469,-1,-1,-2,0
36775,209,-8275,473,-1,-1,-2,0
36780,212,-8274,478,-1,-1,-2,0
36785,210,-8274,477,-1,-1,-2,0
36790,206,-8272,472,-1,-1,-2,0
36795,202,-8273,474,-1,-1,-2,0
36800,200,-8274,478,-1,-1,-2,0
36805,204,-8273,487,-1,0,-2,0
36810,218,-8273,499,-1,0,-2,0
36815,233,-8273,513,-1,-1,-2,0
36820,254,-8272,518,-1,-1,-2,0
36825,265,-8271,516,-1,-1,-2,0
36830,272,-8272,511,-1,-2,-2,0
36835,270,-8272,503,-1,-2,-2,0
36840,266,-8274,493,-1,-2,-2,0
36845,261,-8275,489,-1,-1,-2,0
36850,254,-8274,488,-1,-1,-2,0
36855,245,-8273,500,-2,-1,-2,0
36860,239,-8273,506,-1,-1,-2,0
36865,233,-8275,513,-1,-1,-2,0
36870,229,-8274,520,-1,-1,-2,0
36875,229,-8273,516,-1,-1,-2,0
36880,228,-8271,506,-1,-2,-2,0
36885,231,-8273,498,-1,-2,-2,0
36890,236,-8272,497,-1,-2,-2,0
36895,242,-8270,500,-2,-2,-2,0
36900,248,-8267,502,-2,-3,-2,0
36905,247,-8265,499,-2,-3,-2,0
36910,242,-8268,499,-2,-3,-2,0
36915,233,-8271,502,-2,-3,-2,0
36920,224,-8272,503,-2,-3,-2,0
36925,216,-8271,505,-2,-3,-2,0
36930,207,-8274,512,-2,-4,-2,0
36935,202,-8272,514,-2,-4,-2,0
36940,198,-8269,523,-2,-4,-2,0
36945,195,-8271,522,-2,-4,-2,0
36950,188,-8270,510,-2,-4,-2,0
36955,179,-8269,494,-2,-4,-2,0
36960,170,-8272,473,-2,-4,-2,0
36965,163,-8273,445,-2,-4,-2,0
36970,154,-8271,425,-2,-3,-2,0
36975,156,-8274,415,-2,-2,-2,0
36980,161,-8277,416,-2,-1,-2,0
36985,169,-8276,413,-2,-1,-2,0
36990,180,-8275,419,-1,-1,-2,0
36995,187,-8276,420,-1,-1,-2,0
37000,192,-8275,417,-1,-1,-2,0
37005,198,-8271,408,-1,-1,-2,0
37010,205,-8267,398,-1,0,-2,0
37015,210,-8267,385,-1,-1,-2,0
37020,214,-8267,380,-1,-1,-2,0
37025,219,-8266,382,-1,-1,-2,0
37030,223,-8267,383,-1,-1,-2,0
37035,228,-8268,387,-1,-1,-2,0
37040,231,-8270,391,-1,-2,-2,0
37045,228,-8271,385,-1,-2,-2,0
37050,223,-8274,374,-1,-2,-2,0
37055,215,-8279,360,-1,-1,-2,0
37060,212,-8284,343,-1,-1,-2,0
37065,208,-8283,336,-1,-1,-2,0
37070,207,-8284,339,-1,-1,-2,0
37075,209,-8283,354,-1,0,-2,0
37080,220,-8282,375,-1,0,-2,0
37085,231,-8282,393,-1,0,-2,0
37090,238,-8283,408,-1,-1,-2,0
37095,245,-8284,416,-1,-1,-2,0
37100,249,-8287,427,-1,-1,-2,0
37105,251,-8288,432,-1,-1,-2,0
37110,246,-8289,438,-1,-1,-2,0
37115,238,-8285,438,-1,-1,-2,0
37120,236,-8283,441,-1,-1,-2,0
37125,230,-8280,442,-1,-1,-2,0
37130,228,-8276,446,-1,-1,-2,0
37135,236,-8274,455,-1,-1,-2,0
37140,248,-8273,462,-1,-1,-2,0
37145,262,-8272,472,-1,-1,-2,0
37150,270,-8272,474,-1,-2,-2,0
37155,271,-8272,471,-1,-2,-2,0
37160,263,-8272,465,-1,-2,-2,0
37165,256,-8272,462,-1,-1,-2,0
37170,248,-8271,461,-1,-1,-2,0
37175,243,-8270,466,-1,-2,-2,0
37180,243,-8271,477,-1,-2,-2,0
37185,247,-8268,496,-1,-2,-2,0
37190,250,-8266,509,-1,-2,-2,0
37195,245,-8266,512,-1,-2,-2,0
37200,234,-8270,504,-1,-2,-2,0
37205,222,-8270,488,-1,-2,-2,0
37210,211,-8270,479,-1,-1,-2,0
37215,205,-8269,476,-1,-1,-2,0
37220,207,-8269,475,-1,-1,-2,0
37225,223,-8268,481,-1,-1,-2,0
37230,241,-8268,500,-1,-1,-2,0
37235,263,-8271,517,-1,-1,-2,0
37240,272,-8271,530,-1,-2,-2,0
37245,265,-8270,523,-1,-3,-2,0
37250,246,-8273,504,-1,-3,-2,0
37255,224,-8275,480,-1,-2,-2,0
37260,206,-8277,459,-1,-2,-2,0
37265,197,-8277,442,-1,-1,-2,0
37270,201,-8277,446,-1,-1,-2,0
37275,216,-8277,460,-1,-1,-2,0
37280,239,-8276,481,-1,-2,-2,0
37285,254,-8275,491,-1,-2,-2,0
37290,263,-8275,491,-1,-3,-2,0
37295,253,-8275,484,-1,-3,-2,0
37300,227,-8278,462,-1,-3,-2,0
37305,202,-8278,435,-1,-3,-2,0
37310,181,-8277,416,-1,-2,-2,0
37315,173,-8277,405,-1,-1,-2,0
37320,177,-8277,404,-1,-1,-2,0
37325,195,-8275,411,-1,-1,-2,0
37330,215,-8276,429,-1,-1,-2,0
37335,229,-8275,442,-1,-2,-2,0
37340,233,-8276,447,-1,-2,-2,0
37345,226,-8276,450,-1,-2,-2,0
37350,206,-8277,444,-1,-3,-2,0
37355,182,-8280,430,-1,-3,-2,0
37360,164,-8281,407,-1,-2,-2,0
37365,161,-8283,397,-1,-2,-2,0
37370,169,-8283,395,-1,-2,-2,0
37375,186,-8281,399,-1,-1,-2,0
37380,210,-8278,411,-1,-1,-2,0
37385,226,-8279,418,-1,-2,-2,0
37390,232,-8275,421,-1,-2,-2,0
37395,230,-8277,417,-1,-2,-2,0
37400,220,-8279,409,-1,-2,-2,0
37405,205,-8281,409,-1,-2,-2,0
37410,189,-8280,409,-1,-2,-2,0
37415,183,-8280,413,-1,-1,-2,0
37420,188,-8283,420,-1,-1,-2,0
37425,200,-8283,424,-1,0,-2,0
37430,212,-8280,429,-1,-1,-2,0
37435,226,-8281,429,-1,-1,-2,0
37440,237,-8281,431,-1,-1,-2,0
37445,243,-8282,433,-1,-1,-2,0
37450,241,-8281,433,-1,-2,-2,0
37455,235,-8281,436,-1,-1,-2,0
37460,231,-8282,437,-1,-1,-2,0
37465,229,-8283,445,-1,-1,-2,0
37470,228,-8279,455,-1,-1,-2,0
37475,227,-8274,462,-1,-1,-2,0
37480,227,-8270,472,-1,0,-2,0
37485,232,-8271,476,-1,-1,-2,0
37490,235,-8273,483,-1,-1,-2,0
37495,239,-8274,487,-1,-2,-2,0
37500,238,-8274,490,-1,-2,-2,0
37505,238,-8274,486,-1,-2,-2,0
37510,242,-8275,487,-1,-2,-2,0
37515,248,-8278,487,-1,-2,-2,0
37520,254,-8279,492,-1,-2,-2,0
37525,259,-8279,501,-1,-2,-2,0
37530,259,-8276,513,-1,-2,-2,0
37535,258,-8277,518,-1,-2,-2,0
37540,255,-8279,527,-1,-2,-2,0
37545,254,-8280,537,-1,-2,-2,0
37550,256,-8280,540,-1,-2,-2,0
37555,255,-8280,545,-1,-2,-2,0
37560,253,-8279,543,-1,-2,-2,0
37565,250,-8279,547,-1,-2,-2,0
37570,246,-8279,552,-1,-2,-2,0
37575,247,-8278,564,-1,-2,-2,0
37580,247,-8275,569,-1,-2,-2,0
37585,247,-8274,571,-1,-2,-2,0
37590,244,-8273,571,-1,-2,-2,0
37595,244,-8276,575,-1,-2,-2,0
37600,244,-8279,573,-1,-2,-2,0
37605,241,-8280,573,-1,-2,-2,0
37610,245,-8278,579,-1,-2,-2,0
37615,252,-8273,581,-1,-2,-2,0
37620,258,-8269,584,-1,-2,-2,0
37625,258,-8270,584,-1,-2,-2,0
37630,252,-8273,576,-1,-2,-2,0
37635,243,-8274,558,-1,-2,-2,0
37640,231,-8276,543,-1,-2,-2,0
37645,219,-8277,533,-1,-2,-2,0
37650,213,-8278,522,-2,-2,-2,0
37655,215,-8277,520,-2,-2,-2,0
37660,227,-8277,532,-1,-2,-2,0
37665,237,-8276,542,-2,-2,-2,0
37670,240,-8273,548,-1,-3,-2,0
37675,240,-8271,545,-1,-3,-2,0
37680,235,-8270,535,-1,-3,-2,0
37685,227,-8270,525,-1,-3,-2,0
37690,220,-8268,508,-1,-3,-2,0
37695,209,-8268,491,-2,-3,-1,0
37700,199,-8267,476,-2,-2,-2,0
37705,194,-8268,475,-2,-2,-2,0
37710,196,-8270,475,-2,-1,-2,0
37715,197,-8271,474,-1,-1,-2,0
37720,197,-8272,467,-1,-1,-2,0
37725,197,-8275,456,-1,-1,-2,0
37730,196,-8276,437,-1,-1,-2,0
37735,194,-8277,423,-1,-1,-2,0
37740,193,-8275,413,-1,-1,-2,0
37745,194,-8275,405,-1,-1,-2,0
37750,194,-8273,402,-1,-2,-2,0
37755,194,-8275,403,-1,-2,-2,0
37760,194,-8274,404,-1,-2,-2,0
37765,198,-8272,404,-1,-2,-2,0
37770,204,-8273,410,-1,-2,-2,0
37775,205,-8276,413,-1,-2,-2,0
37780,207,-8276,416,-1,-2,-2,0
37785,206,-8278,409,-1,-2,-2,0
37790,201,-8278,406,-1,-2,-2,0
37795,197,-8281,402,-1,-2,-2,0
37800,193,-8278,395,-1,-2,-2,0
37805,189,-8275,397,-1,-1,-2,0
37810,186,-8272,397,-1,-1,-2,0
37815,197,-8272,400,-1,-1,-2,0
37820,206,-8274,408,-1,-1,-2,0
37825,212,-8274,411,-1,-1,-2,0
37830,219,-8274,417,-1,-1,-2,0
37835,224,-8273,429,-1,-1,-2,0
37840,228,-8275,441,-1,-1,-2,0
37845,224,-8274,451,-1,-2,-2,0
37850,226,-8272,456,-1,-2,-2,0
37855,230,-8272,461,-1,-2,-2,0
37860,233,-8276,465,-1,-2,-2,0
37865,238,-8275,468,-1,-2,-2,0
37870,243,-8274,469,-1,-2,-2,0
37875,247,-8273,471,-1,-2,-2,0
37880,249,-8271,475,-1,-2,-2,0
37885,249,-8271,483,-1,-2,-2,0
37890,247,-8273,483,-1,-2,-2,0
37895,244,-8274,486,-1,-2,-2,0
37900,242,-8275,488,-1,-2,-2,0
37905,243,-8277,483,-1,-2,-2,0
37910,243,-8277,482,-1,-2,-2,0
37915,245,-8278,488,-1,-2,-2,0
37920,249,-8276,504,-1,-1,-2,0
37925,249,-8274,521,-1,-2,-2,0
37930,253,-8276,533,-1,-2,-2,0
37935,260,-8273,535,-1,-2,-2,0
37940,265,-8275,531,-1,-2,-2,0
37945,268,-8274,530,-1,-3,-2,0
37950,271,-8276,525,-1,-3,-2,0
37955,274,-8277,522,-1,-3,-2,0
37960,273,-8276,512,-1,-3,-2,0
37965,270,-8276,511,-1,-3,-2,0
37970,266,-8273,508,-1,-3,-2,0
37975,264,-8273,505,-1,-3,-2,0
37980,262,-8270,502,-1,-3,-2,0
37985,259,-8271,497,-1,-3,-2,0
37990,250,-8272,493,-1,-3,-2,0
37995,239,-8270,489,-1,-2,-2,0
38000,226,-8266,485,-1,-2,-2,0
38005,219,-8266,486,-1,-2,-2,0
38010,213,-8267,484,-1,-2,-2,0
38015,214,-8269,484,-1,-2,-2,0
38020,216,-8272,485,-1,-2,-2,0
38025,220,-8273,482,-1,-2,-2,0
38030,224,-8272,478,-1,-2,-2,0
38035,231,-8273,477,-1,-2,-2,0
38040,232,-8275,470,-1,-2,-2,0
38045,231,-8277,464,-1,-2,-2,0
38050,227,-8278,454,-1,-2,-2,0
38055,221,-8276,445,-1,-2,-2,0
38060,215,-8277,437,-1,-2,-2,0
38065,213,-8275,432,-1,-2,-2,0
38070,212,-8274,433,-1,-2,-2,0
38075,214,-8274,429,-1,-2,-2,0
38080,218,-8277,428,-1,-2,-2,0
38085,221,-8277,436,-1,-2,-2,0
38090,222,-8275,440,-1,-2,-2,0
38095,220,-8273,442,-1,-2,-2,0
38100,218,-8275,437,-1,-2,-2,0
38105,214,-8277,435,-1,-2,-2,0
38110,209,-8280,430,-1,-1,-2,0
38115,211,-8280,425,-1,-1,-2,0
38120,211,-8280,422,-1,-2,-2,0
38125,213,-8278,421,-1,-2,-2,0
38130,218,-8279,428,-1,-2,-2,0
38135,219,-8279,430,-1,-2,-2,0
38140,220,-8277,431,-1,-2,-2,0
38145,218,-8276,435,-1,-2,-2,0
38150,212,-8272,437,-1,-2,-2,0
38155,212,-8273,439,-1,-2,-2,0
38160,214,-8275,444,-1,-2,-2,0
38165,220,-8276,449,-1,-2,-2,0
38170,232,-8275,444,-1,-2,-2,0
38175,240,-8277,439,-1,-2,-2,0
38180,242,-8278,427,-1,-2,-2,0
38185,238,-8278,414,-1,-2,-2,0
38190,233,-8278,409,-1,-2,-2,0
38195,228,-8277,413,-1,-1,-2,0
38200,226,-8278,425,-1,-1,-2,0
38205,230,-8279,440,-1,-1,-2,0
38210,238,-8280,456,-1,-1,-2,0
38215,250,-8280,466,-1,-1,-2,0
38220,257,-8279,474,-1,-2,-2,0
38225,261,-8278,476,-1,-2,-2,0
38230,261,-8279,467,-1,-2,-2,0
38235,254,-8278,463,-1,-2,-2,0
38240,246,-8277,462,-1,-2,-2,0
38244,242,-8278,465,-1,-2,-2,0
38250,243,-8276,466,-1,-2,-2,0
38254,245,-8276,472,-1,-1,-2,0
38260,249,-8276,472,-1,-1,-2,0
38265,253,-8278,465,-1,-2,-2,0
38270,258,-8279,462,-1,-2,-2,0
38275,260,-8276,461,-1,-2,-2,0
38280,258,-8274,460,-1,-2,-2,0
38285,255,-8271,463,-1,-2,-2,0
38290,254,-8271,466,-1,-1,-2,0
38295,255,-8271,473,-1,-1,-2,0
38300,254,-8273,478,-1,-1,-2,0
38305,258,-8273,482,-1,-1,-2,0
38310,260,-8272,488,-1,-2,-2,0
38314,259,-8275,491,-1,-2,-2,0
38320,259,-8276,491,-1,-2,-2,0
38325,260,-8275,493,-1,-2,-2,3
38329,261,-8276,492,-1,-2,-2,3
38334,261,-8278,491,-1,-2,-2,3
38339,262,-8278,494,-1,-2,-2,3
38345,262,-8276,496,-1,-3,-2,3
38350,257,-8272,494,-1,-3,-2,3
38355,249,-8273,488,-1,-3,-2,3
38360,244,-8271,482,-1,-3,-2,3
38365,241,-8270,477,-1,-3,-2,3
38370,239,-8271,471,-1,-3,-2,3
38375,241,-8270,463,-1,-3,-2,3
38380,238,-8270,462,-1,-3,-2,3
38384,237,-8273,466,-1,-2,-2,3
38389,233,-8275,469,-1,-2,-2,3
38395,232,-8277,473,-1,-2,-2,3
38399,231,-8280,471,-1,-1,-2,3
38405,233,-8281,468,-1,-2,-2,3
38409,234,-8284,469,-1,-1,-2,3
38415,237,-8283,473,-1,-1,-2,3
38419,240,-8283,475,-1,-1,-2,3
38425,241,-8281,478,-1,-2,-2,3
38429,239,-8281,475,-1,-2,-2,3
38434,235,-8283,472,-1,-2,-2,3
38440,231,-8283,471,-1,-2,-2,3
38445,227,-8284,466,-1,-2,-2,3
38449,222,-8283,465,-1,-2,-2,3
38455,220,-8281,467,-1,-2,-2,3
38460,217,-8279,469,-1,-2,-2,3
38464,214,-8279,465,-1,-1,-2,3
38470,215,-8278,463,-1,-1,-2,3
38474,216,-8275,461,-1,-1,-2,3
38479,219,-8272,464,-1,-1,-2,3
38484,224,-8269,462,-1,-1,-2,3
38489,230,-8271,465,-1,-2,-2,3
38494,229,-8271,463,-1,-2,-2,3
38499,231,-8271,460,-1,-1,-2,3
38504,232,-8269,459,-1,-1,-2,3
38509,239,-8269,462,-1,-2,-2,3
38514,239,-8270,466,-1,-2,-2,3
38519,240,-8272,474,-1,-2,-2,3
38524,242,-8274,480,-1,-2,-2,3
38529,242,-8273,484,-1,-2,-2,3
38534,235,-8270,483,-1,-2,-2,3
38539,227,-8269,479,-1,-2,-2,3
38544,222,-8272,480,-1,-1,-2,3
38549,221,-8274,479,-1,-1,-2,3
38554,223,-8275,474,-1,-1,-2,3
38559,232,-8273,476,-1,-1,-2,3
38564,248,-8273,475,-1,-1,-2,3
38569,267,-8275,476,-1,-1,-2,3
38574,290,-8276,473,-1,-1,-2,3
38579,314,-8275,466,-1,-1,-1,3
38584,340,-8274,460,-1,-1,-1,3
38589,362,-8275,448,-1,-2,-1,3
38594,382,-8274,443,-1,-2,-1,3
38599,394,-8273,433,-1,-2,-1,3
38604,399,-8272,432,-1,-2,-1,3
38609,402,-8272,438,-1,-2,-1,3
38614,400,-8272,447,-1,-2,-1,3
38619,395,-8271,455,-1,-2,-1,3
38624,394,-8272,461,-1,-2,-1,3
38629,393,-8273,463,-1,-2,-1,3
38634,398,-8274,471,-1,-1,-1,3
38639,403,-8274,483,-1,-1,-1,3
38644,400,-8275,495,-1,-2,-1,3
38649,395,-8275,505,-1,-2,-1,3
38654,386,-8274,516,-1,-2,-1,3
38659,371,-8272,527,-1,-2,-1,3
38664,353,-8271,537,-1,-1,-1,3
38669,338,-8270,551,-1,-1,-1,3
38674,325,-8269,562,-1,-1,-1,3
38679,314,-8267,570,-1,-1,0,3
38684,305,-8265,582,-1,-1,-1,3
38689,299,-8264,600,-2,-1,-1,3
38694,287,-8265,617,-2,-2,-1,3
38699,267,-8268,631,-2,-2,-1,3
38704,245,-8270,646,-2,-2,-1,3
38709,218,-8270,660,-2,-2,-1,3
38714,193,-8269,663,-2,-2,-1,3
38719,168,-8268,662,-2,-2,-1,3
38724,150,-8270,657,-2,-2,-1,3
38729,137,-8272,651,-2,-2,-1,3
38734,121,-8272,652,-2,-2,-1,3
38739,109,-8271,654,-2,-2,-1,3
38744,98,-8272,656,-2,-2,-1,3
38749,81,-8271,651,-2,-2,-1,3
38754,61,-8270,642,-2,-2,-1,3
38759,47,-8270,613,-2,-1,-1,3
38764,40,-8272,579,-2,-1,-1,3
38769,36,-8275,539,-2,0,-1,3
38774,37,-8277,492,-2,0,-1,3
38779,46,-8280,457,-2,1,-2,3
38784,62,-8282,434,-2,2,-2,3
38789,78,-8283,416,-2,3,-2,3
38794,98,-8282,404,-2,3,-2,3
38799,119,-8282,397,-2,4,-2,3
38804,137,-8280,386,-2,5,-2,3
38809,152,-8281,375,-2,5,-2,3
38814,163,-8283,367,-2,6,-2,3
38819,171,-8284,360,-2,6,-2,3
38824,176,-8283,353,-2,6,-2,3
38829,172,-8281,354,-2,6,-2,3
38834,164,-8280,357,-2,6,-2,3
38839,155,-8276,369,-2,7,-2,3
38844,148,-8274,383,-2,7,-2,3
38849,144,-8273,394,-2,8,-2,3
38854,144,-8270,404,-2,9,-2,3
38859,149,-8269,416,-2,9,-2,3
38864,163,-8269,429,-2,10,-2,3
38869,186,-8270,443,-2,10,-2,3
38874,219,-8271,456,-2,10,-2,3
38879,259,-8272,472,-2,10,-2,3
38884,300,-8273,479,-2,9,-2,3
38889,335,-8273,491,-2,8,-2,3
38894,361,-8275,496,-2,8,-1,3
38899,378,-8274,492,-2,6,-1,3
38904,379,-8273,487,-2,5,-1,3
38909,367,-8273,484,-2,5,-1,3
38914,343,-8271,483,-2,5,-1,3
38919,313,-8272,475,-2,5,-1,3
38924,282,-8275,467,-2,6,-1,3
38929,261,-8276,461,-2,8,-1,3
38934,253,-8274,457,-2,9,-1,3
38939,261,-8275,451,-2,10,-1,3
38944,282,-8276,441,-2,11,-1,3
38949,318,-8278,431,-2,11,-1,3
38954,357,-8279,417,-2,11,-1,3
38959,396,-8278,399,-2,11,-1,3
38964,425,-8279,380,-2,11,-1,3
38969,439,-8276,361,-2,11,-1,3
38974,438,-8275,338,-2,11,-1,3
38979,423,-8277,318,-2,11,-1,3
38984,395,-8279,306,-2,10,-1,3
38989,361,-8280,290,-2,9,0,3
38994,327,-8280,266,-2,8,0,3
38999,297,-8281,229,-1,8,0,3
39004,271,-8294,183,-1,8,0,3
39009,261,-8361,133,-1,9,0,3
39014,268,-8479,98,-1,10,0,3
39019,266,-8616,106,-1,11,0,3
39024,250,-8748,139,-1,12,0,3
39029,218,-8857,190,-1,12,0,3
39034,172,-8953,233,-1,11,0,3
39039,115,-9052,271,-1,11,0,3
39044,51,-9165,306,-1,12,0,3
39049,-20,-9294,350,-1,14,-1,3
39054,-98,-9436,399,-1,15,-1,3
39059,-169,-9597,461,-1,16,-1,3
39064,-220,-9770,520,-2,17,-1,3
39069,-253,-9946,582,-2,16,-2,3
39074,-276,-10110,646,-2,14,-2,3
39079,-297,-10249,715,-2,11,-2,3
39084,-321,-10353,791,-3,8,-2,3
39089,-352,-10411,863,-3,5,-2,3
39094,-381,-10424,920,-4,3,-3,3
39099,-410,-10389,959,-4,1,-3,3
39104,-451,-10318,984,-5,1,-3,3
39109,-440,-10210,974,-5,1,-4,3
39114,-444,-10069,973,-5,3,-4,3
39119,-410,-9900,950,-6,3,-4,3
39124,-381,-9706,926,-6,3,-5,3
39129,-327,-9495,886,-7,3,-5,3
39134,-285,-9271,836,-7,4,-5,3
39139,-242,-9037,767,-7,5,-5,3
39144,-203,-8789,691,-7,5,-6,3
39149,-149,-8531,603,-8,6,-6,3
39154,-93,-8255,506,-8,7,-6,3
39159,-25,-7961,395,-8,8,-6,3
39164,44,-7645,275,-7,10,-6,3
39169,115,-7303,143,-7,11,-6,3
39174,191,-6940,19,-7,12,-6,3
39179,274,-6552,-82,-7,13,-6,3
39184,365,-6150,-164,-7,13,-6,3
39189,462,-5747,-252,-6,12,-6,3
39194,561,-5349,-369,-6,10,-6,3
39199,654,-4961,-537,-5,8,-5,3
39204,749,-4580,-739,-4,8,-5,3
39209,853,-4199,-944,-4,9,-5,3
39214,963,-3826,-1125,-3,11,-4,3
39219,1071,-3461,-1276,-2,12,-4,3
39224,1169,-3111,-1403,-1,12,-3,3
39229,1258,-2789,-1522,1,11,-2,3
39234,1331,-2497,-1642,2,11,-2,3
39239,1393,-2237,-1753,3,11,-1,3
39244,1454,-2021,-1852,4,11,0,3
39249,1519,-1854,-1927,6,10,1,3
39254,1567,-1754,-1970,7,9,2,3
39259,1573,-1739,-1974,8,9,4,3
39264,1529,-1826,-1926,10,8,5,3
39269,1413,-2021,-1820,11,8,8,3
39274,1471,-2322,-1706,12,10,9,3
39279,1718,-4330,-1833,14,22,9,3
39284,830,-5287,-821,20,28,10,3
39289,1639,-2192,134,5,-73,8,3
39294,1370,-4219,834,-3,-226,7,3
39299,-850,-2572,1378,-6,-249,4,3
39304,-1531,-4545,2228,-5,-186,-3,3
39309,-3371,-4229,2646,-4,-66,-6,3
39314,-3490,-4977,2402,3,37,-8,3
39319,-3686,-5459,1901,3,146,-10,3
39324,-3500,-6286,2051,3,204,-11,3
39329,-2767,-7501,1484,-1,217,-11,3
39334,-2054,-8769,2182,-4,177,-8,3
39339,-980,-9857,2255,-8,105,-7,3
39344,-173,-10789,2768,-8,51,-7,3
39349,289,-11588,3096,-9,12,-6,3
39354,255,-12161,3421,-9,-23,-5,3
39359,-10,-12292,3585,-10,-56,-3,3
39364,-495,-12125,3500,-11,-67,-2,3
39369,-963,-11808,3313,-12,-56,-3,3
39374,-1371,-11457,2827,-14,-31,-4,3
39379,-1465,-11091,2597,-15,-4,-5,3
39384,-1359,-10718,2236,-16,19,-7,3
39389,-1096,-10305,2052,-16,27,-8,3
39394,-808,-9831,1884,-16,20,-9,3
39399,-539,-9285,1667,-16,5,-8,3
39404,-345,-8662,1345,-16,-8,-8,3
39409,-243,-7959,996,-16,-15,-8,3
39414,-149,-7186,543,-16,-16,-8,3
39419,-70,-6363,75,-15,-10,-8,3
39424,53,-5502,-342,-14,-1,-8,3
39429,264,-4642,-828,-13,11,-8,3
39434,521,-3804,-1202,-12,23,-8,3
39439,819,-3007,-1556,-10,31,-7,3
39444,1151,-2268,-1905,-8,35,-6,3
39449,1431,-1601,-2129,-7,36,-5,3
39454,1661,-1005,-2307,-5,35,-3,3
39459,1834,-482,-2469,-3,34,-1,3
39464,1990,-27,-2553,0,32,1,3
39469,2263,354,-2620,2,33,3,3
39474,2537,648,-2681,3,36,3,3
39479,2739,850,-2664,5,33,5,3
39484,2841,976,-2661,6,20,7,3
39489,2838,1042,-2622,8,8,10,3
39494,2773,1046,-2540,9,1,13,3
39499,2700,973,-2466,11,1,15,3
39504,2595,803,-2346,12,4,16,3
39509,2473,504,-2187,14,3,18,3
39514,2395,96,-2036,15,-8,20,3
39519,2005,-2257,148,26,-24,24,3
39524,1178,-593,108,9,-37,26,3
39529,1658,1831,1459,1,-207,15,3
39534,790,-770,3431,-3,-332,13,3
39539,-1492,1310,4319,-11,-299,12,3
39544,-2681,942,3593,-7,-201,-3,3
39549,-3802,-554,3473,1,-55,-11,3
39554,-4183,-1797,3250,7,83,-14,3
39559,-4446,-2876,2908,12,192,-14,3
39564,-3905,-3714,2136,10,208,-10,3
39569,-2909,-4327,1658,6,174,-6,3
39574,-2258,-4838,1504,2,120,0,3
39579,-1009,-5290,1231,-2,52,2,3
39584,127,-5689,1166,-4,23,3,3
39589,777,-6071,1164,-5,16,1,3
39594,1945,-6342,1524,-4,12,-3,3
39599,2552,-6608,1621,-2,19,-7,3
39604,2687,-6818,1862,0,-13,-7,3
39609,2502,-6998,1768,0,-50,-5,3
39614,2060,-7186,1516,-1,-69,-3,3
39619,1488,-7336,1432,-1,-63,-2,3
39624,1029,-7479,1177,-2,-41,-2,3
39629,658,-7596,1033,-2,-18,-2,3
39634,431,-7688,1001,-2,-2,-2,3
39639,310,-7771,930,-3,2,-1,3
39644,262,-7834,973,-3,-2,0,3
39649,271,-7898,961,-3,-3,1,3
39654,334,-7952,960,-2,-3,1,3
39659,440,-7989,1005,-2,-2,1,3
39664,525,-8031,900,-2,-3,0,3
39669,578,-8061,863,-2,-8,0,3
39674,572,-8094,756,-2,-10,0,3
39679,523,-8120,673,-3,-15,0,3
39684,421,-8141,681,-3,-19,0,3
39689,322,-8163,655,-4,-18,1,3
39694,253,-8171,720,-4,-17,1,3
39699,186,-8184,746,-4,-14,0,3
39704,187,-8195,751,-3,-14,0,3
39709,182,-8199,767,-3,-15,0,3
39714,157,-8211,714,-3,-17,1,3
39719,153,-8217,679,-3,-19,1,3
39724,103,-8226,599,-3,-20,1,3
39729,60,-8236,516,-4,-20,1,3
39734,20,-8241,456,-4,-19,0,3
39739,-44,-8248,373,-4,-18,0,3
39744,-83,-8249,327,-3,-16,0,3
39749,-122,-8253,264,-3,-14,0,3
39754,-158,-8257,239,-3,-14,0,3
39759,-165,-8259,198,-3,-13,0,3
39764,-173,-8264,156,-3,-12,0,3
39769,-182,-8267,160,-3,-12,-1,3
39774,-164,-8278,105,-3,-12,-1,3
39779,-153,-8280,92,-3,-12,-1,3
39784,-150,-8278,83,-3,-13,-1,3
39789,-140,-8280,50,-3,-13,-1,3
39794,-155,-8280,49,-3,-13,-1,3
39799,-178,-8282,27,-3,-13,-1,3
39804,-180,-8283,4,-3,-12,-1,3
39809,-194,-8283,-18,-2,-10,-1,3
39814,-197,-8289,-54,-2,-9,-1,3
39819,-184,-8291,-82,-2,-9,-1,3
39824,-192,-8289,-109,-2,-8,-1,3
39829,-196,-8291,-123,-2,-7,-2,3
39834,-192,-8291,-133,-2,-6,-2,3
39839,-209,-8288,-134,-2,-6,-2,3
39844,-226,-8286,-129,-2,-5,-2,3
39849,-226,-8287,-131,-2,-4,-2,3
39854,-253,-8285,-112,-1,-4,-2,3
39859,-268,-8283,-113,-1,-3,-2,3
39864,-268,-8282,-114,-1,-2,-3,3
39869,-293,-8282,-96,-1,-1,-3,3
39874,-289,-8281,-108,-1,0,-3,3
39879,-291,-8283,-104,-1,1,-3,3
39884,-315,-8284,-87,-1,2,-3,3
39889,-309,-8285,-92,-1,2,-3,3
39894,-313,-8284,-74,-1,3,-3,3
39899,-321,-8283,-61,-1,4,-3,3
39904,-299,-8283,-63,-1,4,-4,3
39909,-285,-8281,-45,-1,5,-4,3
39914,-270,-8282,-31,-1,6,-4,3
39919,-242,-8281,-30,0,6,-4,3
39924,-225,-8281,-15,0,6,-4,3
39929,-219,-8280,7,0,6,-4,3
39934,-198,-8281,20,0,6,-4,3
39939,-181,-8279,38,0,7,-4,3
39944,-180,-8279,70,0,7,-4,3
39949,-158,-8277,95,0,7,-4,3
39954,-136,-8272,124,0,8,-4,3
39959,-116,-8267,155,0,8,-4,3
39964,-66,-8265,178,0,8,-4,3
39969,-33,-8261,205,0,8,-4,3
39974,12,-8260,225,0,8,-4,3
39979,70,-8259,235,0,7,-4,3
39984,97,-8259,254,0,6,-4,3
39989,133,-8259,262,0,5,-4,3
39994,159,-8260,277,0,5,-4,3
39999,162,-8262,299,-1,5,-4,3
40004,172,-8263,309,-1,4,-4,3
40009,191,-8263,319,-1,5,-4,3
40014,198,-8265,334,-1,5,-4,3
40019,221,-8266,344,-1,5,-4,3
40024,251,-8270,352,-1,5,-4,3
40029,265,-8269,367,-1,4,-4,3
40034,290,-8271,381,-1,4,-4,3
40039,319,-8269,387,-1,3,-4,3
40044,333,-8270,412,-1,3,-4,3
40049,367,-8268,427,-1,2,-3,3
40054,400,-8267,431,-1,1,-3,3
40059,415,-8266,447,-1,0,-3,3
40064,445,-8268,448,-1,-1,-3,3
40069,466,-8269,447,-1,-1,-3,3
40074,472,-8270,457,-1,-2,-3,3
40079,489,-8273,455,-2,-2,-3,3
40084,488,-8272,458,-2,-2,-3,3
40089,475,-8274,462,-2,-2,-3,3
40094,470,-8276,451,-2,-2,-3,3
40099,453,-8273,434,-2,-2,-3,3
40104,437,-8273,427,-2,-1,-2,3
40109,437,-8272,404,-2,-2,-2,3
40114,429,-8273,389,-2,-1,-2,3
40119,426,-8275,383,-2,-1,-2,3
40124,439,-8278,368,-2,-2,-2,3
40129,437,-8279,370,-2,-2,-2,3
40134,434,-8278,377,-2,-2,-2,3
40139,438,-8278,358,-2,-3,-2,3
40144,422,-8281,358,-2,-3,-2,3
40149,403,-8285,349,-2,-3,-2,3
40154,396,-8287,328,-2,-3,-2,3
40159,376,-8284,334,-2,-2,-2,3
40164,367,-8283,341,-2,-3,-2,3
40169,372,-8281,339,-2,-3,-2,3
40174,360,-8279,358,-2,-3,-2,3
40179,361,-8278,364,-2,-4,-2,3
40184,358,-8279,356,-2,-4,-2,3
40189,338,-8277,365,-2,-4,-2,3
40194,330,-8279,354,-2,-5,-1,3
40199,319,-8278,338,-2,-6,-1,3
40204,300,-8275,337,-2,-6,-1,3
40209,292,-8277,323,-3,-6,-1,3
40214,286,-8278,315,-3,-6,-1,3
40219,282,-8276,321,-3,-6,-1,3
40224,291,-8278,309,-3,-6,-1,3
40229,297,-8277,303,-3,-6,-1,3
40234,300,-8277,296,-2,-6,-1,3
40239,310,-8277,264,-2,-7,-1,3
40244,310,-8280,241,-2,-7,-1,3
40249,302,-8282,224,-2,-7,-1,3
40254,306,-8282,202,-2,-7,-1,3
40259,295,-8283,188,-2,-7,-1,3
40264,273,-8282,181,-2,-7,-1,3
40269,261,-8282,158,-2,-6,-1,3
40274,241,-8281,159,-2,-6,-1,3
40279,223,-8283,162,-2,-5,-1,3
40284,219,-8286,147,-2,-6,-1,3
40289,200,-8285,154,-2,-5,-1,3
40294,195,-8285,147,-2,-5,-1,3
40299,204,-8283,141,-2,-5,-1,3
40304,208,-8283,152,-2,-4,-1,3
40309,221,-8283,157,-2,-5,-1,3
40314,242,-8283,156,-2,-5,-1,3
40319,250,-8281,165,-2,-5,-1,3
40324,258,-8281,156,-2,-5,-1,0
40329,263,-8285,148,-2,-6,-1,0
40334,258,-8285,151,-2,-6,-1,0
40339,254,-8284,139,-2,-6,-1,0
40344,254,-8283,142,-2,-6,-1,0
40349,245,-8282,151,-2,-6,-1,0
40354,247,-8285,145,-2,-7,-1,0
40359,234,-8287,135,-2,-7,-1,0
40364,212,-8284,133,-2,-7,-1,0
40369,197,-8280,106,-2,-7,-1,0
40374,174,-8281,83,-2,-7,-1,0
40379,145,-8280,78,-2,-6,-1,0
40384,135,-8281,62,-2,-6,-1,0
40389,122,-8281,64,-2,-5,-1,0
40394,119,-8283,70,-2,-5,-1,0
40399,132,-8284,67,-2,-5,-1,0
40404,134,-8284,77,-2,-5,-1,0
40409,143,-8281,82,-2,-6,-1,0
40414,154,-8281,78,-2,-6,-1,0
40419,150,-8280,84,-2,-7,-1,0
40424,146,-8283,79,-2,-8,-1,0
40429,140,-8285,65,-2,-8,-1,0
40434,123,-8283,71,-2,-8,-1,0
40439,106,-8281,64,-2,-8,-1,0
40444,94,-8280,51,-2,-8,-1,0
40449,74,-8278,55,-2,-7,-1,0
40454,65,-8277,41,-1,-7,-1,0
40459,60,-8276,26,-1,-6,-1,0
40464,47,-8277,26,-1,-5,-1,0
40469,52,-8276,3,-1,-5,-1,0
40474,58,-8275,-5,-1,-4,-1,0
40479,60,-8274,4,-1,-4,-1,0
40484,74,-8276,1,-1,-4,-1,0
40489,86,-8277,9,-1,-4,-1,0
40494,93,-8278,27,-1,-3,-1,0
40499,107,-8279,26,-1,-4,-1,0
40504,107,-8281,34,-1,-3,-1,0
40509,105,-8281,35,-1,-3,-1,0
40514,113,-8284,25,-1,-3,-1,0
40519,107,-8285,38,-1,-2,-2,0
40524,100,-8285,50,-1,-2,-1,0
40529,102,-8283,60,-1,-2,-1,0
40534,100,-8282,83,-1,-1,-1,0
40539,106,-8280,103,-1,-1,-1,0
40544,113,-8279,111,-1,-2,-1,0
40549,116,-8278,128,-1,-2,-2,0
40554,123,-8278,130,-1,-2,-2,0
40559,134,-8280,128,-1,-2,-2,0
40564,137,-8280,140,-1,-2,-1,0
40569,145,-8280,132,-1,-2,-1,0
40574,153,-8280,127,-1,-2,-1,0
40579,146,-8280,140,-1,-2,-1,0
40584,145,-8280,135,-1,-2,-1,0
40589,144,-8278,135,-1,-2,-1,0
40594,135,-8277,139,-1,-1,-1,0
40599,133,-8277,129,-1,-1,-1,0
40604,133,-8275,138,-1,-1,-1,0
40609,128,-8276,149,-1,-1,-1,0
40614,131,-8277,151,-1,-1,-1,0
40619,126,-8274,165,-1,-1,-1,0
40624,124,-8274,177,-1,-1,-1,0
40629,127,-8277,181,-1,-2,-1,0
40634,120,-8276,188,-1,-2,-2,0
40639,110,-8277,187,-1,-2,-2,0
40644,112,-8278,176,-1,-2,-1,0
40649,111,-8278,179,-1,-2,-1,0
40654,112,-8275,179,-1,-2,-1,0
40659,122,-8275,175,-1,-2,-1,0
40664,116,-8273,186,-1,-2,-2,0
40669,110,-8275,182,-1,-2,-1,0
40674,104,-8276,178,-1,-2,-2,0
40679,90,-8275,176,-1,-1,-2,0
40684,80,-8272,162,-1,-2,-2,0
40689,69,-8269,158,-1,-2,-2,0
40694,56,-8270,166,-1,-2,-2,0
40699,55,-8272,170,-1,-2,-2,0
40704,55,-8271,180,-1,-2,-2,0
40709,47,-8270,186,-1,-1,-2,0
40714,49,-8270,181,-1,-1,-2,0
40719,47,-8270,184,-1,-1,-2,0
40724,45,-8270,184,-1,-1,-2,0
40729,51,-8272,168,-1,-2,-2,0
40734,53,-8271,168,-1,-1,-2,0
40739,58,-8273,165,-1,-1,-2,0
40744,70,-8275,154,-1,-1,-2,0
40749,71,-8275,154,-1,-1,-2,0
40754,70,-8277,149,-1,-1,-2,0
40759,74,-8277,137,-1,-1,-2,0
40764,70,-8274,137,-1,-1,-2,0
40769,72,-8276,131,-1,-1,-2,0
40774,80,-8278,130,-1,-1,-2,0
40779,80,-8276,139,-1,0,-2,0
40784,87,-8276,141,-1,0,-2,0
40789,98,-8275,144,-1,0,-2,0
40794,105,-8278,143,-1,0,-2,0
40799,119,-8279,125,-1,-1,-2,0
40804,137,-8281,109,-1,0,-2,0
40809,151,-8282,107,-1,0,-2,0
40814,174,-8285,91,-1,0,-2,0
40819,192,-8286,91,-1,0,-2,0
40824,201,-8288,97,-1,0,-2,0
40829,214,-8289,98,-1,-1,-2,0
40834,219,-8289,109,-1,-1,-2,0
40839,219,-8287,122,-1,-1,-2,0
40844,221,-8285,125,-1,-1,-2,0
40849,220,-8283,137,-1,-1,-2,0
40854,212,-8282,141,-1,-1,-2,0
40859,212,-8283,143,-1,-2,-2,0
40864,204,-8281,156,-1,-2,-2,0
40869,198,-8281,164,-1,-2,-2,0
40874,200,-8282,179,-1,-2,-2,0
40879,200,-8280,198,-1,-2,-2,0
40884,205,-8282,206,-1,-2,-2,0
40889,210,-8279,207,-1,-2,-2,0
40894,208,-8277,211,-1,-2,-2,0
40899,204,-8277,205,-1,-2,-2,0
40904,199,-8277,201,-1,-2,-2,0
40909,188,-8279,209,-1,-2,-2,0
40914,179,-8280,221,-1,-2,-2,0
40919,172,-8279,226,-1,-2,-2,0
40924,158,-8279,235,-1,-1,-2,0
40929,150,-8280,232,-1,-1,-2,0
40933,141,-8281,233,-1,-1,-2,0
40939,131,-8280,228,-1,-1,-2,0
40944,125,-8278,221,-1,-1,-2,0
40948,113,-8278,226,-1,-2,-2,0
40953,96,-8277,230,-1,-2,-2,0
40959,82,-8276,232,-1,-2,-2,0
40964,64,-8277,241,-1,-2,-2,0
40968,47,-8279,247,-1,-2,-2,0
40973,36,-8281,248,-1,-2,-2,0
40979,27,-8280,252,-1,-2,-2,0
40984,24,-8277,246,-1,-2,-2,0
40989,27,-8281,237,-1,-2,-2,0
40993,29,-8282,230,-1,-2,-2,0
40999,36,-8280,217,-1,-2,-2,0
41004,54,-8278,208,-1,-1,-2,0
41008,67,-8277,208,-1,-2,-2,0
41014,84,-8275,199,-1,-2,-2,0
41019,100,-8275,199,-1,-2,-2,0
41023,112,-8277,207,-1,-2,-2,0
41029,124,-8281,210,-1,-2,-2,0
41034,132,-8282,208,-1,-2,-2,0
41038,134,-8281,200,-1,-2,-2,0
41044,139,-8281,192,-1,-2,-2,0
41049,140,-8283,191,-1,-2,-2,0
41054,141,-8279,186,-1,-2,-2,0
41058,147,-8276,182,-1,-2,-2,0
41064,145,-8276,188,-1,-2,-2,0
41069,143,-8277,188,-1,-2,-2,0
41073,143,-8278,184,-1,-2,-2,0
41078,142,-8277,181,-1,-2,-2,0
41084,142,-8282,179,-1,-2,-2,0
41088,151,-8284,178,-1,-2,-2,0
41094,164,-8283,179,-1,-2,-2,0
41099,182,-8284,184,-1,-2,-2,0
41104,196,-8282,192,-1,-2,-2,0
41109,205,-8283,206,-1,-2,-2,0
41114,210,-8284,216,-1,-3,-2,0
41118,209,-8284,220,-1,-3,-2,0
41124,195,-8285,218,-1,-3,-2,0
41129,183,-8286,203,-1,-3,-2,0
41133,173,-8284,187,-1,-2,-2,0
41138,164,-8285,179,-1,-1,-2,0
41144,166,-8285,171,-1,-1,-2,0
41148,169,-8285,172,-1,0,-2,0
41153,171,-8284,186,-1,0,-2,0
41159,177,-8281,206,-1,0,-2,0
41163,184,-8280,227,-1,-1,-2,0
41168,192,-8277,244,-1,-1,-2,0
41173,197,-8276,240,-1,-2,-2,0
41179,197,-8275,228,-1,-2,-2,0
41183,200,-8275,216,-1,-2,-2,0
41188,203,-8274,203,-1,-2,-2,0
41193,205,-8270,205,-1,-2,-2,0
41198,207,-8272,207,-1,-3,-2,0
41203,208,-8272,213,-1,-3,-2,0
41208,205,-8271,217,-1,-3,-2,0
41213,194,-8273,211,-1,-3,-2,0
41218,181,-8274,194,-1,-3,-2,0
41223,170,-8270,184,-1,-2,-2,0
41228,164,-8270,169,-1,-2,-2,0
41233,166,-8271,165,-1,-2,-2,0
41238,172,-8274,168,-1,-1,-2,0
41243,182,-8275,179,-1,-2,-2,0
41248,192,-8277,189,-1,-2,-2,0
41253,199,-8281,192,-1,-2,-2,0
41258,203,-8281,186,-1,-2,-2,0
41263,200,-8281,170,-1,-2,-2,0
41268,194,-8282,161,-1,-2,-2,0
41273,188,-8285,144,-1,-2,-2,0
41278,186,-8284,139,-1,-2,-2,0
41283,188,-8282,137,-1,-2,-2,0
41288,195,-8281,139,-1,-1,-2,0
41293,201,-8281,146,-1,-1,-2,0
41298,206,-8280,141,-1,0,-2,0
41303,212,-8282,145,-1,0,-2,0
41308,219,-8281,149,-1,0,-2,0
41313,224,-8280,153,-1,0,-2,0
41318,226,-8281,164,-1,0,-2,0
41323,224,-8281,184,-1,1,-2,0
41328,220,-8282,200,-1,1,-2,0
41333,213,-8281,223,-1,1,-2,0
41338,203,-8282,244,-1,2,-2,0
41343,195,-8282,261,-1,2,-2,0
41348,191,-8280,276,-1,2,-2,0
41353,197,-8279,291,-1,1,-2,0
41358,208,-8279,308,-1,0,-2,0
41363,220,-8278,320,-1,-1,-2,0
41368,228,-8279,329,-1,-2,-2,0
41373,231,-8279,334,-1,-3,-2,0
41378,227,-8280,340,-1,-3,-2,0
41383,215,-8278,333,-1,-3,-2,0
41388,193,-8276,318,-1,-3,-2,0
41393,164,-8278,298,-1,-3,-2,0
41398,140,-8277,271,-1,-2,-2,0
41403,125,-8280,253,-1,-1,-2,0
41408,120,-8282,248,-1,0,-2,0
41413,125,-8282,246,-1,0,-2,0
41418,138,-8282,259,-2,0,-2,0
41423,153,-8282,280,-1,1,-2,0
41428,164,-8281,296,-1,1,-2,0
41433,167,-8281,305,-1,1,-2,0
41438,160,-8280,308,-1,1,-2,0
41443,148,-8280,304,-2,0,-2,0
41448,142,-8278,301,-2,0,-2,0
41453,136,-8278,302,-2,1,-2,0
41458,135,-8276,300,-2,1,-2,0
41463,146,-8277,299,-2,1,-2,0
41468,161,-8278,294,-2,1,-2,0
41473,180,-8274,284,-2,0,-2,0
41478,192,-8272,267,-2,0,-2,0
41483,198,-8273,250,-2,-1,-2,0
41488,199,-8275,236,-2,-1,-2,0
41493,197,-8279,230,-2,-1,-2,0
41498,185,-8280,229,-2,-1,-2,0
41503,170,-8281,224,-2,-1,-2,0
41508,152,-8279,217,-2,0,-2,0
41513,134,-8279,204,-2,1,-2,0
41518,124,-8280,189,-2,2,-2,0
41523,123,-8282,166,-2,2,-2,0
41528,128,-8281,148,-2,2,-2,0
41533,142,-8281,136,-2,3,-2,0
41538,159,-8278,120,-2,3,-2,0
41543,176,-8278,109,-2,3,-2,0
41548,184,-8275,98,-2,3,-2,0
41553,190,-8274,90,-1,3,-2,0
41558,187,-8276,84,-1,3,-2,0
41563,185,-8277,77,-1,2,-2,0
41568,187,-8278,72,-1,2,-2,0
41573,187,-8278,69,-1,2,-2,0
41578,184,-8275,68,-1,2,-2,0
41583,179,-8278,67,-1,1,-2,0
41588,170,-8278,70,-1,1,-2,0
41593,155,-8282,79,-1,1,-2,0
41598,136,-8280,87,-1,0,-2,0
41603,112,-8280,96,-1,0,-2,0
41608,83,-8280,98,-1,0,-3,0
41613,56,-8279,102,-1,0,-3,0
41618,34,-8279,104,-1,0,-3,0
41623,17,-8279,104,-1,1,-3,0
41628,7,-8280,98,-1,1,-3,0
41633,0,-8283,89,-1,2,-3,0
41638,0,-8285,89,-1,3,-3,0
41643,6,-8284,89,-1,3,-3,0
41648,17,-8283,92,-1,4,-3,0
41653,28,-8282,97,-1,4,-3,0
41658,43,-8277,109,-1,4,-3,0
41663,65,-8278,114,-1,4,-3,0
41668,86,-8277,118,-1,3,-3,0
41673,107,-8279,121,-1,3,-3,0
41678,122,-8279,133,-1,2,-3,0
41683,128,-8282,139,-1,1,-3,0
41688,128,-8285,151,-1,1,-3,0
41693,120,-8284,163,-1,1,-4,0
41698,112,-8282,173,-1,1,-4,0
41703,102,-8278,185,-1,2,-4,0
41708,100,-8278,195,-1,2,-4,0
41713,110,-8278,205,-1,2,-4,0
41718,133,-8266,211,-1,3,-4,0
41723,161,-8256,217,-1,2,-4,0
41728,197,-8253,225,-1,2,-4,0
41733,233,-8259,232,-1,1,-4,0
41738,265,-8263,226,-1,0,-3,0
41743,297,-8267,218,-1,-1,-3,0
41748,321,-8273,207,-1,-2,-3,0
41753,338,-8276,198,-1,-3,-3,0
41758,351,-8279,191,-1,-3,-3,0
41763,356,-8280,186,-1,-3,-3,0
41768,360,-8277,183,-1,-3,-3,0
41773,358,-8290,187,-1,-4,-3,0
41778,353,-8294,185,-1,-4,-3,0
41783,345,-8297,176,-1,-4,-3,0
41788,335,-8297,167,-1,-4,-3,0
41793,327,-8297,166,-1,-3,-3,0
41798,320,-8296,175,-1,-4,-3,0
41803,315,-8292,191,-1,-4,-3,0
41808,314,-8286,204,-1,-4,-3,0
41813,316,-8286,215,-1,-4,-3,0
41818,322,-8285,212,-1,-4,-3,0
41823,328,-8283,199,-1,-5,-3,0
41828,326,-8283,186,-1,-5,-3,0
41833,326,-8282,175,-1,-6,-3,0
41838,324,-8281,166,-1,-6,-3,0
41843,323,-8281,157,-1,-7,-3,0
41848,320,-8280,155,-1,-7,-3,0
41853,316,-8280,156,-1,-6,-3,0
41858,312,-8283,161,-1,-6,-3,0
41863,307,-8286,163,-1,-6,-3,0
41868,298,-8287,166,-1,-6,-3,0
41873,285,-8291,167,-1,-6,-3,0
41878,277,-8289,168,-1,-6,-3,0
41883,261,-8286,176,-1,-5,-3,0
41888,244,-8287,186,-1,-4,-3,0
41893,230,-8287,199,-1,-4,-3,0
41898,221,-8283,206,-1,-2,-3,0
41903,222,-8284,216,-1,-1,-3,0
41908,232,-8285,218,-1,-1,-3,0
41913,252,-8288,214,-1,-1,-3,0
41918,278,-8286,216,-1,-1,-3,0
41923,304,-8283,223,-1,-1,-3,0
41928,328,-8283,237,-1,-1,-3,0
41933,344,-8282,250,-1,-1,-3,0
41938,352,-8284,254,-1,-2,-3,0
41943,348,-8283,254,-1,-2,-3,0
41948,339,-8280,252,-1,-1,-3,0
41953,338,-8281,249,-1,-1,-3,0
41958,340,-8283,244,-1,0,-3,0
41963,346,-8283,242,-1,0,-3,0
41968,362,-8284,243,-1,0,-3,0
41973,382,-8281,252,-1,0,-3,0
41978,400,-8279,264,-1,0,-3,0
41983,415,-8277,275,-1,-1,-3,0
41988,428,-8279,291,-1,-1,-3,0
41993,433,-8280,305,-1,-2,-3,0
41998,436,-8279,314,-1,-2,-3,0
42003,432,-8274,320,-1,-2,-3,0
42008,431,-8275,318,-2,-2,-3,0
42013,433,-8275,317,-2,-2,-2,0
42018,441,-8274,315,-2,-2,-2,0
42023,454,-8272,312,-2,-2,-2,0
42028,469,-8270,312,-2,-3,-2,0
42033,485,-8270,311,-2,-3,-2,0
42038,498,-8272,303,-2,-3,-2,0
42043,503,-8273,295,-2,-3,-2,0
42048,505,-8275,289,-2,-3,-2,0
42053,506,-8276,283,-2,-3,-2,0
42058,504,-8278,273,-2,-3,-2,0
42063,509,-8280,260,-2,-3,-2,0
42068,515,-8278,250,-2,-4,-2,0
42073,522,-8275,238,-2,-4,-2,0
42078,526,-8275,232,-2,-4,-2,0
42083,526,-8276,217,-2,-4,-2,0
42088,519,-8279,205,-2,-4,-1,0
42093,509,-8279,195,-2,-4,-1,0
42098,499,-8278,185,-2,-4,-1,0
42103,489,-8278,177,-2,-4,-1,0
42108,486,-8277,178,-2,-4,-1,0
42113,485,-8277,184,-2,-4,-1,0
42118,481,-8276,190,-2,-5,-1,0
42123,474,-8278,193,-2,-5,-1,0
42128,462,-8278,192,-2,-6,-1,0
42133,445,-8277,186,-2,-7,-1,0
42138,421,-8276,184,-2,-7,-1,0
42143,396,-8277,178,-2,-7,-1,0
42148,374,-8278,180,-2,-7,-1,0
42153,362,-8282,183,-2,-6,-1,0
42158,358,-8282,186,-2,-6,-1,0
42163,364,-8282,194,-2,-6,-1,0
42168,378,-8280,196,-2,-6,-1,0
42173,392,-8282,198,-2,-6,-1,0
42178,399,-8285,197,-2,-7,-1,0
42183,397,-8288,193,-2,-7,-1,0
42188,385,-8287,195,-2,-7,-1,0
42193,369,-8285,191,-2,-7,-1,0
42198,347,-8287,183,-2,-7,-1,0
42203,327,-8287,175,-2,-7,-1,0
42208,313,-8287,168,-2,-7,-1,0
42213,304,-8286,163,-2,-6,-1,0
42218,299,-8282,159,-2,-6,-1,0
42223,287,-8281,153,-2,-6,-1,0
42228,274,-8284,149,-2,-6,-1,0
42233,264,-8286,143,-2,-5,-1,0
42238,256,-8284,140,-2,-5,-1,0
42243,253,-8283,143,-2,-4,-1,0
42248,258,-8282,154,-2,-4,-1,0
42253,270,-8282,168,-2,-4,-1,0
42258,288,-8282,178,-2,-4,-1,0
42263,305,-8282,192,-2,-5,-1,0
42268,316,-8280,202,-2,-5,-1,0
42273,312,-8279,206,-2,-6,-1,0
42278,297,-8276,205,-2,-7,-1,0
42283,274,-8277,199,-2,-7,-1,0
42288,244,-8280,199,-2,-6,-1,0
42293,217,-8282,196,-2,-6,-1,0
42298,196,-8283,198,-2,-5,-1,0
42303,173,-8281,204,-2,-4,-2,0
42308,161,-8280,207,-2,-3,-2,0
42313,154,-8281,202,-2,-3,-2,0
42318,147,-8283,190,-2,-2,-2,0
42323,145,-8282,189,-2,-2,-2,0
42328,144,-8285,193,-2,-2,-2,0
42333,144,-8285,201,-2,-1,-2,0
42338,141,-8284,211,-2,-1,-2,0
42343,137,-8281,227,-2,-1,-2,0
42348,134,-8280,244,-2,-1,-2,0
42353,132,-8279,258,-2,-1,-2,0
42358,135,-8276,272,-2,-2,-2,0
42363,135,-8276,280,-2,-2,-2,0
42368,139,-8275,284,-2,-2,-2,0
42373,143,-8275,289,-2,-2,-2,0
42378,143,-8280,298,-2,-3,-3,0
42383,133,-8281,305,-2,-3,-3,0
42388,118,-8279,310,-2,-3,-3,0
42393,101,-8279,309,-2,-3,-3,0
42398,87,-8280,297,-2,-2,-3,0
42403,77,-8280,284,-2,-1,-3,0
42408,75,-8282,268,-2,-1,-3,0
42413,77,-8284,252,-2,0,-3,0
42418,87,-8287,237,-3,0,-3,0
42423,99,-8288,227,-3,0,-3,0
42428,113,-8288,225,-3,0,-3,0
42433,124,-8286,230,-3,0,-3,0
42438,130,-8284,236,-3,0,-3,0
42443,134,-8281,242,-3,0,-3,0
42448,137,-8280,244,-3,0,-3,0
42453,141,-8281,243,-3,0,-4,0
42458,151,-8281,229,-3,0,-3,0
42463,160,-8282,215,-3,0,-4,0
42468,174,-8281,204,-3,0,-4,0
42473,195,-8282,188,-3,0,-3,0
42478,217,-8280,172,-3,1,-4,0
42483,241,-8277,167,-3,0,-4,0
42488,266,-8274,164,-3,0,-4,0
42493,287,-8272,158,-3,0,-4,0
42498,299,-8273,153,-3,0,-4,0
42503,302,-8274,143,-3,0,-4,0
42508,298,-8277,125,-3,0,-4,0
42513,295,-8282,109,-3,0,-4,0
42518,290,-8284,89,-3,0,-4,0
42523,288,-8283,71,-3,1,-4,0
42528,288,-8283,58,-3,1,-4,0
42533,292,-8284,48,-2,1,-4,0
42538,302,-8283,34,-2,2,-4,0
42543,316,-8284,19,-2,2,-4,0
42548,329,-8287,-1,-2,2,-4,0
42553,341,-8289,-24,-2,2,-4,0
42558,360,-8290,-40,-2,3,-4,0
42563,379,-8292,-47,-2,3,-4,0
42568,398,-8291,-44,-2,3,-4,0
42573,420,-8291,-33,-2,3,-4,0
42578,441,-8292,-15,-2,3,-3,0
42583,466,-8290,4,-2,2,-3,0
42588,486,-8290,15,-2,2,-3,0
42593,501,-8290,23,-2,1,-3,0
42598,511,-8290,21,-2,1,-3,0
42603,520,-8289,23,-2,0,-3,0
42608,525,-8287,30,-2,0,-3,0
42613,532,-8287,45,-2,0,-3,0
42618,540,-8285,72,-2,0,-3,0
42623,553,-8282,104,-2,0,-3,0
42628,573,-8280,136,-2,-1,-3,0
42633,592,-8281,168,-2,-2,-3,0
42638,610,-8278,193,-2,-2,-3,0
42643,624,-8278,208,-2,-3,-3,0
42648,623,-8277,213,-2,-3,-3,0
42653,607,-8278,206,-2,-2,-3,0
42658,582,-8281,191,-2,-1,-3,0
42663,561,-8282,177,-2,1,-3,0
42668,541,-8284,166,-2,2,-3,0
42673,524,-8283,164,-2,4,-3,0
42678,516,-8281,169,-3,7,-2,0
42683,521,-8281,188,-3,9,-2,0
42688,538,-8281,213,-3,12,-2,0
42693,567,-8280,229,-3,13,-2,0
42698,594,-8282,246,-3,13,-2,0
42703,622,-8283,256,-3,12,-2,0
42708,650,-8283,270,-3,12,-2,0
42713,678,-8281,283,-3,11,-2,0
42718,706,-8279,298,-3,10,-2,0
42723,731,-8278,310,-3,9,-2,0
42728,750,-8276,318,-3,8,-1,0
42733,757,-8273,324,-3,7,-1,0
42738,762,-8273,320,-3,6,-1,0
42743,758,-8271,310,-3,5,-1,0
42748,756,-8271,297,-3,5,-1,0
42753,753,-8273,282,-3,4,-1,0
42758,758,-8277,272,-3,3,-1,0
42763,765,-8278,269,-3,2,-1,0
42768,774,-8277,260,-3,1,-1,0
42773,778,-8275,257,-4,-1,0,0
42778,774,-8274,252,-4,-2,0,0
42783,764,-8275,243,-4,-3,0,0
42788,751,-8276,231,-4,-4,0,0
42793,729,-8276,211,-4,-5,0,0
42798,701,-8275,190,-4,-6,0,0
42803,669,-8276,165,-4,-6,0,0
42808,632,-8276,142,-4,-6,0,0
42813,587,-8277,128,-4,-6,0,0
42818,525,-8279,113,-4,-5,0,0
42823,467,-8280,100,-4,-3,0,0
42828,416,-8285,91,-4,-1,0,0
42833,379,-8290,82,-4,1,0,0
42838,360,-8287,77,-4,1,0,0
42843,364,-8284,85,-4,2,0,0
42848,393,-8281,105,-4,2,0,0
42853,432,-8277,126,-4,1,0,0
42858,460,-8279,142,-4,-1,0,0
42863,469,-8280,150,-4,-3,0,0
42868,451,-8277,139,-4,-4,0,0
42873,409,-8277,104,-4,-5,0,0
42878,352,-8279,57,-4,-5,0,0
42883,298,-8278,6,-4,-4,0,0
42888,258,-8278,-41,-4,-3,0,0
42893,233,-8281,-81,-4,-2,0,0
42898,227,-8282,-119,-4,-2,0,0
42903,234,-8284,-152,-4,-1,0,0
42908,251,-8285,-178,-3,-1,0,0
42913,268,-8287,-206,-3,-1,-1,0
42918,281,-8285,-241,-3,-2,-1,0
42923,288,-8285,-278,-3,-2,-1,0
42928,291,-8287,-307,-3,-2,-1,0
42933,288,-8288,-334,-3,-2,-1,0
42938,284,-8291,-355,-3,-2,-1,0
42943,281,-8291,-370,-3,-2,-1,0
42948,278,-8291,-381,-3,-3,-1,0
42953,271,-8293,-390,-2,-3,-1,0
42958,259,-8295,-402,-2,-3,-1,0
42963,247,-8295,-413,-2,-3,-1,0
42968,236,-8296,-424,-2,-3,-1,0
42973,225,-8296,-429,-2,-2,-1,0
42978,210,-8294,-431,-2,-2,-1,0
42983,197,-8292,-436,-2,-2,-1,0
42988,187,-8293,-440,-2,-1,-1,0
42993,182,-8297,-451,-1,0,-1,0
42998,184,-8299,-459,-1,0,-1,0
43003,193,-8298,-459,-1,1,-1,0
43008,208,-8296,-453,-1,1,-1,0
43013,225,-8296,-435,-1,1,-1,0
43018,241,-8298,-417,-1,2,-1,0
43023,257,-8298,-396,-1,2,-1,0
43028,266,-8299,-369,-1,2,-1,0
43033,270,-8296,-355,-1,2,-2,0
43038,270,-8290,-338,-1,2,-2,0
43043,261,-8287,-321,-1,2,-2,0
43048,256,-8286,-305,-1,3,-2,0
43053,262,-8288,-282,-1,4,-2,0
43058,266,-8286,-254,-1,4,-1,0
43063,279,-8285,-229,-1,5,-2,0
43068,302,-8282,-206,-1,6,-2,0
43073,329,-8281,-177,0,6,-1,0
43078,360,-8278,-159,0,5,-2,0
43083,387,-8277,-133,0,3,-1,0
43088,409,-8281,-107,0,2,-1,0
43093,423,-8281,-83,0,1,-1,0
43098,429,-8282,-62,-1,-1,-1,0
43103,427,-8280,-48,-1,-2,-1,0
43108,414,-8279,-39,0,-2,-1,0
43113,398,-8277,-33,0,-3,-1,0
43118,378,-8275,-33,0,-3,-1,0
43123,359,-8278,-31,0,-3,-1,0
43128,342,-8283,-37,0,-3,-1,0
43133,330,-8285,-44,0,-3,-1,0
43138,321,-8288,-50,-1,-3,-1,0
43143,315,-8289,-51,-1,-3,-1,0
43148,307,-8290,-50,-1,-3,-1,0
43153,297,-8288,-52,0,-3,-1,0
43158,278,-8290,-53,0,-3,-1,0
43163,253,-8288,-52,0,-3,-1,0
43168,225,-8287,-57,0,-3,-2,0
43173,194,-8286,-68,0,-3,-2,0
43178,161,-8287,-87,0,-3,-2,0
43183,139,-8284,-105,0,-3,-2,0
43188,122,-8282,-122,0,-3,-2,0
43193,112,-8280,-137,0,-3,-2,0
43198,107,-8280,-152,0,-3,-2,0
43203,104,-8283,-168,0,-3,-2,0
43208,102,-8285,-181,0,-3,-2,0
43213,95,-8287,-195,0,-3,-2,0
43218,93,-8292,-211,0,-3,-2,0
43223,92,-8289,-229,0,-3,-2,0
43228,89,-8288,-242,0,-4,-2,0
43233,87,-8289,-260,0,-3,-3,0
43238,83,-8290,-278,1,-3,-3,0
43243,76,-8291,-291,1,-2,-3,0
43248,67,-8291,-301,1,-2,-3,0
43253,60,-8289,-310,1,-1,-3,0
43258,54,-8290,-313,1,-1,-3,0
43263,53,-8289,-313,1,0,-3,0
43268,60,-8291,-314,1,1,-3,0
43273,69,-8291,-313,1,1,-3,0
43278,86,-8292,-300,1,2,-3,0
43283,114,-8289,-284,1,3,-3,0
43288,146,-8285,-263,1,3,-3,0
43293,181,-8285,-235,1,3,-3,0
43298,220,-8284,-203,1,3,-3,0
43303,254,-8281,-173,2,2,-3,0
43308,282,-8280,-150,2,2,-3,0
43313,303,-8278,-125,2,1,-3,0
43318,321,-8278,-106,2,1,-3,0
43323,333,-8275,-85,2,1,-3,0
43328,340,-8275,-56,2,0,-3,0
43333,345,-8278,-24,1,0,-3,0
43338,350,-8276,17,1,0,-3,0
43343,352,-8273,59,1,0,-3,0
43348,354,-8271,99,1,0,-3,0
43353,364,-8271,128,1,0,-3,0
43358,379,-8271,147,1,-1,-3,0
43363,401,-8271,158,1,-1,-3,0
43368,424,-8273,169,1,-2,-3,0
43373,450,-8275,173,1,-2,-3,0
43378,467,-8275,182,1,-3,-3,0
43383,471,-8275,198,1,-3,-3,0
43388,460,-8274,218,1,-4,-3,0
43393,439,-8276,232,1,-4,-3,0
43398,413,-8275,254,1,-4,-3,0
43403,383,-8274,270,1,-5,-3,0
43408,353,-8278,280,1,-5,-3,0
43413,332,-8278,285,1,-5,-3,0
43418,314,-8276,287,1,-6,-3,0
43423,306,-8278,278,1,-6,-3,0
43428,299,-8278,255,1,-6,-3,0
43433,286,-8279,216,1,-7,-3,0
43438,267,-8280,164,1,-7,-3,0
43443,248,-8285,101,1,-6,-3,0
43448,232,-8289,32,1,-5,-3,0
43453,220,-8292,-44,1,-4,-3,0
43458,213,-8293,-113,1,-3,-3,0
43463,219,-8288,-160,1,-1,-4,0
43468,229,-8285,-178,1,-1,-4,0
43473,234,-8283,-165,1,0,-4,0
43478,238,-8281,-136,1,0,-4,0
43483,242,-8279,-110,1,0,-4,0
43488,241,-8280,-91,2,-1,-4,0
43493,244,-8281,-87,2,-2,-4,0
43498,251,-8284,-91,2,-2,-4,0
43503,261,-8285,-102,2,-3,-4,0
43508,275,-8285,-116,2,-3,-4,0
43513,293,-8285,-127,2,-3,-4,0
43518,311,-8285,-140,2,-3,-4,0
43523,323,-8286,-146,2,-3,-4,0
43528,331,-8286,-140,2,-4,-4,0
43533,330,-8286,-129,2,-3,-4,0
43538,326,-8286,-119,2,-3,-4,0
43543,322,-8288,-110,2,-2,-4,0
43548,322,-8286,-117,2,-1,-4,0
43553,332,-8287,-129,3,1,-4,0
43558,349,-8288,-135,3,3,-4,0
43563,374,-8290,-134,3,5,-4,0
43568,410,-8288,-116,2,6,-4,0
43573,452,-8284,-74,2,8,-4,0
43578,497,-8278,-6,2,9,-4,0
43583,538,-8278,78,2,10,-4,0
43588,572,-8277,175,2,11,-4,0
43593,597,-8276,284,2,11,-4,0
43598,602,-8276,386,2,9,-4,0
43603,598,-8272,487,2,8,-4,0
43608,588,-8270,587,2,7,-4,0
43613,574,-8268,685,1,6,-4,0
43618,554,-8266,784,1,5,-4,0
43623,534,-8263,866,1,5,-4,0
43628,524,-8261,938,1,5,-4,0
43633,518,-8257,994,0,5,-4,0
43638,524,-8256,1030,0,5,-4,0
43643,540,-8253,1057,0,5,-4,0
43648,567,-8256,1073,-1,4,-4,0
43653,609,-8258,1082,-1,3,-4,0
43658,660,-8260,1089,-1,2,-3,0
43663,710,-8261,1085,-2,0,-3,0
43668,757,-8262,1079,-2,-2,-3,0
43672,788,-8263,1068,-2,-4,-3,0
43677,798,-8261,1051,-2,-6,-3,0
43683,778,-8263,1029,-2,-7,-3,0
43688,725,-8263,1000,-3,-7,-3,0
43693,642,-8261,964,-3,-8,-3,0
43698,542,-8261,925,-3,-7,-3,0
43702,445,-8262,885,-3,-5,-3,0
43708,364,-8266,848,-3,-2,-4,0
43713,318,-8270,820,-3,1,-4,0
43717,314,-8271,788,-4,3,-4,0
43723,344,-8266,749,-4,6,-4,0
43728,405,-8265,702,-4,11,-4,0
43733,496,-8264,644,-4,15,-4,0
43738,601,-8267,576,-4,16,-4,0
43742,703,-8269,513,-4,15,-4,0
43748,795,-8271,452,-4,13,-3,0
43753,866,-8272,408,-4,11,-3,0
43757,921,-8272,379,-4,10,-3,0
43763,954,-8272,354,-4,9,-3,0
43768,975,-8270,333,-4,8,-3,0
43773,998,-8273,306,-4,4,-2,0
43778,1008,-8276,281,-4,-4,-2,0
43783,974,-8277,272,-4,-9,-2,0
43787,927,-8277,271,-4,-11,-2,0
43793,889,-8277,283,-4,-9,-2,0
43798,846,-8277,309,-4,-8,-2,0
43803,814,-8279,341,-4,-7,-2,0
43807,795,-8278,367,-4,-7,-1,0
43812,804,-8279,393,-4,-7,-1,0
43817,830,-8278,430,-4,-8,-1,0
43823,874,-8275,466,-5,-9,-1,0
43827,925,-8273,514,-5,-12,-1,0
43832,961,-8272,558,-5,-15,-1,0
43837,994,-8269,585,-5,-19,-1,0
43843,1010,-8268,609,-5,-23,0,0
43848,1006,-8268,628,-5,-27,0,0
43853,992,-8267,640,-5,-31,0,0
43857,957,-8265,648,-6,-33,0,0
43863,903,-8266,657,-6,-34,1,0
43868,845,-8264,660,-6,-34,0,0
43872,783,-8266,646,-6,-33,0,0
43877,718,-8267,624,-6,-32,0,0
43883,658,-8266,594,-6,-30,0,0
43888,607,-8266,566,-6,-28,1,0
43892,568,-8269,539,-6,-25,0,0
43897,552,-8270,515,-7,-21,0,0
43902,551,-8267,499,-7,-17,0,0
43907,570,-8264,485,-7,-14,0,0
43912,607,-8262,471,-7,-13,0,0
43917,652,-8261,452,-7,-13,0,0
43922,706,-8261,425,-7,-15,1,0
43928,747,-8260,385,-7,-17,1,0
43932,763,-8260,321,-7,-19,1,0
43937,737,-8262,233,-7,-20,1,0
43942,670,-8267,117,-7,-20,1,0
43947,569,-8273,-20,-6,-21,0,0
43952,443,-8277,-165,-6,-22,0,0
43957,310,-8279,-294,-6,-21,0,0
43962,164,-8284,-421,-5,-19,-1,0
43967,34,-8283,-518,-4,-14,-1,0
43972,-103,-8291,-636,-4,-9,-2,0
43977,-233,-8306,-776,-4,-9,-2,0
43982,-346,-8320,-899,-4,-13,-2,0
43987,-466,-8331,-1007,-4,-16,-2,0
43992,-563,-8335,-1079,-4,-16,-2,0
43997,-632,-8337,-1107,-4,-11,-2,0
44002,-664,-8331,-1103,-4,-3,-3,0
44007,-653,-8326,-1058,-3,4,-4,0
44012,-613,-8318,-1000,-3,7,-4,0
44017,-553,-8314,-933,-2,7,-5,0
44023,-481,-8312,-856,-2,4,-5,0
44028,-407,-8313,-770,-2,1,-5,0
44032,-331,-8309,-656,-3,0,-5,0
44038,-256,-8303,-508,-3,1,-5,0
44042,-175,-8298,-348,-3,2,-5,0
44047,-92,-8290,-181,-3,3,-5,0
44052,-14,-8285,-17,-3,2,-5,0
44057,65,-8281,130,-3,1,-5,0
44062,141,-8274,246,-3,0,-5,0
44067,213,-8271,329,-3,0,-5,0
44072,279,-8268,390,-3,0,-5,0
44077,336,-8266,431,-4,1,-5,0
44082,381,-8264,453,-4,2,-5,0
44087,418,-8262,454,-4,4,-5,0
44092,458,-8262,435,-4,6,-5,0
44097,497,-8261,395,-4,8,-5,0
44102,543,-8262,322,-4,9,-5,0
44107,599,-8265,228,-4,9,-5,0
44112,669,-8268,126,-4,9,-5,0
44117,741,-8271,21,-4,7,-5,0
44122,807,-8272,-76,-4,6,-4,0
44127,869,-8274,-161,-4,5,-4,0
44132,928,-8277,-237,-4,4,-4,0
44137,979,-8280,-300,-4,0,-4,0
44142,1011,-8284,-352,-4,-3,-4,0
44147,1031,-8288,-392,-3,-6,-3,0
44152,1048,-8287,-414,-3,-9,-3,0
44157,1051,-8286,-430,-3,-12,-3,0
44162,1044,-8284,-431,-3,-14,-3,0
44167,1027,-8284,-410,-3,-16,-3,0
44172,1000,-8284,-374,-3,-17,-3,0
44177,979,-8283,-324,-3,-18,-3,0
44182,959,-8280,-272,-3,-20,-2,0
44187,934,-8279,-210,-3,-21,-2,0
44192,921,-8277,-157,-3,-22,-2,0
44197,909,-8276,-112,-3,-23,-2,0
44202,890,-8272,-83,-3,-22,-2,0
44207,872,-8269,-77,-3,-20,-2,0
44212,849,-8270,-90,-3,-18,-2,0
44217,820,-8275,-112,-3,-18,-2,0
44222,785,-8276,-144,-3,-18,-2,0
44227,746,-8280,-182,-3,-17,-2,0
44232,705,-8281,-211,-3,-14,-2,0
44237,667,-8283,-233,-3,-11,-2,0
44242,638,-8282,-255,-3,-8,-2,0
44247,617,-8280,-265,-3,-4,-2,0
44252,606,-8280,-271,-3,0,-2,0
44257,610,-8281,-279,-3,5,-2,0
44262,624,-8282,-279,-3,9,-2,0
44267,652,-8282,-277,-3,13,-3,0
44272,686,-8284,-276,-3,17,-2,0
44277,721,-8282,-278,-3,19,-3,0
44282,757,-8281,-286,-3,22,-3,0
44287,777,-8283,-305,-2,24,-3,0
44292,775,-8284,-329,-2,26,-3,0
44297,745,-8286,-357,-2,28,-3,0
44302,697,-8287,-381,-2,31,-3,0
44307,630,-8286,-400,-2,33,-3,0
44312,557,-8285,-428,-2,34,-3,0
44317,487,-8285,-448,-2,37,-3,0
44322,428,-8286,-468,-2,40,-3,0
44327,391,-8288,-490,-2,42,-3,0
44332,376,-8289,-515,-2,44,-3,0
44337,378,-8293,-543,-2,45,-4,0
44342,395,-8292,-575,-1,46,-4,0
44347,414,-8292,-604,-1,45,-4,0
44352,433,-8297,-636,-1,45,-4,0
44357,458,-8298,-672,-1,43,-4,0
44362,493,-8297,-715,0,38,-4,0
44367,534,-8300,-757,0,32,-3,0
44372,586,-8301,-805,0,24,-3,0
44377,643,-8303,-833,0,16,-3,0
44382,702,-8303,-845,0,9,-2,0
44387,760,-8301,-842,1,4,-2,0
44392,808,-8301,-827,1,-2,-2,0
44397,831,-8300,-796,1,-5,-2,0
44402,827,-8298,-757,1,-8,-2,0
44407,800,-8296,-716,2,-9,-2,0
44412,757,-8296,-673,2,-10,-2,0
44417,713,-8297,-635,2,-10,-2,0
44422,672,-8296,-600,2,-10,-2,0
44427,644,-8294,-569,2,-8,-2,0
44432,632,-8290,-527,2,-7,-2,0
44437,637,-8289,-485,2,-5,-2,0
44442,659,-8288,-430,2,-3,-2,0
44447,692,-8287,-374,2,-3,-2,0
44452,727,-8285,-313,2,-4,-2,0
44457,761,-8283,-255,2,-5,-2,0
44462,796,-8280,-200,2,-7,-2,0
44467,829,-8279,-152,2,-9,-2,0
44472,856,-8274,-114,2,-11,-1,0
44477,876,-8273,-92,2,-13,-1,0
44482,883,-8271,-73,2,-14,-1,0
44487,869,-8273,-68,2,-14,-1,0
44492,831,-8274,-70,2,-13,-1,0
44497,781,-8274,-71,2,-11,-2,0
44502,719,-8276,-62,2,-9,-2,0
44507,661,-8272,-55,2,-7,-2,0
44512,613,-8270,-41,2,-6,-2,0
44517,584,-8269,-22,2,-5,-1,0
44522,577,-8270,7,2,-5,-2,0
44527,590,-8271,30,2,-5,-1,0
44532,623,-8272,55,1,-5,-1,0
44537,680,-8274,82,1,-6,-1,0
44542,753,-8268,110,1,-9,-1,0
44547,837,-8263,127,1,-12,-1,0
44552,922,-8261,132,1,-15,-1,0
44557,1006,-8263,127,1,-17,0,0
44562,1083,-8266,114,1,-19,0,0
44567,1142,-8268,95,1,-22,0,0
44572,1181,-8269,66,1,-25,0,0
44577,1198,-8272,39,1,-28,0,0
44582,1184,-8271,12,1,-32,0,0
44587,1147,-8274,-16,1,-35,1,0
44592,1084,-8274,-47,2,-38,1,0
44597,999,-8275,-75,2,-39,1,0
44602,897,-8278,-112,2,-39,1,0
44607,789,-8279,-155,2,-37,1,0
44612,678,-8281,-192,2,-33,1,0
44617,571,-8285,-234,2,-28,0,0
44622,474,-8291,-267,2,-21,0,0
44627,393,-8291,-285,2,-14,0,0
44632,339,-8293,-294,2,-6,-1,0
44637,311,-8294,-280,2,2,-1,0
44642,310,-8295,-265,2,8,-1,0
44647,326,-8294,-247,2,14,-1,0
44652,358,-8295,-225,2,17,-2,0
44657,398,-8294,-204,2,18,-2,0
44662,437,-8292,-178,2,18,-2,0
44667,478,-8288,-152,2,17,-2,0
44672,514,-8285,-124,2,15,-2,0
44677,549,-8280,-97,2,13,-2,0
44682,578,-8280,-64,2,10,-1,0
44687,604,-8280,-32,2,7,-1,0
44692,629,-8280,-5,2,4,-1,0
44697,653,-8280,18,2,1,-1,0
44702,672,-8281,44,2,-2,-1,0
44707,692,-8282,75,2,-3,-1,0
44712,711,-8283,109,2,-4,-1,0
44717,730,-8283,146,2,-4,-1,0
44722,749,-8285,183,2,-4,-1,0
44727,769,-8284,225,2,-4,0,0
44732,791,-8281,261,2,-4,0,0
44737,807,-8279,286,2,-5,0,0
44742,820,-8275,306,2,-5,0,0
44747,828,-8273,316,2,-6,0,0
44752,832,-8271,322,1,-8,0,0
44757,829,-8271,323,1,-9,0,0
44762,818,-8270,325,1,-11,0,0
44767,798,-8270,328,1,-12,0,0
44772,777,-8269,332,1,-13,0,0
44777,754,-8267,336,1,-13,0,0
44782,731,-8268,340,1,-14,0,0
44787,709,-8270,340,1,-14,0,0
44792,682,-8272,337,1,-14,0,0
44797,655,-8272,332,1,-14,0,0
44802,631,-8270,317,1,-14,0,0
44807,610,-8271,303,1,-14,0,0
44812,595,-8271,293,1,-15,0,0
44817,584,-8272,289,1,-15,0,0
44822,580,-8273,289,1,-15,0,0
44827,580,-8273,289,1,-15,0,0
44832,584,-8273,285,1,-16,0,0
44837,589,-8274,284,1,-16,0,0
44842,592,-8273,284,0,-17,0,0
44847,595,-8272,283,0,-18,0,0
44852,588,-8272,275,0,-19,0,0
44857,573,-8273,266,0,-20,0,0
44862,555,-8275,259,0,-19,0,0
44867,533,-8273,249,0,-18,0,0
44872,505,-8272,247,0,-16,0,0
44877,478,-8273,248,0,-13,0,0
44882,453,-8271,250,0,-9,0,0
44887,435,-8269,252,0,-5,0,0
44892,427,-8269,245,0,-1,0,0
44897,431,-8270,240,0,2,0,0
44902,447,-8273,232,0,4,0,0
44907,469,-8276,222,0,5,0,0
44912,490,-8276,209,0,5,0,0
44917,506,-8279,198,0,3,-1,0
44922,507,-8277,184,0,2,-1,0
44927,499,-8280,169,0,0,0,0
44932,480,-8280,147,0,-2,-1,0
44937,452,-8281,127,0,-3,0,0
44942,424,-8283,102,0,-3,0,0
44947,396,-8285,75,0,-3,0,0
44952,373,-8287,56,0,-1,-1,0
44957,358,-8289,46,0,0,-1,0
44962,348,-8285,42,0,1,-1,0
44967,338,-8283,43,0,1,-1,0
44972,336,-8282,53,0,1,-1,0
44977,337,-8283,63,0,1,-1,0
44982,338,-8279,78,0,0,-1,0
44987,341,-8278,87,0,-1,-1,0
44992,345,-8279,93,0,-1,-1,0
44997,350,-8282,94,0,-1,-1,0
45002,356,-8282,94,0,-1,-1,0
45007,359,-8283,90,0,-1,-1,0
45012,365,-8283,86,0,-1,-1,0
45017,372,-8285,83,0,-1,-1,0
45022,382,-8287,80,0,-1,-1,3
45027,389,-8288,76,0,-1,-1,3
45032,399,-8288,79,0,-1,-1,3
45037,408,-8290,87,0,-1,-1,3
45042,420,-8287,99,0,-2,-1,3
45047,425,-8288,116,0,-2,-2,3
45052,424,-8287,132,0,-2,-2,3
45057,416,-8287,150,0,-3,-2,3
45062,404,-8287,155,0,-3,-2,3
45067,388,-8284,157,0,-3,-2,3
45072,379,-8283,153,0,-2,-2,3
45077,369,-8282,145,0,-2,-2,3
45082,363,-8285,142,0,-1,-2,3
45087,367,-8287,136,0,-1,-2,3
45092,374,-8284,133,0,-1,-2,3
45097,388,-8286,133,0,-1,-2,3
45102,407,-8288,132,0,0,-2,3
45107,425,-8289,133,0,0,-2,3
45112,448,-8289,131,0,0,-2,3
45117,465,-8288,132,1,0,-2,3
45122,483,-8290,133,1,0,-2,3
45127,498,-8289,139,0,0,-2,3
45132,507,-8289,150,0,0,-2,3
45137,511,-8288,170,0,1,-2,3
45142,515,-8287,190,0,1,-2,3
45147,518,-8289,213,0,1,-2,3
45152,520,-8287,236,0,2,-2,3
45157,522,-8285,265,0,2,-2,3
45162,530,-8286,290,0,3,-2,3
45167,538,-8283,312,0,3,-2,3
45172,546,-8281,335,0,4,-2,3
45177,557,-8279,362,0,4,-2,3
45182,568,-8278,388,0,4,-2,3
45187,577,-8277,407,0,4,-2,3
45192,587,-8279,422,0,4,-2,3
45197,594,-8278,435,0,3,-2,3
45202,597,-8277,449,0,1,-2,3
45207,592,-8277,462,-1,0,-2,3
45212,580,-8274,468,-1,-1,-2,3
45217,561,-8274,470,-1,-1,-2,3
45222,537,-8275,467,-1,-1,-2,3
45227,516,-8278,459,-1,-1,-2,3
45232,497,-8276,441,-1,0,-2,3
45237,482,-8276,429,-1,0,-2,3
45242,472,-8273,418,-1,1,-2,3
45247,464,-8272,404,-1,2,-2,3
45252,461,-8273,397,-1,3,-2,3
45257,465,-8275,400,-1,4,-2,3
45262,471,-8274,410,-1,4,-2,3
45267,481,-8275,424,-1,4,-2,3
45272,491,-8273,447,-1,3,-2,3
45277,497,-8270,462,-1,2,-2,3
45282,501,-8269,474,-2,2,-2,3
45287,502,-8268,477,-2,2,-2,3
45292,501,-8266,467,-2,3,-2,3
45297,492,-8266,445,-2,4,-2,3
45302,474,-8268,413,-2,5,-2,3
45307,445,-8270,380,-2,6,-2,3
45312,412,-8272,346,-2,8,-2,3
45317,376,-8272,319,-2,10,-2,3
45322,343,-8275,291,-2,13,-3,3
45327,312,-8278,269,-2,16,-3,3
45332,288,-8280,241,-2,19,-3,3
45337,269,-8283,214,-2,22,-3,3
45342,255,-8288,191,-2,25,-3,3
45347,245,-8290,176,-2,28,-3,3
45352,239,-8289,161,-2,30,-4,3
45357,233,-8289,156,-2,31,-4,3
45362,231,-8287,154,-2,32,-4,3
45367,229,-8286,152,-2,31,-4,3
45372,227,-8284,144,-2,29,-4,3
45377,223,-8284,131,-1,27,-4,3
45382,214,-8283,113,-1,24,-4,3
45387,204,-8284,87,-1,21,-4,3
45392,193,-8284,59,-1,18,-4,3
45397,184,-8287,34,-1,16,-4,3
45402,174,-8288,22,-1,15,-4,3
45407,162,-8290,15,-1,14,-5,3
45412,148,-8289,9,-1,14,-5,3
45417,136,-8291,13,-1,14,-5,3
45422,131,-8293,20,-1,14,-5,3
45427,135,-8295,21,-1,14,-5,3
45432,145,-8292,16,-1,15,-5,3
45437,168,-8293,9,-1,16,-5,3
45442,211,-8295,3,-1,19,-5,3
45447,267,-8296,3,-1,20,-5,3
45452,338,-8295,-3,-1,21,-5,3
45457,415,-8292,-14,0,20,-5,3
45462,495,-8289,-20,0,18,-5,3
45467,573,-8287,-29,0,16,-5,3
45472,642,-8288,-46,0,13,-5,3
45477,694,-8289,-56,0,10,-5,3
45482,737,-8290,-70,0,7,-5,3
45487,764,-8289,-81,0,5,-5,3
45492,778,-8288,-84,0,5,-5,3
45497,785,-8289,-87,0,5,-4,3
45502,778,-8289,-90,1,6,-4,3
45507,764,-8289,-87,1,8,-4,3
45512,755,-8291,-77,1,11,-4,3
45517,754,-8292,-74,1,15,-4,3
45522,767,-8291,-66,1,18,-4,3
45527,793,-8289,-56,1,20,-4,3
45532,837,-8289,-42,1,20,-4,3
45537,888,-8289,-25,1,18,-4,3
45542,930,-8291,1,1,15,-4,3
45547,974,-8287,35,1,14,-4,3
45552,1019,-8283,72,1,12,-3,3
45557,1047,-8281,113,1,11,-3,3
45562,1073,-8278,153,1,9,-3,3
45567,1083,-8277,192,1,8,-3,3
45572,1070,-8276,231,1,7,-3,3
45577,1040,-8276,262,1,6,-3,3
45582,998,-8278,283,1,5,-3,3
45587,943,-8276,291,1,4,-3,3
45592,885,-8274,290,1,5,-3,3
45597,832,-8274,278,1,7,-3,3
45602,788,-8271,261,1,9,-3,3
45607,758,-8272,240,1,11,-3,3
45612,746,-8275,219,1,14,-3,3
45617,744,-8277,209,1,16,-3,3
45622,748,-8278,212,1,18,-3,3
45627,761,-8279,233,1,20,-3,3
45632,770,-8278,279,1,21,-3,3
45637,769,-8279,337,1,21,-3,3
45642,763,-8279,410,0,21,-3,3
45647,746,-8276,490,0,21,-3,3
45652,718,-8271,558,0,20,-3,3
45657,687,-8273,611,0,19,-3,3
45662,660,-8280,636,0,18,-3,3
45667,630,-8301,627,0,16,-3,3
45672,600,-8370,592,0,15,-3,3
45677,560,-8485,572,0,16,-3,3
45682,523,-8633,543,0,17,-3,3
45687,506,-8801,529,1,20,-3,3
45692,525,-8979,513,1,22,-3,3
45697,558,-9160,513,1,24,-2,3
45702,598,-9336,537,1,23,-2,3
45707,630,-9505,580,1,22,-2,3
45712,653,-9667,639,1,20,-2,3
45717,665,-9820,701,1,18,-1,3
45722,667,-9967,764,1,16,-1,3
45727,653,-10099,824,1,16,-1,3
45732,623,-10217,901,1,18,0,3
45737,587,-10310,980,0,21,0,3
45742,564,-10376,1044,0,25,0,3
45747,572,-10411,1090,0,29,0,3
45752,609,-10413,1119,0,32,0,3
45757,659,-10379,1133,-1,33,0,3
45762,714,-10315,1140,-1,32,1,3
45767,766,-10224,1142,-1,30,1,3
45772,814,-10115,1135,-1,27,2,3
45777,857,-9991,1118,-1,24,2,3
45782,888,-9842,1094,-2,21,3,3
45787,905,-9672,1065,-2,18,3,3
45792,903,-9487,1043,-2,16,4,3
45797,887,-9277,1026,-2,14,4,3
45802,860,-9054,998,-2,12,5,3
45807,826,-8814,955,-2,11,5,3
45812,787,-8558,905,-2,9,5,3
45817,739,-8285,848,-2,8,6,3
45822,680,-7996,797,-2,8,6,3
45827,611,-7685,751,-2,9,6,3
45832,539,-7357,699,-2,10,6,3
45837,475,-6999,640,-2,11,6,3
45842,422,-6615,584,-2,13,6,3
45847,377,-6210,534,-2,14,5,3
45852,313,-5792,482,-1,15,5,3
45857,304,-5364,426,-1,15,5,3
45862,271,-4938,349,-1,16,5,3
45867,269,-4523,248,0,15,5,3
45872,268,-4123,143,0,14,6,3
45877,279,-3746,30,0,12,6,3
45882,302,-3388,-78,1,11,6,3
45887,317,-3052,-186,2,9,6,3
45892,331,-2733,-283,3,7,6,3
45897,329,-2432,-371,3,4,6,3
45902,328,-2159,-443,4,1,7,3
45907,312,-1919,-485,5,-2,7,3
45912,294,-1723,-509,6,-4,7,3
45917,272,-1576,-514,6,-6,7,3
45922,256,-1497,-512,7,-8,7,3
45927,244,-1504,-501,8,-9,7,3
45932,253,-1616,-487,9,-11,7,3
45937,270,-1853,-453,9,-13,8,3
45942,280,-2235,-395,10,-15,8,3
45947,277,-2845,-305,11,-19,8,3
45952,-326,-4778,1594,22,-6,11,3
45957,21,-3852,1010,0,-8,14,3
45962,1214,-2740,136,2,-56,7,3
45967,1295,-2041,383,1,-76,3,3
45972,1047,-1465,327,-4,-82,-2,3
45977,184,-1634,637,-3,-39,-4,3
45982,-644,-3740,1437,3,20,-2,3
45987,-677,-5310,1109,6,78,0,3
45992,-251,-6357,696,9,113,4,3
45997,432,-7354,144,6,107,2,3
46002,1344,-8240,-226,2,83,-2,3
46007,1687,-9030,114,2,49,0,3
46012,1589,-9671,347,3,-1,2,3
46017,1373,-10070,679,4,-41,4,3
46022,908,-10241,1036,4,-49,5,3
46027,556,-10225,1181,3,-36,3,3
46032,26,-10075,1611,2,-10,3,3
46037,-308,-9831,1844,2,7,2,3
46042,-399,-9517,1880,2,20,3,3
46047,-337,-9165,1813,1,32,2,3
46052,-204,-8779,1630,0,40,1,3
46057,-38,-8332,1493,-1,41,0,3
46062,27,-7819,1496,-2,34,0,3
46067,89,-7224,1439,-2,22,0,3
46072,82,-6545,1314,-2,12,0,3
46077,-58,-5793,1200,-1,5,0,3
46082,-179,-4986,950,-1,1,-1,3
46087,-315,-4130,716,-1,3,-1,3
46092,-443,-3261,523,-1,12,-2,3
46097,-520,-2409,280,-1,23,-3,3
46102,-520,-1589,46,0,36,-4,3
46107,-472,-833,-174,1,46,-5,3
46112,-317,-160,-445,2,51,-5,3
46117,-125,405,-635,4,50,-4,3
46122,80,840,-748,5,41,-3,3
46127,298,1147,-877,7,28,-2,3
46132,453,1342,-930,8,15,0,3
46137,551,1430,-941,10,-1,1,3
46142,921,-1114,-321,15,-17,4,3
46147,20,-925,-8,8,6,4,3
46152,861,1547,-1058,2,-12,-1,3
46157,1387,3449,-1061,0,-69,-4,3
46162,590,672,871,-1,-107,-5,3
46167,231,-1348,369,-7,-64,-8,3
46172,-3,-1495,-14,-3,-4,-10,3
46177,-154,-1991,35,-1,60,-10,3
46182,-50,-2695,-192,0,104,-9,3
46187,244,-3447,-153,1,103,-6,3
46192,757,-4156,-298,2,73,-1,3
46197,1069,-4770,-285,3,25,4,3
46202,1297,-5281,-383,3,-26,7,3
46207,1574,-5723,-605,2,-48,7,3
46212,1560,-6096,-564,1,-39,4,3
46217,1564,-6410,-448,0,-24,0,3
46222,1619,-6672,-268,-1,-10,-3,3
46227,1436,-6888,152,-1,-4,-4,3
46232,1286,-7073,459,0,-11,-4,3
46237,1114,-7226,669,0,-15,-3,3
46242,877,-7362,921,1,-16,-2,3
46247,704,-7484,997,1,-15,-1,3
46252,586,-7591,1024,1,-15,0,3
46257,504,-7684,1075,1,-13,1,3
46262,508,-7768,976,1,-11,1,3
46267,555,-7842,914,0,-10,1,3
46272,600,-7901,908,0,-9,1,3
46277,658,-7954,832,0,-10,1,3
46282,689,-7995,833,-1,-12,1,3
46287,654,-8029,874,-1,-12,0,3
46292,595,-8060,881,-1,-11,0,3
46297,527,-8086,940,-1,-11,0,3
46302,429,-8109,996,-1,-10,0,3
46307,351,-8130,1021,-1,-10,1,3
46312,306,-8147,1040,-1,-8,1,3
46317,260,-8163,1054,-1,-5,1,3
46322,261,-8175,1039,-1,-4,1,3
46327,286,-8188,1015,-1,-3,1,3
46332,286,-8201,1003,-1,-2,0,3
46337,293,-8213,969,-1,-3,0,3
46342,282,-8225,933,-2,-4,0,3
46347,244,-8232,924,-2,-5,0,3
46352,206,-8240,897,-2,-5,0,3
46357,179,-8246,880,-2,-6,0,3
46362,143,-8247,880,-2,-6,0,3
46367,121,-8249,862,-2,-6,0,3
46372,127,-8250,841,-2,-5,0,3
46377,113,-8253,823,-2,-4,0,3
46382,115,-8252,794,-2,-4,0,3
46387,122,-8254,766,-2,-4,0,3
46391,91,-8256,744,-2,-3,0,3
46397,79,-8258,713,-2,-4,0,3
46402,60,-8260,689,-2,-4,0,3
46407,13,-8263,674,-2,-4,-1,3
46412,-2,-8263,653,-2,-4,-1,3
46416,-22,-8261,636,-2,-3,-1,3
46422,-45,-8258,623,-2,-1,-1,3
46427,-35,-8260,600,-2,-1,-1,3
46432,-35,-8265,579,-2,0,-1,3
46437,-35,-8268,557,-2,0,-1,3
46442,-20,-8273,522,-2,0,-1,3
46447,-12,-8278,497,-2,0,-1,3
46452,-11,-8280,477,-2,0,-1,3
46456,-4,-8280,459,-1,-1,-1,3
46462,4,-8279,448,-1,-1,-1,3
46467,0,-8277,439,-1,0,-1,3
46471,7,-8279,417,-1,0,-2,3
46476,11,-8278,399,-1,0,-2,3
46482,1,-8276,394,-1,1,-2,3
46487,20,-8276,375,-1,1,-2,3
46491,23,-8274,368,-1,2,-2,3
46497,19,-8274,373,-1,2,-2,3
46501,46,-8276,367,-1,1,-2,3
46507,43,-8276,383,-1,2,-2,3
46511,47,-8278,413,-1,1,-2,3
46517,69,-8280,419,-1,1,-2,3
46522,59,-8282,443,-1,2,-2,3
46526,64,-8280,469,-1,2,-2,3
46532,74,-8278,481,-1,2,-2,3
46536,66,-8276,509,-1,2,-2,3
46542,73,-8272,536,-1,1,-2,3
46547,83,-8270,551,-1,1,-2,3
46551,90,-8269,578,-1,2,-2,3
46556,104,-8265,609,-1,2,-2,3
46561,115,-8265,627,-1,2,-2,3
46566,122,-8266,647,-1,2,-2,3
46571,134,-8268,660,-1,3,-2,3
46576,157,-8267,670,-1,3,-2,3
46582,172,-8267,692,-1,3,-2,3
46586,200,-8268,700,-1,3,-2,3
46591,229,-8269,702,-1,2,-2,3
46596,242,-8269,723,-1,1,-2,3
46601,266,-8269,732,-1,1,-2,3
46606,286,-8267,741,-1,0,-2,3
46611,291,-8265,763,-1,0,-2,3
46616,307,-8264,763,-1,-1,-2,3
46621,304,-8262,766,-1,-2,-2,3
46626,301,-8258,769,-1,-2,-2,3
46631,312,-8257,744,-1,-2,-2,3
46636,312,-8259,731,-1,-2,-2,3
46641,322,-8258,723,-1,-3,-2,3
46646,333,-8257,705,-1,-3,-2,3
46651,332,-8260,700,-1,-2,-2,3
46657,336,-8265,696,-1,-2,-2,3
46662,340,-8269,686,-1,-2,-2,3
46666,335,-8269,689,-1,-2,-2,3
46671,332,-8266,694,-1,-3,-2,3
46676,329,-8266,689,-1,-3,-2,3
46681,318,-8266,695,-1,-2,-2,3
46686,307,-8263,697,-1,-2,-2,3
46691,305,-8262,693,-1,-2,-1,3
46696,293,-8260,700,-1,-2,-2,3
46701,283,-8259,697,-1,-2,-2,3
46706,279,-8258,693,-1,-2,-2,3
46711,265,-8257,692,-1,-2,-1,3
46716,262,-8258,683,-1,-2,-1,3
46721,259,-8260,676,-1,-2,-1,3
46726,248,-8260,685,-1,-2,-1,3
46731,248,-8263,681,-1,-2,-1,3
46736,244,-8263,681,-1,-2,-1,3
46741,232,-8262,688,-1,-3,-1,3
46746,227,-8261,680,-1,-3,-2,3
46751,210,-8257,684,-1,-2,-2,3
46756,200,-8256,694,-2,-2,-2,3
46761,196,-8255,694,-2,-2,-2,3
46766,182,-8256,700,-2,-2,-1,3
46771,173,-8259,708,-2,-2,-2,3
46776,172,-8261,705,-2,-2,-2,3
46781,167,-8263,706,-2,-2,-2,3
46786,158,-8266,700,-2,-2,-2,3
46791,147,-8264,686,-2,-2,-2,3
46796,134,-8263,673,-2,-1,-2,3
46801,126,-8265,663,-2,-1,-2,3
46806,129,-8265,654,-2,-1,-2,3
46811,121,-8265,643,-2,-1,-2,3
46816,122,-8265,634,-2,-1,-2,3
46821,126,-8265,623,-2,-1,-2,3
46826,117,-8264,611,-2,-1,-2,3
46831,116,-8263,602,-2,-1,-2,3
46836,116,-8263,587,-1,-1,-2,3
46841,110,-8264,574,-1,-1,-2,3
46846,116,-8264,558,-1,-1,-2,3
46851,120,-8264,555,-1,-1,-2,3
46856,116,-8266,545,-1,-2,-2,3
46861,117,-8270,535,-1,-2,-2,3
46866,112,-8270,532,-1,-1,-2,3
46871,108,-8268,527,-1,-2,-2,3
46876,108,-8270,525,-1,-1,-2,3
46881,107,-8269,529,-1,-1,-2,3
46886,106,-8268,532,-1,-1,-2,3
46891,111,-8268,536,-1,-1,-2,3
46896,111,-8267,545,-1,-1,-2,3
46901,115,-8265,557,-1,-1,-2,3
46906,129,-8263,565,-1,-1,-3,3
46911,138,-8264,571,-1,-1,-2,3
46916,147,-8262,579,-1,-1,-2,3
46921,169,-8262,586,-1,-1,-2,3
46926,182,-8264,587,-1,0,-2,3
46931,200,-8266,588,-1,0,-3,3
46936,228,-8267,586,-1,0,-2,3
46941,245,-8267,588,-1,0,-2,3
46946,270,-8265,585,-1,0,-2,3
46951,295,-8269,591,-1,0,-2,3
46956,310,-8268,605,-1,-1,-2,3
46961,335,-8268,617,-1,-1,-2,3
46966,355,-8268,621,-1,-1,-2,3
46971,367,-8268,630,-1,-2,-2,3
46976,381,-8266,630,-1,-2,-2,3
46981,385,-8268,631,-1,-2,-2,3
46986,385,-8268,633,-1,-2,-2,3
46991,387,-8268,634,-1,-2,-2,3
46996,383,-8270,632,-1,-3,-2,3
47001,376,-8269,634,-1,-3,-2,3
47006,373,-8269,639,-1,-3,-2,3
47011,364,-8269,641,-1,-2,-2,3
47016,358,-8268,648,-1,-2,-2,3
47021,362,-8268,650,-1,-2,-2,0
47026,366,-8264,649,-1,-2,-2,0
47031,374,-8266,649,-1,-2,-1,0
47036,384,-8268,642,-1,-2,-1,0
47041,384,-8268,643,-1,-2,-2,0
47046,379,-8270,646,-1,-2,-1,0
47051,373,-8271,644,-1,-3,-1,0
47056,356,-8272,648,-1,-3,-1,0
47061,340,-8273,648,-1,-3,-1,0
47066,326,-8274,647,-1,-3,-1,0
47071,302,-8273,649,-1,-3,-1,0
47076,286,-8272,649,-1,-3,-1,0
47081,273,-8271,655,-1,-2,-1,0
47086,262,-8270,664,-1,-2,-1,0
47091,260,-8267,668,-1,-2,-1,0
47096,254,-8266,669,-1,-2,-1,0
47101,251,-8267,667,-1,-2,-1,0
47106,257,-8266,663,-1,-2,-1,0
47111,260,-8267,653,-1,-2,-1,0
47116,254,-8269,645,-1,-3,-1,0
47121,250,-8269,633,-1,-2,-1,0
47126,246,-8270,633,-1,-2,-1,0
47131,245,-8267,631,-1,-2,-1,0
47136,251,-8265,623,-1,-2,-1,0
47141,257,-8265,616,-1,-2,-1,0
47146,261,-8266,609,-1,-2,-1,0
47151,267,-8267,594,-1,-3,-1,0
47156,260,-8266,576,-1,-3,-1,0
47161,252,-8265,565,-1,-3,-1,0
47166,242,-8265,552,-1,-2,-1,0
47171,232,-8266,554,-1,-2,-1,0
47176,227,-8269,560,-1,-2,-1,0
47181,228,-8268,567,-1,-2,-1,0
47186,226,-8268,580,-1,-2,-1,0
47191,228,-8268,588,-1,-2,-1,0
47196,230,-8269,585,-1,-3,-1,0
47201,222,-8270,582,-1,-3,-1,0
47206,214,-8270,578,-1,-3,-1,0
47211,203,-8270,582,-1,-2,-1,0
47216,190,-8269,589,-1,-2,-1,0
47221,187,-8270,596,-1,-2,-1,0
47226,188,-8270,604,-1,-2,-1,0
47231,190,-8268,610,-1,-2,-1,0
47236,199,-8268,604,-1,-2,-1,0
47241,204,-8269,600,-1,-2,-1,0
47246,206,-8268,600,-1,-2,-1,0
47251,211,-8268,587,-1,-2,-2,0
47256,211,-8266,578,-1,-2,-2,0
47261,212,-8267,585,-1,-2,-2,0
47266,220,-8269,596,-1,-2,-1,0
