millis,ax,ay,az,gx,gy,gz,label
11052,-83,-8180,-231,-3,-1,0,0
11057,-111,-8182,-239,-3,-1,0,0
11062,-134,-8184,-242,-3,-1,0,0
11067,-145,-8188,-235,-3,-1,0,0
11073,-148,-8188,-227,-3,-1,0,0
11078,-148,-8185,-223,-3,-1,0,0
11084,-142,-8187,-224,-3,-1,0,0
11089,-134,-8185,-235,-3,-1,0,0
11095,-126,-8183,-247,-3,-1,0,0
11101,-116,-8181,-257,-3,-1,0,0
11106,-110,-8183,-261,-3,-1,0,0
11111,-106,-8184,-262,-3,-1,-1,0
11117,-104,-8184,-259,-3,-1,-1,0
11122,-103,-8185,-253,-3,-1,-1,0
11128,-102,-8184,-249,-3,-1,0,0
11134,-96,-8182,-247,-3,-1,0,0
11139,-86,-8182,-256,-3,-1,0,0
11145,-71,-8182,-267,-3,-1,0,0
11150,-53,-8182,-271,-3,-1,0,0
11156,-31,-8183,-274,-3,-1,0,0
11162,-8,-8183,-272,-3,-1,0,0
11167,14,-8182,-262,-3,-1,0,0
11172,27,-8181,-248,-3,-1,0,0
11177,37,-8181,-231,-3,-1,0,0
11182,41,-8185,-222,-3,-1,0,0
11188,33,-8188,-223,-3,-2,0,0
11192,19,-8189,-235,-3,-2,0,0
11196,2,-8190,-252,-3,-2,0,0
11200,-13,-8189,-274,-3,-2,0,0
11205,-29,-8188,-296,-3,-2,0,0
11209,-41,-8188,-312,-3,-2,0,0
11214,-47,-8188,-328,-2,-2,0,0
11218,-49,-8189,-331,-2,-2,0,0
11222,-49,-8189,-328,-2,-2,0,0
11226,-39,-8187,-321,-2,-1,0,0
11230,-27,-8186,-305,-2,-1,0,0
11235,-15,-8185,-292,-2,-1,0,0
11241,-6,-8183,-275,-2,-2,0,0
11247,-3,-8180,-256,-2,-2,0,0
11252,-10,-8182,-237,-2,-2,0,0
11257,-25,-8186,-217,-2,-2,0,0
11263,-46,-8183,-195,-2,-2,0,0
11268,-67,-8183,-171,-2,-2,0,0
11274,-86,-8182,-150,-3,-2,0,0
11279,-100,-8184,-132,-3,-2,0,0
11284,-106,-8186,-125,-3,-2,0,0
11289,-104,-8186,-119,-2,-2,0,0
11293,-98,-8187,-115,-3,-2,0,0
11297,-88,-8188,-120,-3,-2,0,0
11301,-73,-8186,-125,-3,-2,0,0
11305,-57,-8186,-141,-3,-2,0,0
11310,-40,-8184,-156,-3,-2,0,0
11314,-23,-8182,-174,-3,-2,0,0
11319,-2,-8182,-186,-3,-2,0,0
11324,21,-8181,-196,-3,-2,0,0
11329,42,-8179,-207,-3,-2,0,0
11334,64,-8177,-217,-3,-1,0,0
11339,77,-8177,-219,-3,-1,0,0
11345,79,-8176,-223,-3,-1,0,0
11350,72,-8176,-231,-3,-2,0,0
11355,56,-8175,-242,-3,-2,0,0
11360,33,-8175,-250,-3,-1,0,0
11365,11,-8174,-258,-3,-1,0,0
11369,-12,-8176,-262,-2,-1,0,0
11373,-32,-8179,-262,-3,-1,0,0
11377,-38,-8180,-256,-2,-1,0,0
11382,-40,-8180,-248,-3,-1,0,0
11387,-38,-8181,-241,-3,-1,0,0
11392,-34,-8183,-231,-3,-1,0,0
11398,-31,-8187,-220,-3,-1,0,0
11402,-24,-8186,-214,-3,-1,0,0
11407,-20,-8188,-211,-3,-1,0,0
11413,-23,-8188,-208,-2,-1,0,0
11417,-27,-8185,-211,-2,-1,0,0
11423,-33,-8187,-210,-3,-2,0,0
11428,-44,-8188,-211,-3,-2,0,0
11433,-57,-8188,-210,-3,-2,0,0
11437,-68,-8190,-209,-3,-2,0,0
11442,-78,-8190,-210,-3,-2,0,0
11447,-84,-8189,-215,-3,-2,0,0
11452,-86,-8187,-221,-3,-2,0,0
11458,-84,-8184,-227,-3,-2,0,0
11463,-78,-8185,-234,-3,-2,0,0
11467,-66,-8184,-242,-3,-2,0,0
11472,-55,-8184,-251,-3,-2,0,0
11478,-44,-8184,-255,-3,-2,0,0
11483,-39,-8182,-258,-3,-2,0,0
11488,-39,-8180,-263,-3,-2,0,0
11493,-46,-8182,-265,-3,-2,0,0
11498,-58,-8183,-266,-3,-2,0,0
11502,-70,-8181,-269,-2,-2,0,0
11508,-83,-8183,-267,-3,-2,0,0
11512,-91,-8182,-266,-2,-2,0,0
11517,-94,-8180,-269,-3,-2,0,0
11523,-88,-8181,-264,-3,-2,0,0
11529,-79,-8182,-261,-3,-2,0,0
11534,-68,-8183,-256,-3,-2,0,0
11540,-60,-8183,-252,-2,-2,0,0
11546,-56,-8181,-253,-2,-2,0,0
11551,-55,-8181,-253,-2,-2,0,0
11556,-56,-8182,-256,-2,-2,0,0
11561,-56,-8182,-257,-2,-2,0,0
11567,-55,-8184,-258,-2,-2,0,0
11573,-55,-8182,-259,-2,-2,0,0
11577,-52,-8182,-262,-2,-2,0,0
11583,-50,-8180,-264,-2,-2,0,0
11588,-46,-8179,-269,-2,-1,0,0
11594,-43,-8181,-274,-2,-1,0,0
11598,-37,-8179,-273,-2,-1,0,0
11603,-31,-8177,-279,-2,-1,0,0
11608,-24,-8178,-283,-2,-1,0,0
11614,-13,-8178,-289,-2,-1,0,0
11619,-5,-8178,-296,-2,-1,0,0
11624,1,-8179,-303,-2,-1,0,0
11628,0,-8178,-309,-2,-1,0,0
11633,-10,-8180,-316,-2,-1,0,0
11638,-21,-8183,-314,-2,-1,0,0
11644,-31,-8185,-317,-2,-1,0,0
11649,-43,-8184,-315,-2,-1,0,0
11654,-56,-8186,-309,-2,-1,0,0
11659,-66,-8188,-305,-2,-1,0,0
11664,-73,-8186,-303,-2,-1,0,0
11669,-80,-8185,-300,-2,-1,0,0
11674,-83,-8184,-295,-2,-1,0,0
11679,-84,-8186,-292,-2,-1,0,0
11684,-78,-8182,-289,-2,-1,0,0
11689,-69,-8182,-290,-2,-1,-1,0
11695,-60,-8183,-286,-2,-1,-1,0
11700,-53,-8184,-289,-2,-1,-1,0
11707,-52,-8186,-288,-2,-1,-1,0
11712,-56,-8185,-294,-2,-2,-1,0
11717,-62,-8188,-303,-2,-2,-1,0
11721,-68,-8188,-309,-2,-2,-1,0
11727,-73,-8188,-312,-2,-1,-1,0
11731,-77,-8187,-311,-2,-1,-1,0
11736,-76,-8186,-300,-2,-1,-1,0
11741,-75,-8187,-291,-2,-1,-1,0
11745,-70,-8187,-281,-2,-1,-1,0
11750,-64,-8188,-272,-2,-1,-1,0
11754,-59,-8187,-265,-2,-1,-1,0
11758,-55,-8188,-260,-2,-2,-1,0
11763,-49,-8189,-258,-2,-2,-1,0
11767,-49,-8187,-256,-2,-2,-1,0
11772,-56,-8187,-260,-2,-1,-1,0
11776,-61,-8185,-263,-2,-1,-1,0
11781,-66,-8187,-263,-2,-1,-1,0
11785,-71,-8188,-267,-2,-1,-1,0
11789,-72,-8187,-269,-2,-1,-1,0
11794,-75,-8184,-267,-2,-1,-1,0
11798,-83,-8183,-260,-2,-1,-1,0
11803,-88,-8181,-254,-2,-1,-1,0
11807,-93,-8179,-251,-2,-2,-1,0
11812,-97,-8183,-248,-2,-2,-1,0
11817,-97,-8187,-247,-2,-2,-1,0
11822,-95,-8187,-252,-2,-2,-1,0
11827,-91,-8186,-260,-2,-2,-1,0
11832,-87,-8185,-273,-2,-2,-1,0
11837,-83,-8186,-287,-2,-2,-1,0
11842,-84,-8188,-299,-2,-2,-1,0
11847,-85,-8190,-310,-2,-2,-1,0
11852,-91,-8189,-317,-2,-1,-1,0
11857,-97,-8190,-322,-2,-1,-1,0
11862,-106,-8192,-327,-2,-1,-1,0
11867,-117,-8192,-334,-2,-1,-1,0
11872,-130,-8193,-346,-2,-2,-1,0
11877,-143,-8194,-355,-2,-2,-1,0
11882,-159,-8194,-360,-2,-2,-1,0
11887,-173,-8194,-360,-2,-2,-1,0
11892,-186,-8193,-359,-1,-2,-1,0
11897,-194,-8190,-363,-1,-2,-1,0
11902,-196,-8185,-367,-1,-2,-1,0
11907,-199,-8187,-368,-1,-2,-1,0
11912,-198,-8186,-372,-1,-2,-1,0
11917,-194,-8184,-379,-1,-2,-1,0
11922,-187,-8181,-386,-1,-3,-1,0
11927,-179,-8180,-395,-1,-3,-2,0
11932,-173,-8180,-398,-1,-3,-2,0
11937,-165,-8181,-396,-1,-3,-2,0
11942,-158,-8178,-391,-1,-3,-2,0
11946,-153,-8178,-378,-1,-3,-2,0
11951,-152,-8178,-367,-1,-3,-2,0
11957,-153,-8174,-359,-1,-3,-2,0
11962,-152,-8174,-351,-1,-3,-2,0
11966,-149,-8174,-343,-1,-3,-2,0
11972,-138,-8172,-332,-1,-3,-2,0
11976,-125,-8176,-322,-1,-3,-2,0
11981,-117,-8177,-312,-1,-3,-2,0
11986,-101,-8181,-304,-1,-4,-2,0
11991,-93,-8185,-296,-1,-4,-2,0
11996,-88,-8185,-290,-1,-4,-2,0
12001,-85,-8185,-292,-1,-4,-2,0
12006,-93,-8183,-296,-1,-5,-2,0
12012,-110,-8184,-293,-1,-5,-2,0
12016,-129,-8188,-297,-1,-6,-2,0
12021,-148,-8192,-297,-1,-6,-2,0
12026,-170,-8192,-294,-1,-7,-2,0
12031,-177,-8193,-282,-1,-7,-2,0
12036,-177,-8193,-270,-1,-7,-2,0
12041,-170,-8191,-256,-1,-7,-2,0
12046,-159,-8191,-242,-1,-8,-2,0
12051,-150,-8191,-230,-1,-8,-2,0
12056,-139,-8193,-224,-1,-8,-2,0
12061,-125,-8194,-215,-1,-8,-2,0
12066,-114,-8195,-205,-1,-9,-2,0
12071,-98,-8193,-192,-1,-9,-2,0
12076,-78,-8189,-170,-1,-9,-2,0
12081,-53,-8188,-149,-1,-10,-2,0
12086,-18,-8185,-123,-1,-11,-2,0
12091,14,-8183,-98,-1,-12,-2,0
12097,45,-8182,-83,-1,-13,-2,0
12102,85,-8181,-76,-1,-15,-2,0
12107,130,-8180,-85,-1,-17,-2,0
12113,168,-8177,-101,-1,-20,-2,0
12118,184,-8177,-118,0,-25,-2,0
12124,174,-8180,-136,0,-27,-3,0
12129,148,-8181,-156,0,-30,-3,0
12133,103,-8181,-173,0,-32,-3,0
12138,43,-8183,-187,0,-34,-3,0
12143,-12,-8185,-196,0,-36,-3,0
12148,-67,-8184,-202,0,-39,-3,0
12153,-113,-8185,-208,0,-41,-3,0
12158,-145,-8185,-210,0,-42,-3,0
12163,-161,-8188,-205,0,-45,-4,0
12168,-161,-8189,-186,0,-47,-4,0
12174,-145,-8190,-158,0,-49,-4,0
12179,-120,-8192,-119,0,-52,-4,0
12184,-96,-8191,-69,0,-54,-4,0
12190,-71,-8189,-30,0,-56,-4,0
12196,-50,-8189,6,0,-58,-4,0
12200,-34,-8188,26,0,-61,-5,0
12205,-37,-8190,32,0,-64,-5,0
12210,-66,-8191,26,0,-66,-5,0
12215,-102,-8188,4,0,-66,-5,0
12219,-132,-8185,-19,0,-65,-5,0
12223,-166,-8187,-44,0,-64,-5,0
12227,-205,-8190,-57,0,-63,-5,0
12232,-233,-8191,-61,-1,-61,-5,0
12237,-244,-8192,-64,-1,-58,-5,0
12243,-254,-8192,-58,-1,-56,-5,0
12248,-261,-8190,-53,-1,-54,-6,0
12253,-268,-8188,-60,-1,-52,-6,0
12259,-275,-8191,-64,-1,-50,-6,0
12265,-281,-8192,-72,-1,-49,-6,0
12270,-285,-8194,-78,-1,-49,-6,0
12275,-294,-8192,-70,-1,-49,-6,0
12281,-302,-8196,-73,-1,-48,-6,0
12286,-304,-8205,-65,-1,-46,-6,0
12291,-304,-8196,-49,-1,-42,-6,0
12297,-277,-8190,-74,-1,-39,-6,0
12302,-233,-8188,-94,-1,-38,-6,0
12307,-188,-8187,-127,-1,-39,-7,0
12313,-149,-8187,-172,-1,-41,-7,0
12318,-121,-8189,-194,-1,-42,-7,0
12323,-123,-8187,-211,-1,-43,-7,0
12328,-153,-8185,-217,-1,-42,-7,0
12334,-190,-8182,-221,-1,-39,-7,0
12339,-229,-8181,-233,-1,-38,-8,0
12344,-268,-8179,-266,-1,-37,-8,0
12350,-310,-8180,-318,-1,-34,-8,0
12356,-342,-8180,-377,-1,-31,-8,0
12362,-364,-8181,-438,-1,-26,-8,0
12368,-376,-8181,-491,-1,-23,-8,0
12373,-373,-8181,-523,-1,-20,-8,0
12379,-355,-8177,-534,-1,-19,-8,0
12384,-332,-8173,-525,-1,-17,-8,0
12390,-301,-8169,-497,-1,-15,-8,0
12395,-260,-8167,-468,0,-12,-8,0
12400,-205,-8162,-447,0,-9,-9,0
12406,-142,-8160,-429,0,-8,-9,0
12412,-73,-8159,-419,0,-8,-9,0
12418,-6,-8157,-414,0,-10,-9,0
12423,61,-8157,-407,0,-12,-9,0
12429,125,-8156,-384,0,-16,-9,0
12434,168,-8155,-359,0,-19,-9,0
12439,192,-8152,-326,0,-23,-9,0
12444,209,-8154,-289,0,-26,-10,0
12449,218,-8156,-260,1,-29,-10,0
12453,235,-8160,-229,1,-33,-10,0
12458,255,-8161,-204,1,-38,-10,0
12462,273,-8162,-176,1,-43,-10,0
12467,291,-8160,-153,1,-47,-10,0
12471,314,-8159,-138,1,-49,-10,0
12476,338,-8158,-122,1,-51,-10,0
12481,355,-8156,-119,1,-54,-11,0
12486,363,-8153,-119,1,-57,-11,0
12491,356,-8152,-128,1,-59,-11,0
12495,332,-8155,-137,1,-61,-11,0
12500,308,-8154,-149,1,-62,-11,0
12505,296,-8151,-171,1,-62,-11,0
12510,294,-8148,-200,1,-63,-11,0
12514,291,-8149,-232,1,-64,-11,0
12519,295,-8147,-264,1,-64,-11,0
12524,301,-8144,-304,1,-63,-12,0
12529,320,-8143,-333,1,-62,-12,0
12534,344,-8144,-357,1,-61,-12,0
12539,369,-8143,-375,1,-61,-12,0
12544,397,-8145,-390,1,-60,-12,0
12549,429,-8139,-399,1,-58,-12,0
12555,471,-8137,-396,1,-57,-12,0
12560,519,-8138,-395,1,-57,-12,0
12565,570,-8134,-390,1,-58,-12,0
12570,625,-8131,-384,2,-57,-12,0
12575,673,-8134,-376,2,-57,-12,0
12581,718,-8132,-368,2,-57,-12,0
12586,761,-8130,-365,2,-56,-12,0
12591,799,-8128,-366,2,-56,-12,0
12596,815,-8128,-374,2,-56,-12,0
12601,819,-8127,-388,2,-53,-12,0
12606,814,-8128,-410,2,-51,-12,0
12612,793,-8128,-432,2,-49,-12,0
12617,771,-8132,-456,2,-46,-11,0
12623,756,-8131,-479,2,-42,-11,0
12628,749,-8130,-499,2,-38,-11,0
12634,758,-8128,-505,2,-34,-11,0
12639,777,-8128,-506,2,-31,-11,0
12643,807,-8125,-511,2,-28,-11,0
12648,871,-8125,-498,2,-27,-11,0
12653,895,-8121,-492,2,-28,-11,0
12657,938,-8114,-490,3,-27,-11,0
12662,1011,-8117,-464,2,-25,-11,0
12667,1068,-8112,-465,2,-24,-10,0
12672,1120,-8109,-450,3,-23,-10,0
12677,1177,-8106,-433,3,-21,-10,0
12682,1219,-8104,-427,3,-21,-10,0
12687,1247,-8100,-425,3,-20,-10,0
12692,1261,-8100,-422,3,-20,-10,0
12696,1269,-8101,-421,3,-20,-10,0
12701,1257,-8102,-423,3,-18,-10,0
12706,1238,-8100,-426,3,-16,-10,0
12711,1217,-8099,-435,3,-13,-10,0
12716,1185,-8100,-449,3,-10,-10,0
12721,1161,-8100,-463,4,-8,-9,0
12725,1143,-8099,-481,4,-5,-9,0
12730,1128,-8100,-487,4,-3,-9,0
12734,1119,-8099,-480,4,-2,-9,0
12740,1112,-8096,-459,4,0,-9,0
12745,1103,-8093,-434,4,1,-9,0
12750,1093,-8093,-399,4,2,-9,0
12755,1075,-8094,-370,4,3,-9,0
12760,1052,-8095,-339,4,3,-9,0
12765,1031,-8094,-308,4,4,-9,0
12769,1021,-8093,-279,4,5,-9,0
12773,1028,-8093,-246,4,5,-9,0
12778,1051,-8092,-205,4,6,-9,0
12782,1081,-8090,-161,4,6,-9,0
12787,1122,-8085,-115,4,6,-9,0
12791,1159,-8082,-70,4,6,-9,0
12796,1194,-8081,-25,4,6,-9,0
12801,1227,-8082,19,4,5,-9,0
12806,1248,-8080,59,5,4,-9,0
12811,1263,-8079,103,5,4,-9,0
12816,1275,-8080,141,4,4,-9,0
12820,1283,-8080,175,4,4,-9,0
12825,1294,-8080,214,4,4,-9,0
12830,1310,-8078,258,4,4,-9,0
12834,1330,-8077,303,4,4,-9,0
12838,1356,-8075,353,4,4,-9,0
12843,1387,-8073,402,4,4,-9,0
12847,1418,-8075,444,4,4,-9,0
12851,1446,-8078,487,4,3,-9,0
12856,1468,-8076,525,4,3,-9,0
12861,1490,-8078,563,4,2,-9,0
12865,1509,-8083,598,3,2,-9,0
12869,1536,-8083,624,3,2,-8,0
12874,1507,-8080,654,3,1,-8,0
12878,1529,-8080,665,3,0,-8,0
12883,1554,-8081,684,3,2,-8,0
12887,1573,-8078,701,3,2,-8,0
12891,1591,-8077,714,3,2,-8,0
12896,1599,-8074,728,2,2,-8,0
12900,1600,-8072,739,2,2,-8,0
12906,1588,-8068,751,2,3,-8,0
12911,1587,-8067,764,2,3,-8,0
12916,1598,-8069,781,2,3,-8,0
12921,1604,-8068,795,2,3,-7,0
12926,1624,-8068,807,2,3,-7,0
12931,1642,-8070,808,1,3,-8,0
12936,1653,-8071,804,1,3,-8,0
12941,1662,-8069,796,1,3,-7,0
12946,1662,-8070,780,1,3,-7,0
12950,1655,-8067,764,1,2,-7,0
12956,1638,-8065,740,1,2,-7,0
12960,1608,-8066,713,1,1,-7,0
12965,1570,-8065,680,1,1,-7,0
12970,1519,-8066,646,1,0,-8,0
12975,1461,-8064,606,1,0,-8,0
12980,1403,-8063,569,1,-1,-8,0
12985,1349,-8062,535,1,-1,-8,0
12990,1296,-8062,506,1,-1,-8,0
12995,1256,-8060,480,1,-1,-8,0
13000,1221,-8056,454,1,-2,-8,0
13005,1191,-8053,427,1,-2,-8,0
13010,1169,-8053,401,1,-3,-9,0
13015,1147,-8052,377,1,-3,-9,0
13020,1133,-8054,359,1,-3,-9,0
13025,1124,-8054,341,1,-3,-9,0
13030,1126,-8053,329,1,-3,-9,0
13035,1138,-8051,320,1,-3,-9,0
13040,1163,-8048,310,1,-3,-9,0
13045,1205,-8043,305,1,-3,-9,0
13050,1255,-8040,301,1,-3,-9,0
13055,1312,-8034,293,1,-3,-9,0
13060,1370,-8029,275,1,-3,-9,0
13065,1426,-8025,256,1,-4,-9,0
13070,1476,-8021,232,2,-4,-9,0
13075,1526,-8015,206,2,-4,-9,0
13080,1574,-8011,178,2,-4,-9,0
13085,1619,-8009,152,2,-4,-9,0
13090,1664,-8008,128,2,-3,-9,0
13095,1707,-8005,104,2,-2,-9,0
13100,1753,-8003,80,2,-2,-9,0
13105,1802,-7999,68,2,-1,-9,0
13110,1850,-7996,54,2,0,-9,0
13115,1894,-7993,48,2,1,-9,0
13120,1933,-7990,46,3,2,-8,0
13125,1970,-7986,42,3,3,-8,0
13130,2002,-7985,42,3,4,-8,0
13135,2028,-7983,49,3,6,-8,0
13140,2046,-7983,48,3,7,-8,0
13145,2059,-7977,56,3,9,-8,0
13150,2064,-7979,58,3,11,-8,0
13155,2060,-7975,74,3,13,-8,0
13160,2061,-7975,94,3,14,-8,0
13165,2063,-7976,114,3,15,-7,0
13170,2052,-7975,147,3,13,-7,0
13175,2035,-7972,176,3,12,-7,0
13180,2005,-7967,201,4,12,-7,0
13185,1980,-7966,219,4,13,-7,0
13190,1956,-7964,234,4,15,-7,0
13195,1951,-7965,249,4,16,-7,0
13200,1946,-7970,263,4,16,-7,0
13205,1934,-7966,284,4,15,-7,0
13210,1918,-7969,305,4,13,-7,0
13215,1896,-7968,330,4,12,-7,0
13220,1876,-7967,354,4,12,-7,0
13225,1866,-7966,381,4,13,-7,0
13230,1868,-7962,399,4,13,-7,0
13235,1864,-7958,414,4,12,-7,0
13240,1867,-7957,428,4,13,-7,0
13245,1875,-7958,437,4,13,-7,0
13250,1883,-7956,440,4,13,-7,0
13255,1891,-7955,444,4,13,-7,0
13260,1894,-7952,454,4,13,-7,0
13265,1888,-7955,464,4,12,-7,0
13270,1881,-7956,477,4,11,-7,0
13275,1861,-7954,487,4,10,-6,0
13280,1830,-7947,494,4,9,-6,0
13285,1800,-7940,499,4,9,-6,0
13290,1765,-7945,503,4,9,-6,0
13295,1748,-7947,485,4,9,-6,0
13300,1718,-7942,469,4,10,-5,0
13305,1706,-7945,478,4,9,-5,0
13310,1717,-7934,545,4,11,-6,0
13315,1747,-7923,654,4,13,-7,0
13320,1795,-7911,753,5,15,-7,0
13325,1843,-7910,829,5,18,-7,0
13330,1891,-7910,868,5,19,-7,0
13335,1928,-7908,861,5,16,-7,0
13340,1949,-7913,834,5,12,-8,0
13345,1950,-7912,792,5,7,-8,0
13350,1915,-7906,768,5,3,-8,0
13355,1870,-7909,771,5,1,-8,0
13360,1820,-7910,794,5,1,-8,0
13365,1765,-7906,831,5,2,-8,0
13370,1719,-7901,866,5,3,-8,0
13375,1687,-7892,883,5,4,-8,0
13380,1672,-7889,876,6,3,-8,0
13385,1674,-7895,855,6,3,-8,0
13390,1687,-7897,819,6,1,-8,0
13395,1693,-7894,781,5,0,-9,0
13400,1694,-7883,759,5,-1,-9,0
13405,1690,-7881,759,5,-2,-9,0
13410,1682,-7880,775,5,-2,-9,0
13415,1668,-7870,801,5,-2,-9,0
13420,1673,-7849,832,6,-2,-9,0
13425,1681,-7857,841,6,-3,-9,0
13430,1695,-7858,870,6,-4,-10,0
13435,1703,-7861,868,6,-4,-10,0
13440,1711,-7856,879,6,-3,-10,0
13445,1736,-7853,894,6,-2,-10,0
13450,1765,-7854,914,6,-2,-10,0
13455,1796,-7856,950,6,-2,-10,0
13460,1832,-7851,993,6,-3,-10,0
13465,1854,-7839,1038,6,-4,-10,0
13470,1872,-7814,1080,5,-5,-10,0
13475,1898,-7819,1124,5,-7,-10,0
13480,1918,-7813,1154,5,-8,-10,0
13485,1942,-7816,1178,5,-8,-10,0
13490,1958,-7822,1193,5,-9,-10,0
13495,1947,-7814,1255,5,-8,-11,0
13500,1916,-7807,1376,5,-3,-11,0
13505,1871,-7800,1495,4,8,-10,0
13510,1845,-7800,1586,4,17,-10,0
13515,1875,-7802,1688,4,20,-10,0
13520,1920,-7778,1755,4,19,-11,0
13525,1991,-7780,1809,4,14,-11,0
13530,2065,-7787,1831,4,7,-11,0
13535,2128,-7799,1838,3,1,-11,0
13540,2175,-7819,1841,3,-4,-11,0
13545,2199,-7822,1830,3,-8,-11,0
13551,2214,-7826,1819,2,-9,-11,0
13556,2229,-7818,1802,2,-8,-11,0
13561,2257,-7807,1773,2,-6,-10,0
13566,2291,-7796,1734,2,-4,-10,0
13571,2334,-7798,1687,2,-3,-10,0
13576,2358,-7782,1584,2,-2,-10,0
13580,2418,-7770,1485,2,-4,-10,0
13585,2465,-7772,1370,2,-4,-10,0
13590,2509,-7761,1270,2,-2,-10,0
13595,2530,-7762,1200,1,1,-10,0
13600,2469,-7763,1110,1,5,-10,0
13606,2346,-7730,1044,1,9,-10,0
13610,2250,-7732,1004,1,11,-10,0
13615,2200,-7760,1003,1,15,-10,0
13620,2185,-7733,1031,2,22,-9,0
13625,2160,-7741,1022,2,27,-9,0
13630,2154,-7738,1040,2,26,-9,0
13635,2177,-7732,1036,2,24,-10,0
13640,2197,-7729,1040,3,25,-10,0
13645,2208,-7724,1040,3,27,-10,0
13650,2218,-7717,1032,3,30,-10,0
13655,2225,-7713,1043,3,34,-10,0
13660,2248,-7703,1063,3,38,-10,0
13665,2306,-7702,1118,3,42,-10,0
13670,2385,-7705,1193,3,45,-10,0
13675,2488,-7701,1282,3,47,-9,0
13680,2610,-7697,1368,3,45,-9,0
13685,2734,-7695,1440,3,39,-9,0
13690,2852,-7698,1511,3,30,-9,0
13695,2998,-7704,1583,3,20,-9,0
13700,3143,-7703,1671,3,12,-9,0
13705,3243,-7694,1749,2,6,-9,0
13710,3300,-7684,1804,2,0,-9,0
13715,3296,-7682,1830,2,-4,-9,0
13720,3251,-7682,1829,2,-8,-9,0
13725,3177,-7686,1816,2,-11,-9,0
13730,3091,-7689,1788,2,-12,-8,0
13735,3014,-7686,1764,2,-11,-8,0
13740,2942,-7687,1738,2,-7,-8,0
13745,2885,-7685,1715,2,-3,-8,0
13750,2830,-7679,1696,2,0,-8,0
13755,2780,-7679,1692,1,1,-8,0
13760,2739,-7680,1693,1,1,-8,0
13765,2705,-7681,1703,1,1,-8,0
13770,2689,-7690,1720,1,2,-8,0
13775,2698,-7705,1736,1,4,-8,0
13780,2717,-7712,1755,1,7,-7,0
13785,2744,-7716,1768,1,11,-8,0
13790,2779,-7726,1774,1,14,-8,0
13795,2846,-7743,1784,1,13,-8,0
13800,2932,-7760,1787,1,8,-7,0
13805,3023,-7780,1780,1,0,-7,0
13810,3101,-7806,1765,1,-9,-7,0
13815,3178,-7854,1738,1,-16,-7,0
13820,3256,-7925,1772,1,-27,-7,0
13825,3389,-8024,1916,1,-47,-7,0
13830,3490,-8119,2093,0,-69,-6,0
13835,3243,-8193,1939,1,-84,-6,0
13840,2942,-8252,1737,5,-101,-10,0
13845,2778,-8269,1963,8,-110,-11,0
13850,2536,-8249,1992,8,-102,-10,0
13855,2189,-8209,1853,7,-97,-11,0
13860,1980,-8167,1535,4,-96,-11,0
13865,1894,-8153,1469,3,-87,-10,0
13870,1740,-8155,1470,3,-71,-10,0
13875,1541,-8174,1541,3,-59,-10,0
13880,1398,-8206,1607,3,-56,-10,0
13885,1330,-8253,1653,3,-55,-10,0
13890,1300,-8317,1663,3,-52,-10,0
13895,1305,-8396,1650,3,-48,-10,0
13900,1339,-8484,1657,3,-44,-11,0
13905,1387,-8578,1681,3,-41,-11,0
13910,1445,-8673,1711,3,-41,-11,0
13915,1535,-8767,1715,3,-42,-11,0
13920,1629,-8859,1714,4,-44,-12,0
13925,1750,-8946,1694,4,-45,-12,0
13930,1884,-9021,1695,4,-46,-12,0
13935,2009,-9087,1714,4,-45,-12,0
13940,2132,-9145,1747,4,-44,-12,0
13945,2252,-9199,1764,4,-43,-11,0
13950,2349,-9251,1772,4,-41,-11,0
13955,2448,-9304,1780,4,-39,-11,0
13960,2548,-9345,1811,4,-36,-10,0
13965,2635,-9372,1854,4,-33,-10,0
13970,2723,-9387,1884,4,-31,-9,0
13975,2803,-9390,1913,4,-30,-9,0
13980,2875,-9374,1942,4,-30,-8,0
13985,2950,-9326,1975,4,-29,-8,0
13990,3023,-9250,2019,4,-27,-7,0
13995,3091,-9158,2056,4,-24,-6,0
14000,3155,-9051,2083,4,-23,-6,0
14005,3202,-8930,2107,4,-21,-5,0
14010,3243,-8803,2120,3,-20,-4,0
14016,3282,-8676,2117,3,-19,-3,0
14020,3307,-8548,2103,3,-18,-3,0
14025,3325,-8424,2079,3,-19,-2,0
14029,3333,-8310,2044,3,-21,-2,0
14035,3315,-8208,2006,2,-24,-1,0
14040,3282,-8119,1968,2,-27,-1,0
14045,3230,-8037,1923,2,-30,0,0
14049,3170,-7958,1884,2,-32,0,0
14054,3108,-7885,1848,2,-33,0,0
14060,3049,-7815,1823,2,-33,1,0
14065,2986,-7740,1794,2,-34,1,0
14070,2937,-7665,1754,2,-35,1,0
14075,2895,-7594,1699,2,-38,1,0
14080,2859,-7528,1634,2,-42,1,0
14085,2819,-7468,1567,2,-46,2,0
14090,2783,-7418,1506,3,-51,2,0
14094,2734,-7368,1452,3,-59,2,0
14099,2662,-7315,1390,3,-66,1,0
14104,2567,-7260,1323,4,-72,1,0
14109,2450,-7208,1242,4,-76,1,0
14114,2342,-7163,1175,5,-76,1,0
14119,2263,-7119,1123,5,-74,1,0
14125,2220,-7072,1096,5,-71,1,0
14129,2215,-7021,1064,6,-70,1,0
14134,2233,-6966,1015,6,-71,1,0
14140,2259,-6921,954,6,-75,0,0
14144,2287,-6889,905,6,-80,0,0
14149,2339,-6873,879,7,-85,0,0
14154,2402,-6869,869,7,-90,0,0
14160,2463,-6882,860,7,-95,0,0
14165,2517,-6916,863,7,-100,-1,0
14170,2555,-6969,890,7,-103,-1,0
14175,2577,-7040,944,7,-106,-1,0
14179,2575,-7117,1014,7,-108,-1,0
14184,2528,-7199,1097,7,-107,-1,0
14189,2465,-7287,1140,6,-104,-1,0
14194,2405,-7365,1162,6,-97,-1,0
14199,2365,-7410,1171,6,-90,-1,0
14204,2366,-7426,1157,5,-82,-1,0
14209,2397,-7422,1130,5,-75,-1,0
14214,2476,-7420,1082,5,-71,-1,0
14219,2531,-7410,1022,5,-74,-2,0
14224,2562,-7401,975,4,-80,-2,0
14229,2583,-7395,942,5,-83,-2,0
14234,2626,-7394,907,5,-85,-2,0
14239,2663,-7389,886,5,-89,-3,0
14244,2683,-7406,869,4,-93,-3,0
14249,2686,-7432,893,4,-97,-4,0
14254,2674,-7456,890,4,-96,-4,0
14259,2676,-7467,897,4,-95,-5,0
14264,2683,-7465,872,4,-98,-5,0
14269,2678,-7450,861,4,-102,-6,0
14274,2658,-7424,832,4,-102,-6,0
14279,2656,-7401,814,4,-101,-7,0
14284,2668,-7383,775,4,-102,-7,0
14289,2694,-7370,737,3,-105,-8,0
14294,2711,-7364,710,3,-109,-9,0
14299,2740,-7372,695,3,-114,-9,0
14304,2790,-7385,666,3,-120,-10,0
14309,2850,-7402,624,3,-126,-10,0
14314,2909,-7424,576,3,-131,-11,0
14319,2963,-7450,535,2,-136,-11,0
14324,2989,-7470,481,2,-143,-12,0
14329,2986,-7464,432,2,-151,-13,0
14334,2932,-7440,389,2,-155,-13,0
14339,2903,-7414,349,1,-150,-13,0
14344,2909,-7395,294,0,-138,-13,0
14349,2962,-7388,195,0,-123,-13,0
14354,3023,-7402,106,0,-109,-12,0
14359,3080,-7451,88,-1,-101,-12,0
14364,3135,-7513,54,-3,-102,-13,0
14369,3193,-7600,5,-3,-109,-13,0
14374,3262,-7690,-50,-4,-123,-13,0
14379,3318,-7754,-85,-4,-141,-13,0
14384,3346,-7784,-142,-4,-156,-14,0
14389,3366,-7783,-254,-3,-160,-13,0
14394,3393,-7757,-428,-4,-154,-13,0
14399,3426,-7728,-608,-5,-144,-12,0
14404,3429,-7700,-717,-6,-133,-12,0
14409,3420,-7660,-777,-6,-125,-12,0
14414,3440,-7612,-865,-6,-118,-11,0
14419,3492,-7559,-996,-6,-114,-10,0
14424,3560,-7502,-1166,-7,-112,-10,0
14429,3619,-7436,-1324,-7,-110,-10,0
14434,3642,-7348,-1491,-7,-110,-9,0
14439,3641,-7230,-1629,-7,-110,-9,0
14444,3626,-7097,-1753,-7,-110,-8,0
14449,3586,-6963,-1823,-7,-107,-8,0
14454,3542,-6833,-1830,-8,-103,-7,0
14459,3488,-6705,-1876,-8,-99,-7,0
14464,3440,-6593,-1913,-8,-95,-7,0
14469,3416,-6500,-1962,-8,-91,-6,0
14474,3405,-6424,-2028,-8,-88,-6,0
14479,3402,-6375,-2126,-8,-86,-6,0
14484,3443,-6369,-2237,-8,-88,-6,0
14489,3452,-6382,-2345,-8,-95,-5,0
14494,3443,-6414,-2421,-8,-102,-5,0
14500,3424,-6458,-2473,-8,-108,-5,0
14505,3376,-6513,-2526,-8,-114,-5,0
14511,3315,-6575,-2605,-7,-118,-5,0
14516,3258,-6632,-2709,-7,-118,-5,0
14521,3200,-6686,-2837,-7,-114,-5,0
14527,3158,-6731,-2970,-6,-109,-5,0
14532,3127,-6759,-3087,-6,-103,-5,0
14537,3098,-6776,-3180,-6,-98,-4,0
14543,3093,-6779,-3262,-5,-95,-4,0
14549,3119,-6774,-3344,-5,-95,-4,0
14554,3171,-6760,-3428,-4,-99,-3,0
14559,3228,-6744,-3581,-3,-103,-3,0
14564,3261,-6735,-3729,-2,-109,-3,0
14569,3255,-6735,-3785,-2,-116,-3,0
14574,3220,-6738,-3754,-2,-120,-3,0
14579,3154,-6763,-3778,-3,-120,-2,0
14584,3088,-6812,-3796,-2,-117,-1,0
14589,3063,-6887,-3813,-1,-114,-1,0
14594,3061,-6980,-3832,-1,-112,-1,0
14600,3060,-7070,-3852,0,-113,-2,0
14605,3024,-7161,-3896,0,-119,-2,0
14610,2939,-7239,-3947,0,-128,-2,0
14616,2812,-7297,-4021,0,-136,-2,0
14620,2671,-7327,-4113,1,-140,-2,0
14626,2531,-7326,-4213,1,-141,-2,0
14631,2405,-7285,-4313,1,-139,-3,0
14636,2282,-7218,-4412,1,-136,-3,0
14641,2177,-7144,-4508,2,-133,-3,0
14646,2094,-7076,-4582,2,-129,-3,0
14652,2055,-7006,-4660,2,-127,-3,0
14657,2040,-6938,-4715,2,-128,-3,0
14663,2048,-6879,-4734,3,-133,-4,0
14668,2059,-6844,-4692,3,-137,-4,0
14674,2031,-6828,-4624,3,-136,-3,0
14679,1973,-6822,-4517,2,-133,-3,0
14684,1891,-6812,-4408,2,-129,-3,0
14689,1797,-6796,-4310,2,-125,-3,0
14694,1713,-6764,-4260,2,-119,-3,0
14699,1657,-6724,-4251,1,-111,-3,0
14704,1615,-6687,-4270,1,-103,-3,0
14709,1571,-6652,-4291,1,-95,-3,0
14714,1543,-6600,-4304,1,-88,-2,0
14719,1549,-6550,-4309,1,-84,-2,0
14725,1580,-6514,-4320,1,-85,-2,0
14729,1613,-6501,-4337,1,-88,-2,0
14733,1614,-6513,-4335,0,-92,-2,0
14737,1575,-6537,-4308,0,-97,-2,0
14741,1502,-6567,-4263,0,-100,-2,0
14746,1416,-6603,-4230,0,-102,-2,0
14750,1336,-6645,-4235,0,-102,-2,0
14755,1263,-6696,-4266,0,-99,-2,0
14760,1198,-6752,-4313,0,-96,-3,0
14765,1142,-6807,-4356,0,-92,-3,0
14769,1092,-6865,-4405,0,-89,-3,0
14775,1055,-6926,-4460,0,-87,-3,0
14779,1034,-6981,-4529,0,-86,-3,0
14784,1019,-7026,-4593,0,-86,-3,0
14788,1004,-7048,-4640,0,-85,-3,0
14794,987,-7053,-4672,0,-84,-3,0
14798,965,-7053,-4702,1,-83,-3,0
14803,939,-7056,-4736,1,-82,-3,0
14809,922,-7061,-4758,1,-82,-4,0
14814,912,-7071,-4755,1,-84,-4,0
14819,891,-7075,-4766,2,-87,-4,0
14824,871,-7074,-4773,2,-91,-4,0
14830,849,-7067,-4792,2,-96,-4,0
14835,830,-7056,-4815,2,-98,-4,0
14840,835,-7045,-4817,2,-100,-4,0
14845,842,-7036,-4787,2,-101,-4,0
14851,853,-7031,-4716,2,-101,-4,0
14856,872,-7034,-4611,2,-100,-4,0
14861,895,-7044,-4514,2,-98,-4,0
14867,901,-7062,-4449,2,-94,-3,0
14871,873,-7084,-4432,2,-89,-3,0
14877,809,-7101,-4448,1,-82,-3,0
14881,687,-7120,-4479,1,-75,-3,0
14886,552,-7141,-4495,1,-67,-3,0
14892,435,-7162,-4495,1,-57,-2,0
14897,366,-7177,-4489,1,-44,-2,0
14903,344,-7172,-4494,1,-32,-2,0
14908,363,-7148,-4491,1,-24,-2,0
14914,398,-7114,-4478,1,-20,-2,0
14919,448,-7074,-4454,1,-20,-2,0
14925,498,-7036,-4422,2,-22,-3,0
14930,542,-7003,-4372,2,-24,-3,0
14936,579,-6974,-4306,2,-27,-3,0
14940,606,-6955,-4226,2,-31,-3,0
14945,622,-6942,-4136,2,-36,-3,0
14950,641,-6928,-4043,2,-41,-3,0
14955,668,-6913,-3964,2,-44,-3,0
14960,686,-6904,-3923,2,-48,-3,0
14964,694,-6906,-3902,1,-53,-3,0
14969,690,-6909,-3888,1,-58,-3,0
14974,683,-6914,-3867,1,-64,-4,0
14979,688,-6915,-3846,1,-71,-4,0
14983,705,-6913,-3827,1,-80,-3,0
14988,716,-6906,-3810,1,-88,-3,0
14992,720,-6891,-3792,1,-96,-4,0
14996,710,-6885,-3770,1,-103,-3,0
15000,679,-6888,-3743,0,-108,-3,0
15004,630,-6900,-3711,0,-110,-3,0
15009,559,-6921,-3707,0,-108,-2,0
15014,470,-6945,-3741,0,-103,-2,0
15019,367,-6972,-3796,0,-95,-1,0
15025,274,-7000,-3853,0,-86,-1,0
15030,183,-7038,-3895,0,-77,0,0
15035,87,-7092,-3910,0,-69,0,0
15040,-17,-7156,-3899,1,-62,0,0
15046,-117,-7226,-3874,1,-56,0,0
15051,-218,-7295,-3862,1,-52,0,0
15056,-326,-7363,-3867,1,-49,0,0
15060,-418,-7420,-3885,2,-46,0,0
15066,-488,-7462,-3907,2,-44,0,0
15070,-535,-7488,-3923,2,-43,0,0
15075,-556,-7502,-3919,2,-44,0,0
15081,-559,-7498,-3888,3,-46,0,0
15086,-549,-7485,-3837,3,-49,0,0
15091,-534,-7466,-3791,3,-53,0,0
15097,-511,-7448,-3775,3,-56,0,0
15102,-491,-7441,-3782,4,-60,0,0
15107,-477,-7448,-3800,4,-64,0,0
15113,-471,-7481,-3806,4,-68,0,0
15118,-472,-7546,-3798,4,-71,0,0
15123,-490,-7644,-3783,4,-74,0,0
15128,-527,-7762,-3769,4,-78,0,0
15133,-603,-7883,-3762,4,-80,0,0
15137,-722,-7998,-3765,4,-80,-1,0
15142,-868,-8093,-3775,4,-76,-1,0
15147,-1019,-8174,-3804,4,-69,-1,0
15151,-1139,-8238,-3845,3,-61,-1,0
15155,-1197,-8281,-3900,3,-52,-2,0
15159,-1184,-8298,-3945,3,-44,-2,0
15163,-1125,-8286,-3985,3,-37,-2,0
15169,-1061,-8260,-4006,3,-30,-2,0
15174,-1014,-8225,-4019,3,-26,-2,0
15179,-995,-8186,-4020,2,-22,-2,0
15184,-989,-8144,-4008,2,-20,-2,0
15189,-974,-8098,-3986,2,-17,-2,0
15195,-952,-8049,-3949,2,-15,-2,0
15200,-927,-7999,-3911,1,-12,-2,0
15204,-901,-7949,-3882,1,-11,-2,0
15209,-877,-7899,-3863,0,-11,-2,0
15215,-856,-7847,-3847,0,-11,-2,0
15220,-833,-7792,-3834,0,-10,-2,0
15226,-810,-7728,-3814,-1,-9,-3,0
15231,-790,-7664,-3792,-1,-7,-3,0
15236,-769,-7601,-3771,-2,-5,-3,0
15242,-749,-7544,-3750,-2,-3,-3,0
15247,-736,-7482,-3731,-2,-2,-3,0
15253,-725,-7415,-3709,-3,-1,-3,0
15259,-713,-7350,-3698,-3,1,-3,0
15263,-701,-7294,-3696,-4,2,-4,0
15269,-693,-7243,-3711,-4,3,-4,0
15275,-698,-7198,-3722,-4,6,-4,0
15279,-724,-7162,-3737,-5,10,-4,0
15285,-766,-7139,-3737,-5,15,-5,0
15290,-824,-7129,-3739,-5,20,-5,0
15295,-871,-7132,-3748,-5,25,-6,0
15301,-896,-7149,-3771,-6,27,-6,0
15306,-896,-7179,-3806,-6,26,-7,0
15311,-874,-7214,-3834,-6,22,-8,0
15317,-824,-7243,-3852,-6,16,-8,0
15323,-761,-7260,-3872,-5,9,-9,0
15329,-697,-7269,-3894,-5,2,-10,0
15334,-649,-7264,-3909,-5,-3,-10,0
15340,-624,-7242,-3922,-5,-5,-11,0
15346,-619,-7209,-3934,-5,-5,-11,0
15352,-626,-7167,-3944,-5,-3,-12,0
15358,-636,-7123,-3952,-5,0,-12,0
15363,-633,-7078,-3951,-5,3,-12,0
15368,-612,-7041,-3937,-5,5,-13,0
15374,-578,-7003,-3919,-5,6,-13,0
15380,-547,-6969,-3905,-5,5,-13,0
15384,-535,-6945,-3900,-5,4,-13,0
15388,-539,-6936,-3894,-5,3,-14,0
15394,-552,-6943,-3885,-5,4,-14,0
15399,-560,-6960,-3862,-5,6,-14,0
15404,-552,-6981,-3841,-4,8,-14,0
15409,-533,-7004,-3839,-4,9,-14,0
15414,-501,-7030,-3859,-4,8,-14,0
15420,-455,-7049,-3869,-4,6,-14,0
15425,-393,-7059,-3863,-4,3,-14,0
15430,-327,-7061,-3842,-4,0,-14,0
15434,-266,-7055,-3809,-3,-4,-14,0
15439,-232,-7052,-3784,-3,-9,-14,0
15443,-231,-7051,-3759,-3,-12,-13,0
15447,-248,-7054,-3734,-3,-11,-13,0
15451,-274,-7066,-3704,-3,-8,-13,0
15456,-312,-7078,-3678,-3,-4,-12,0
15460,-354,-7089,-3662,-3,1,-12,0
15464,-392,-7107,-3673,-3,6,-12,0
15469,-418,-7138,-3689,-3,9,-12,0
15473,-431,-7179,-3699,-3,10,-11,0
15477,-429,-7228,-3706,-3,9,-11,0
15481,-416,-7281,-3709,-2,6,-11,0
15486,-401,-7333,-3718,-2,2,-11,0
15490,-402,-7377,-3730,-2,-2,-11,0
15494,-410,-7406,-3738,-1,-6,-11,0
15499,-423,-7425,-3740,-1,-7,-11,0
15503,-441,-7439,-3738,-1,-8,-10,0
15508,-454,-7451,-3731,-1,-8,-10,0
15512,-455,-7462,-3723,-1,-7,-10,0
15517,-447,-7469,-3721,0,-6,-10,0
15521,-435,-7473,-3724,0,-6,-9,0
15525,-424,-7480,-3726,0,-6,-9,0
15529,-423,-7493,-3735,0,-6,-9,0
15534,-430,-7508,-3739,0,-6,-9,0
15538,-450,-7528,-3737,0,-6,-8,0
15542,-477,-7556,-3729,0,-6,-8,0
15546,-508,-7585,-3716,0,-6,-8,0
15551,-531,-7618,-3704,0,-6,-8,0
15555,-545,-7648,-3702,0,-5,-8,0
15559,-554,-7677,-3712,0,-4,-8,0
15563,-561,-7703,-3742,0,-3,-8,0
15568,-559,-7727,-3764,0,-3,-7,0
15573,-554,-7749,-3778,0,-1,-7,0
15578,-545,-7780,-3768,0,0,-7,0
15583,-532,-7817,-3743,0,1,-7,0
15588,-511,-7852,-3715,0,0,-7,0
15593,-481,-7883,-3694,0,-1,-7,0
15598,-439,-7912,-3689,0,-3,-7,0
15603,-388,-7942,-3681,0,-6,-6,0
15608,-341,-7970,-3669,0,-8,-6,0
15613,-301,-7996,-3652,0,-10,-6,0
15618,-272,-8019,-3640,0,-11,-6,0
15623,-253,-8039,-3636,0,-11,-6,0
15628,-247,-8050,-3645,0,-11,-5,0
15633,-237,-8055,-3654,0,-11,-5,0
15638,-227,-8059,-3645,0,-10,-5,0
15643,-218,-8053,-3630,0,-10,-5,0
15648,-211,-8044,-3618,0,-10,-4,0
15653,-216,-8031,-3612,0,-9,-4,0
15658,-230,-8014,-3616,0,-8,-4,0
15663,-245,-7987,-3625,0,-6,-4,0
15668,-257,-7958,-3641,0,-3,-4,0
15673,-264,-7926,-3649,0,-1,-3,0
15678,-255,-7897,-3651,0,0,-3,0
15683,-245,-7870,-3644,0,2,-3,0
15688,-230,-7844,-3628,0,2,-3,0
15693,-219,-7812,-3611,0,2,-2,0
15698,-216,-7774,-3612,0,1,-2,0
15703,-220,-7729,-3625,0,0,-2,0
15708,-231,-7676,-3647,0,0,-2,0
15713,-241,-7619,-3666,0,1,-2,0
15718,-246,-7560,-3669,0,2,-1,0
15723,-243,-7509,-3666,0,3,-1,0
15728,-235,-7471,-3660,0,4,-1,0
15733,-229,-7440,-3657,1,4,-1,0
15738,-234,-7411,-3659,1,4,-1,0
15743,-238,-7387,-3671,1,3,-1,0
15748,-236,-7370,-3683,1,3,0,0
15753,-224,-7353,-3683,1,3,0,0
15758,-211,-7337,-3667,1,2,0,0
15763,-191,-7323,-3651,1,2,0,0
15768,-177,-7307,-3632,2,1,0,0
15773,-172,-7287,-3619,2,0,0,0
15778,-169,-7265,-3609,2,-1,0,0
15783,-163,-7234,-3603,2,-1,0,0
15788,-155,-7202,-3600,2,-1,0,0
15794,-148,-7168,-3592,2,0,0,0
15798,-147,-7130,-3585,2,0,0,0
15803,-148,-7094,-3572,2,-1,0,0
15808,-153,-7061,-3563,2,-1,0,0
15813,-154,-7029,-3558,3,-1,0,0
15818,-151,-7002,-3552,3,-1,0,0
15823,-149,-6985,-3548,3,-1,0,0
15828,-154,-6979,-3544,3,0,0,0
15833,-167,-6984,-3546,3,1,0,0
15838,-184,-7005,-3540,3,1,0,0
15843,-199,-7032,-3538,3,1,0,0
15848,-215,-7065,-3532,3,1,0,0
15853,-228,-7151,-3511,3,0,0,0
15858,-207,-7347,-3314,3,-2,0,0
15863,-206,-7446,-3575,3,-7,0,0
15869,-300,-7390,-3816,2,-17,0,0
15874,-386,-7318,-4190,0,-17,1,0
15879,-450,-7286,-4516,-2,-7,2,0
15884,-428,-7306,-4719,-4,4,2,0
15888,-316,-7342,-4741,-5,10,2,0
15893,-198,-7365,-4698,-6,10,2,0
15898,-106,-7387,-4647,-7,2,2,0
15903,-76,-7420,-4576,-7,-9,2,0
15909,-93,-7447,-4498,-8,-16,2,0
15915,-153,-7469,-4442,-8,-18,2,0
15920,-122,-7491,-4183,-8,-15,2,0
15924,-62,-7517,-3889,-7,-7,1,0
15929,-74,-7556,-3750,-7,-5,1,0
15933,-125,-7604,-3626,-6,-11,2,0
15938,-155,-7646,-3525,-6,-11,2,0
15943,-183,-7665,-3483,-6,-5,2,0
15948,-189,-7662,-3479,-6,0,2,0
15953,-209,-7649,-3520,-6,1,2,0
15958,-227,-7639,-3538,-6,2,2,0
15963,-233,-7630,-3544,-5,3,2,0
15968,-207,-7614,-3525,-5,5,2,0
15973,-181,-7598,-3504,-5,4,3,0
15979,-151,-7587,-3488,-4,2,3,0
15984,-136,-7588,-3477,-4,0,3,0
15989,-135,-7595,-3462,-4,0,3,0
15994,-146,-7601,-3457,-3,1,3,0
15999,-152,-7615,-3444,-3,1,3,0
16004,-156,-7637,-3437,-3,2,3,0
16008,-149,-7667,-3444,-3,2,3,0
16013,-145,-7701,-3469,-2,3,3,0
16018,-142,-7732,-3500,-2,2,3,0
16023,-139,-7766,-3539,-2,0,3,0
16028,-134,-7802,-3563,-1,-1,3,0
16033,-128,-7827,-3564,-1,-2,3,0
16038,-111,-7843,-3562,-1,-2,3,0
16043,-111,-7853,-3565,0,-2,3,0
16048,-117,-7858,-3566,0,-1,3,0
16053,-125,-7854,-3563,0,1,3,0
16058,-136,-7836,-3549,0,3,3,0
16063,-134,-7812,-3533,1,5,3,0
16068,-125,-7778,-3520,1,7,3,0
16073,-121,-7735,-3511,1,8,3,0
16078,-108,-7682,-3510,2,9,3,0
16082,-75,-7624,-3504,2,10,3,0
16087,-14,-7558,-3474,2,10,3,0
16093,49,-7490,-3441,2,8,3,0
16098,94,-7425,-3407,3,6,3,0
16103,111,-7365,-3380,3,5,4,0
16108,108,-7306,-3373,3,4,4,0
16112,88,-7244,-3367,3,3,4,0
16117,67,-7179,-3347,4,2,4,0
16123,49,-7120,-3316,4,4,4,0
16128,15,-7114,-3229,4,5,4,0
16133,-21,-7187,-3125,4,7,4,0
16138,-65,-7226,-3286,4,7,4,0
16143,-63,-7151,-3345,3,5,4,0
16148,-117,-7030,-3508,2,3,5,0
16152,-103,-6942,-3700,1,3,3,0
16157,-51,-6919,-3945,-1,8,1,0
16163,12,-6937,-4111,-3,15,1,0
16168,72,-6978,-4202,-4,18,1,0
16173,139,-7020,-4258,-5,14,1,0
16178,230,-7060,-4268,-5,6,0,0
16183,319,-7100,-4224,-5,-1,0,0
16188,375,-7154,-4132,-5,-6,1,0
16193,399,-7220,-4030,-5,-9,1,0
16199,416,-7280,-3925,-4,-13,1,0
16204,422,-7336,-3838,-4,-17,1,0
16208,400,-7387,-3767,-4,-21,1,0
16214,352,-7422,-3709,-4,-24,1,0
16219,288,-7445,-3686,-4,-24,1,0
16225,211,-7475,-3676,-4,-22,1,0
16229,132,-7527,-3671,-4,-18,1,0
16235,67,-7567,-3645,-4,-15,1,0
16239,13,-7590,-3646,-4,-11,1,0
16245,-13,-7594,-3641,-4,-9,1,0
16251,-27,-7589,-3650,-4,-7,2,0
16255,-37,-7579,-3672,-4,-5,2,0
16261,-31,-7568,-3692,-4,-2,2,0
16267,-24,-7555,-3721,-4,1,2,0
16271,-17,-7543,-3756,-4,3,2,0
16276,-13,-7534,-3779,-3,5,2,0
16282,-17,-7524,-3796,-4,7,2,0
16286,-29,-7513,-3805,-4,9,2,0
16292,-47,-7506,-3785,-4,12,2,0
16297,-75,-7496,-3746,-4,15,2,0
16303,-101,-7486,-3704,-4,19,2,0
16307,-126,-7483,-3653,-4,23,2,0
16311,-156,-7474,-3607,-4,28,2,0
16316,-185,-7466,-3570,-4,33,2,0
16320,-217,-7461,-3540,-4,38,2,0
16326,-247,-7464,-3532,-4,42,2,0
16330,-264,-7469,-3539,-4,43,2,0
16335,-260,-7476,-3550,-4,43,2,0
16340,-233,-7488,-3558,-4,42,2,0
16345,-190,-7502,-3569,-4,40,2,0
16349,-151,-7512,-3583,-4,36,2,0
16354,-135,-7516,-3590,-4,31,2,0
16359,-131,-7519,-3592,-4,26,2,0
16363,-134,-7515,-3602,-4,23,2,0
16368,-139,-7507,-3619,-4,21,2,0
16373,-142,-7505,-3638,-4,22,2,0
16378,-147,-7506,-3655,-4,24,2,0
16384,-145,-7505,-3675,-4,28,2,0
16388,-137,-7495,-3696,-4,33,2,0
16394,-122,-7483,-3718,-4,38,2,0
16398,-98,-7483,-3746,-4,44,2,0
16403,-68,-7484,-3781,-4,50,3,0
16408,-51,-7451,-3813,-4,55,3,0
16413,-29,-7443,-3873,-4,64,3,0
16418,16,-7477,-3953,-4,72,3,0
16422,67,-7499,-4027,-4,76,3,0
16427,123,-7490,-4073,-4,77,3,0
16432,196,-7477,-4103,-4,78,3,0
16437,277,-7469,-4126,-4,79,4,0
16442,350,-7463,-4140,-4,79,4,0
16447,409,-7471,-4132,-3,78,4,0
16452,450,-7476,-4106,-4,74,4,0
16457,488,-7466,-4060,-3,70,4,0
16462,508,-7457,-4015,-3,67,4,0
16467,508,-7458,-3964,-3,62,4,0
16472,517,-7469,-3922,-3,58,4,0
16477,522,-7471,-3879,-3,54,3,0
16482,523,-7464,-3847,-3,50,3,0
16487,527,-7469,-3826,-3,48,3,0
16492,537,-7489,-3809,-3,45,3,0
16497,538,-7493,-3788,-3,41,3,0
16502,531,-7486,-3783,-3,38,3,0
16507,527,-7481,-3775,-2,35,3,0
16512,524,-7477,-3763,-2,34,3,0
16517,519,-7477,-3767,-2,33,3,0
16522,514,-7475,-3768,-2,32,3,0
16527,518,-7472,-3771,-2,31,3,0
16532,528,-7473,-3774,-2,29,3,0
16537,547,-7470,-3769,-2,23,2,0
16542,556,-7477,-3746,-2,15,2,0
16547,568,-7485,-3718,-2,7,2,0
16553,577,-7494,-3674,-2,0,2,0
16557,588,-7500,-3652,-2,-4,2,0
16562,606,-7505,-3624,-1,-7,2,0
16567,630,-7504,-3617,-1,-8,2,0
16572,651,-7500,-3630,-1,-9,2,0
16577,672,-7497,-3644,-1,-10,2,0
16582,696,-7495,-3658,-1,-12,2,0
16587,708,-7492,-3668,-1,-15,2,0
16592,716,-7488,-3683,-1,-17,2,0
16598,727,-7483,-3714,-1,-18,2,0
16603,731,-7483,-3755,-1,-17,2,0
16608,729,-7491,-3810,-1,-14,2,0
16614,728,-7495,-3864,-1,-10,2,0
16619,719,-7495,-3910,-1,-6,2,0
16624,712,-7495,-3937,-1,-3,2,0
16629,705,-7492,-3948,-1,-1,2,0
16634,683,-7489,-3951,-1,1,2,0
16638,663,-7488,-3961,-1,2,2,0
16643,652,-7489,-3983,0,3,2,0
16647,638,-7486,-4003,0,3,2,0
16652,611,-7483,-4019,0,4,2,0
16657,592,-7477,-3998,0,9,2,0
16662,583,-7466,-3973,-1,15,3,0
16667,578,-7463,-3946,-1,22,3,0
16672,553,-7465,-3919,0,27,3,0
16677,508,-7460,-3915,0,32,3,0
16682,450,-7459,-3916,0,36,3,0
16687,415,-7468,-3911,0,38,2,0
16692,399,-7475,-3920,0,39,2,0
16697,382,-7470,-3914,0,41,2,0
16702,426,-7477,-3891,0,42,2,0
16707,415,-7481,-3942,0,41,3,0
16712,390,-7487,-3990,0,38,3,0
16717,413,-7494,-4036,0,36,3,0
16722,443,-7497,-4074,0,34,3,0
16727,468,-7493,-4080,0,32,3,0
16732,507,-7479,-4089,1,30,3,0
16737,545,-7483,-4080,1,28,2,0
16742,562,-7505,-4058,1,24,2,0
16747,582,-7509,-4022,1,21,2,0
16752,602,-7508,-3974,1,19,2,0
16757,599,-7508,-3927,1,19,2,0
16762,617,-7507,-3889,2,20,2,0
16767,640,-7504,-3862,2,21,2,0
16772,634,-7515,-3855,2,21,2,0
16777,545,-7518,-3900,2,23,2,0
16782,577,-7501,-3813,1,32,3,0
16787,492,-7472,-3814,1,46,3,0
16792,441,-7464,-3756,1,62,3,0
16797,446,-7463,-3676,1,78,3,0
16802,411,-7457,-3640,0,87,3,0
16807,432,-7474,-3545,0,89,3,0
16812,434,-7486,-3470,0,87,4,0
16817,467,-7483,-3371,-1,85,4,0
16822,519,-7473,-3260,-1,85,4,0
16827,588,-7474,-3179,-1,85,3,0
16832,668,-7497,-3095,-1,83,3,0
16837,735,-7513,-3013,-1,80,3,0
16842,774,-7510,-2929,-1,75,3,0
16847,819,-7500,-2852,-2,72,3,0
16852,875,-7503,-2786,-2,70,3,0
16857,942,-7526,-2737,-2,69,3,0
16862,1038,-7550,-2707,-2,69,3,0
16867,1169,-7564,-2715,-2,68,3,0
16872,1319,-7572,-2732,-2,67,4,0
16877,1453,-7573,-2766,-2,67,4,0
16882,1570,-7553,-2810,-3,66,4,0
16887,1667,-7538,-2845,-3,66,4,0
16892,1722,-7544,-2898,-3,66,4,0
16897,1747,-7556,-2948,-3,66,4,0
16902,1760,-7561,-2985,-3,65,4,0
16907,1769,-7561,-3054,-3,60,4,0
16912,1778,-7568,-3135,-2,52,4,0
16917,1798,-7577,-3226,-2,38,4,0
16922,1806,-7579,-3328,-2,22,4,0
16927,1793,-7576,-3420,-1,5,3,0
16932,1750,-7566,-3494,-1,-11,3,0
16937,1681,-7559,-3542,-1,-22,3,0
16942,1595,-7554,-3558,-1,-27,2,0
16947,1504,-7549,-3565,0,-29,2,0
16952,1434,-7538,-3559,0,-29,2,0
16957,1382,-7531,-3568,0,-29,2,0
16962,1333,-7532,-3592,0,-32,2,0
16967,1292,-7525,-3618,1,-37,2,0
16972,1270,-7511,-3663,1,-44,1,0
16977,1271,-7507,-3713,1,-52,1,0
16982,1273,-7509,-3755,1,-61,1,0
16987,1271,-7508,-3792,2,-68,1,0
16992,1267,-7510,-3804,2,-73,0,0
16997,1246,-7511,-3789,2,-74,0,0
17002,1206,-7511,-3747,2,-72,0,0
17007,1172,-7513,-3671,2,-68,0,0
17012,1130,-7526,-3582,1,-61,0,0
17017,1083,-7544,-3475,1,-53,1,0
17022,1061,-7561,-3378,1,-44,1,0
17027,1060,-7576,-3301,1,-35,1,0
17032,1073,-7584,-3236,1,-29,1,0
17037,1112,-7586,-3195,1,-24,1,0
17042,1159,-7585,-3165,1,-22,2,0
17047,1197,-7588,-3126,0,-22,2,0
17052,1234,-7583,-3080,0,-23,2,0
17057,1270,-7580,-3025,0,-24,2,0
17062,1288,-7578,-2954,0,-24,2,0
17067,1282,-7580,-2888,-1,-20,2,0
17072,1267,-7580,-2829,-1,-13,2,0
17077,1251,-7583,-2775,-1,-2,3,0
17082,1220,-7582,-2742,-2,9,3,0
17087,1193,-7581,-2722,-2,20,3,0
17092,1171,-7579,-2709,-2,29,4,0
17097,1133,-7577,-2713,-3,38,4,0
17102,1080,-7574,-2730,-3,47,4,0
17107,1022,-7567,-2762,-3,57,4,0
17112,950,-7568,-2819,-3,68,4,0
17117,880,-7569,-2877,-4,79,4,0
17122,814,-7568,-2958,-4,91,5,0
17127,732,-7572,-3047,-5,103,5,0
17132,611,-7580,-3135,-5,114,5,0
17137,486,-7581,-3202,-5,123,4,0
17142,365,-7574,-3255,-5,131,4,0
17147,233,-7579,-3321,-5,137,4,0
17152,108,-7588,-3358,-5,141,3,0
17157,14,-7632,-3415,-5,141,2,0
17162,7,-7620,-3547,-4,132,2,0
17167,115,-7529,-3551,-4,115,2,0
17172,211,-7481,-3592,-4,96,2,0
17177,348,-7499,-3652,-3,79,2,0
17182,531,-7518,-3662,-2,62,0,0
17187,718,-7517,-3706,-1,39,-2,0
17192,894,-7528,-3747,-1,11,-2,0
17197,1017,-7554,-3780,0,-15,-2,0
17202,1097,-7565,-3763,0,-38,-2,0
17207,1140,-7568,-3718,0,-53,-3,0
17212,1191,-7570,-3658,0,-61,-4,0
17217,1294,-7571,-3598,1,-63,-4,0
17222,1378,-7582,-3543,1,-63,-4,0
17226,1409,-7592,-3474,1,-61,-3,0
17231,1493,-7578,-3416,1,-59,-3,0
17237,1576,-7574,-3364,1,-52,-3,0
17243,1610,-7575,-3346,1,-43,-3,0
17248,1644,-7572,-3369,1,-35,-3,0
17253,1666,-7571,-3426,1,-26,-3,0
17258,1668,-7570,-3522,1,-19,-2,0
17264,1643,-7571,-3641,1,-13,-2,0
17270,1600,-7572,-3765,1,-8,-2,0
17275,1545,-7573,-3899,2,-3,-2,0
17280,1467,-7572,-4034,2,2,-2,0
17286,1390,-7568,-4168,2,5,-2,0
17290,1326,-7562,-4286,3,8,-2,0
17295,1267,-7560,-4388,3,10,-2,0
17300,1236,-7555,-4458,3,13,-1,0
17304,1228,-7547,-4502,4,17,-1,0
17309,1245,-7543,-4505,4,22,-1,0
17313,1297,-7538,-4483,4,28,-1,0
17318,1367,-7541,-4447,4,34,-1,0
17322,1452,-7548,-4384,4,39,0,0
17326,1552,-7544,-4312,5,44,0,0
17331,1656,-7539,-4223,5,48,0,0
17337,1766,-7535,-4111,5,54,1,0
17341,1876,-7526,-3976,4,61,1,0
17347,2002,-7465,-3810,4,69,2,0
17352,2037,-7493,-3617,4,74,2,0
17356,2087,-7549,-3416,3,74,1,0
17362,2156,-7564,-3202,3,75,2,0
17366,2189,-7565,-3024,4,76,3,0
17371,2238,-7580,-2897,4,71,3,0
17377,2290,-7600,-2827,4,61,3,0
17382,2315,-7595,-2793,4,46,2,0
17386,2296,-7598,-2776,4,30,2,0
17391,2248,-7617,-2738,4,15,2,0
17396,2172,-7628,-2681,4,4,2,0
17401,2045,-7628,-2627,4,-2,2,0
17406,1944,-7628,-2552,4,-1,2,0
17411,1845,-7633,-2529,4,2,2,0
17416,1759,-7639,-2538,4,5,2,0
17421,1720,-7629,-2571,4,6,2,0
17426,1692,-7626,-2630,4,6,2,0
17431,1675,-7631,-2668,4,8,2,0
17436,1666,-7630,-2680,3,14,2,0
17441,1641,-7624,-2674,3,22,2,0
17446,1611,-7619,-2667,3,30,1,0
17451,1577,-7622,-2676,3,36,1,0
17456,1553,-7637,-2721,3,37,1,0
17461,1547,-7638,-2790,4,32,2,0
17466,1551,-7646,-2878,4,24,2,0
17471,1588,-7650,-2952,4,16,2,0
17476,1622,-7649,-3030,4,10,1,0
17481,1663,-7648,-3098,4,5,1,0
17486,1695,-7645,-3154,5,1,1,0
17491,1706,-7643,-3211,5,-4,0,0
17496,1717,-7639,-3241,5,-8,0,0
17501,1709,-7642,-3270,5,-10,1,0
17506,1719,-7641,-3273,5,-9,1,0
17511,1742,-7640,-3262,5,-6,1,0
17516,1794,-7643,-3241,5,-1,1,0
17521,1871,-7639,-3198,6,2,1,0
17526,1953,-7639,-3155,6,2,1,0
17531,2038,-7641,-3098,6,1,1,0
17536,2114,-7636,-3028,6,0,1,0
17541,2177,-7637,-2951,6,-1,2,0
17546,2213,-7640,-2865,5,-1,2,0
17551,2235,-7644,-2773,5,0,2,0
17556,2240,-7647,-2681,5,1,2,0
17561,2217,-7649,-2599,5,1,2,0
17566,2169,-7653,-2528,5,1,2,0
17571,2102,-7660,-2476,5,-1,2,0
17577,2008,-7665,-2443,5,-3,2,0
17582,1895,-7675,-2436,5,-5,2,0
17586,1775,-7680,-2456,5,-7,2,0
17591,1632,-7692,-2469,5,-7,1,0
17596,1464,-7703,-2455,5,-4,1,0
17601,1341,-7703,-2424,4,-2,1,0
17606,1249,-7708,-2351,4,-3,0,0
17611,1178,-7712,-2252,4,-7,1,0
17616,1151,-7718,-2153,4,-9,1,0
17621,1164,-7727,-2065,4,-8,1,0
17626,1222,-7729,-1990,4,-5,0,0
17631,1296,-7731,-1957,4,-5,0,0
17636,1353,-7732,-1946,4,-8,-1,0
17641,1379,-7730,-1962,3,-13,-1,0
17646,1357,-7727,-1996,3,-18,-1,0
17651,1302,-7724,-2047,3,-23,-2,0
17656,1238,-7729,-2116,3,-25,-2,0
17661,1175,-7733,-2199,3,-26,-2,0
17667,1126,-7737,-2295,3,-25,-2,0
17671,1094,-7740,-2396,3,-23,-2,0
17676,1082,-7739,-2494,3,-19,-2,0
17681,1111,-7738,-2580,3,-15,-2,0
17686,1153,-7745,-2650,3,-12,-2,0
17691,1230,-7744,-2687,3,-10,-2,0
17696,1326,-7744,-2696,3,-8,-2,0
17702,1421,-7741,-2683,3,-6,-2,0
17707,1520,-7740,-2649,3,-5,-2,0
17712,1616,-7741,-2607,3,-3,-2,0
17717,1699,-7744,-2562,3,-2,-2,0
17721,1769,-7745,-2511,3,-2,-2,0
17726,1814,-7745,-2468,3,-3,-2,0
17731,1834,-7744,-2432,3,-3,-2,0
17736,1827,-7743,-2412,3,-3,-2,0
17742,1802,-7746,-2404,3,-4,-2,0
17746,1756,-7751,-2417,3,-4,-2,0
17751,1702,-7752,-2443,3,-4,-2,0
17756,1651,-7752,-2473,3,-4,-2,0
17761,1608,-7752,-2496,3,-4,-2,0
17766,1583,-7752,-2511,3,-3,-2,0
17771,1580,-7751,-2511,3,-3,-2,0
17776,1593,-7750,-2496,3,-2,-2,0
17782,1620,-7750,-2465,3,-2,-2,0
17786,1655,-7755,-2427,3,0,-2,0
17791,1700,-7757,-2393,3,1,-2,0
17796,1748,-7756,-2368,3,1,-2,0
17801,1796,-7756,-2357,3,1,-2,0
17806,1840,-7756,-2362,3,1,-2,0
17811,1877,-7756,-2372,3,1,-2,0
17816,1908,-7761,-2397,3,1,-2,0
17821,1940,-7762,-2421,3,1,-1,0
17826,1975,-7762,-2437,3,0,-1,0
17831,2006,-7766,-2444,3,0,-1,0
17836,2033,-7765,-2436,3,-1,-1,0
17841,2054,-7766,-2411,3,-2,-1,0
17846,2065,-7767,-2372,2,-2,-1,0
17851,2070,-7772,-2321,2,-3,-1,0
17856,2058,-7776,-2264,2,-3,-1,0
17861,2036,-7780,-2212,2,-3,-1,0
17866,2014,-7783,-2168,2,-3,-1,0
17871,1989,-7785,-2133,2,-2,-1,0
17876,1968,-7785,-2117,2,-2,0,0
17881,1956,-7786,-2116,2,-2,0,0
17886,1946,-7786,-2124,2,-2,0,0
17891,1941,-7784,-2144,2,-2,0,0
17896,1931,-7784,-2162,2,-2,0,0
17901,1918,-7784,-2182,2,-2,0,0
17906,1904,-7783,-2201,2,-2,0,0
17911,1898,-7782,-2221,2,-1,0,0
17916,1905,-7782,-2240,2,0,0,0
17921,1933,-7782,-2255,2,1,0,0
17926,1971,-7784,-2265,2,2,0,0
17931,2012,-7786,-2281,2,2,0,0
17936,2045,-7788,-2290,2,1,0,0
17941,2057,-7789,-2288,2,0,0,0
17946,2037,-7793,-2280,1,-1,0,0
17951,1998,-7790,-2260,1,-1,0,0
17956,1946,-7789,-2232,1,0,0,0
17961,1894,-7789,-2214,2,1,0,0
17966,1856,-7793,-2204,2,2,0,0
17971,1833,-7797,-2203,1,2,1,0
17976,1830,-7799,-2211,1,2,1,0
17981,1835,-7799,-2219,1,2,1,0
17986,1846,-7800,-2227,1,1,1,0
17991,1858,-7801,-2224,1,0,1,0
17996,1867,-7801,-2204,1,-1,1,0
18001,1866,-7803,-2183,1,-2,1,0
18006,1864,-7804,-2159,1,-2,0,0
18011,1858,-7807,-2139,1,-2,1,0
18016,1841,-7808,-2129,1,-3,1,0
18021,1821,-7809,-2136,1,-3,1,0
18026,1798,-7805,-2150,1,-3,1,0
18031,1772,-7807,-2183,1,-3,0,0
18036,1743,-7808,-2221,1,-3,0,0
18041,1710,-7809,-2257,1,-3,0,0
18046,1677,-7813,-2281,1,-3,0,0
18051,1642,-7816,-2288,1,-3,0,0
18056,1604,-7818,-2283,1,-3,0,0
18061,1572,-7820,-2265,1,-2,0,0
18066,1548,-7822,-2243,1,-2,0,0
18071,1534,-7822,-2216,1,-2,0,0
18076,1526,-7823,-2188,1,-2,0,0
18081,1524,-7824,-2167,1,-2,0,0
18086,1519,-7826,-2150,1,-2,0,0
18091,1509,-7829,-2136,1,-3,0,0
18096,1494,-7831,-2127,1,-3,0,0
18101,1477,-7835,-2121,1,-3,-1,0
18106,1466,-7837,-2119,1,-3,-1,0
18111,1457,-7837,-2114,1,-2,-1,0
18116,1454,-7836,-2105,1,-2,-1,0
18121,1451,-7837,-2093,1,-3,-1,0
18126,1449,-7839,-2081,1,-3,-1,0
18131,1450,-7840,-2073,1,-3,-1,0
18136,1451,-7843,-2073,1,-3,-1,0
18141,1453,-7842,-2075,1,-3,-1,0
18146,1460,-7841,-2087,1,-3,-1,0
18151,1464,-7843,-2099,0,-3,-1,0
18155,1471,-7846,-2104,0,-3,-1,0
18161,1486,-7842,-2105,0,-2,-1,0
18166,1500,-7840,-2100,0,-2,-2,0
18171,1516,-7841,-2092,0,-2,-2,0
18177,1534,-7839,-2082,0,-2,-2,0
18182,1556,-7839,-2074,0,-2,-2,0
18188,1576,-7841,-2071,0,-3,-2,0
18193,1594,-7842,-2066,0,-3,-2,0
18198,1613,-7843,-2058,0,-2,-2,0
18203,1632,-7842,-2051,0,-2,-2,0
18208,1652,-7844,-2038,0,-2,-2,0
18214,1668,-7846,-2023,0,-2,-2,0
18219,1683,-7845,-2003,0,-2,-2,0
18223,1695,-7844,-1985,0,-3,-2,0
18228,1701,-7846,-1976,0,-3,-2,0
18233,1705,-7846,-1968,0,-4,-2,0
18237,1704,-7844,-1961,0,-4,-2,0
18242,1703,-7845,-1966,0,-4,-2,0
18246,1709,-7846,-1972,-1,-4,-2,0
18252,1719,-7847,-1987,-1,-5,-2,0
18257,1728,-7846,-2005,-1,-5,-2,0
18262,1740,-7845,-2015,-1,-5,-2,0
18267,1751,-7845,-2022,-1,-6,-2,0
18272,1760,-7845,-2029,-1,-6,-2,0
18277,1776,-7845,-2038,-1,-7,-2,0
18283,1797,-7846,-2054,-1,-6,-2,0
18288,1824,-7846,-2068,-1,-6,-2,0
18294,1862,-7846,-2088,-1,-5,-1,0
18299,1906,-7845,-2115,-1,-5,-1,0
18304,1954,-7846,-2139,-1,-5,-1,0
18310,2005,-7846,-2157,-1,-5,-1,0
18315,2053,-7845,-2172,-1,-4,-1,0
18320,2098,-7843,-2179,-1,-4,-1,0
18326,2134,-7842,-2177,-1,-4,-1,0
18332,2161,-7839,-2168,-1,-3,0,0
18337,2183,-7841,-2158,-1,-3,0,0
18342,2199,-7841,-2148,-1,-2,0,0
18348,2203,-7840,-2140,-1,-2,0,0
18353,2196,-7839,-2139,-1,-2,0,0
18359,2183,-7835,-2139,-1,-2,0,0
18364,2166,-7835,-2141,-1,-1,0,0
18368,2147,-7835,-2148,-1,-1,0,0
18373,2130,-7836,-2159,-1,0,1,0
18378,2118,-7838,-2165,-1,0,1,0
18383,2112,-7841,-2169,-1,0,1,0
18388,2105,-7840,-2170,-1,0,1,0
18392,2098,-7844,-2161,-1,0,1,0
18397,2086,-7845,-2142,-1,-1,1,0
18402,2065,-7843,-2122,-1,-1,1,0
18407,2037,-7843,-2106,-1,-1,1,0
18413,2003,-7843,-2086,-1,-1,1,0
18417,1969,-7843,-2074,-1,-1,1,0
18422,1933,-7845,-2068,-1,-1,1,0
18427,1888,-7846,-2064,-1,-1,1,0
18432,1845,-7847,-2065,-1,-1,1,0
18437,1802,-7848,-2066,-1,-1,1,0
18443,1761,-7850,-2070,-1,-1,1,0
18448,1730,-7848,-2074,-1,-1,1,0
18454,1709,-7849,-2083,-1,-1,1,0
18459,1705,-7850,-2083,-1,-1,1,0
18464,1711,-7853,-2077,-1,-1,1,0
18470,1727,-7856,-2074,-1,-1,1,0
18475,1747,-7860,-2073,-1,-1,1,0
18481,1769,-7862,-2077,-1,-1,1,0
18486,1785,-7863,-2081,-1,-1,1,0
18491,1793,-7860,-2087,-1,-1,1,0
18497,1785,-7860,-2092,-1,-1,1,0
18502,1763,-7858,-2097,-1,-1,1,0
18507,1728,-7858,-2100,-1,-2,1,0
18513,1689,-7861,-2093,-1,-2,1,0
18518,1646,-7863,-2081,-1,-2,1,0
18522,1603,-7864,-2060,-1,-2,1,0
18528,1563,-7865,-2034,-1,-2,1,0
18533,1533,-7869,-2003,-1,-1,1,0
18538,1511,-7867,-1974,-1,-1,1,0
18543,1495,-7868,-1953,-1,-1,0,0
18548,1488,-7865,-1934,-2,-1,0,0
18552,1485,-7865,-1925,-1,-2,0,0
18557,1487,-7868,-1929,-2,-2,0,0
18562,1494,-7871,-1943,-2,-2,0,0
18567,1504,-7871,-1964,-2,-2,0,0
18571,1513,-7871,-1990,-2,-2,0,0
18576,1525,-7871,-2009,-2,-3,0,0
18580,1539,-7869,-2025,-2,-3,0,0
18585,1563,-7866,-2039,-2,-3,0,0
18590,1596,-7866,-2054,-2,-3,0,0
18595,1640,-7865,-2065,-2,-3,0,0
18600,1701,-7864,-2068,-2,-3,0,0
18605,1767,-7864,-2069,-2,-2,0,0
18609,1836,-7863,-2068,-2,-2,0,0
18614,1898,-7859,-2068,-2,-2,0,0
18618,1946,-7857,-2070,-2,-2,0,0
18623,1974,-7856,-2075,-2,-3,0,0
18628,1988,-7855,-2086,-2,-3,1,0
18633,1988,-7855,-2103,-2,-2,1,0
18638,1983,-7858,-2127,-2,-2,1,0
18643,1982,-7857,-2159,-2,-1,1,0
18648,1990,-7857,-2198,-2,-1,1,0
18654,2002,-7855,-2235,-2,-1,1,0
18659,2013,-7856,-2267,-2,-1,2,0
18665,2024,-7855,-2292,-1,-1,2,0
18670,2034,-7854,-2315,-1,-1,2,0
18676,2039,-7856,-2321,-1,-1,2,0
18681,2035,-7859,-2315,-1,0,2,0
18686,2029,-7861,-2302,-1,0,2,0
18690,2014,-7861,-2277,-1,0,2,0
18695,1991,-7863,-2248,-1,0,2,0
18700,1966,-7864,-2223,-1,0,2,0
18704,1940,-7864,-2207,-1,1,2,0
18709,1910,-7865,-2197,-1,1,2,0
18714,1880,-7865,-2192,-1,1,2,0
18718,1855,-7864,-2190,-1,2,2,0
18723,1834,-7864,-2192,-1,2,2,0
18728,1817,-7864,-2188,-1,2,2,0
18733,1805,-7866,-2183,-1,2,2,0
18737,1792,-7867,-2174,-1,2,2,0
18742,1781,-7870,-2156,-1,2,2,0
18746,1762,-7871,-2135,-1,2,2,0
18750,1742,-7868,-2110,-1,2,2,0
18755,1720,-7867,-2086,-1,2,2,0
18759,1691,-7867,-2065,-1,2,2,0
18764,1667,-7868,-2046,-1,2,2,0
18769,1640,-7871,-2031,-1,2,2,0
18773,1615,-7871,-2027,-1,2,2,0
18777,1596,-7870,-2029,-1,2,2,0
18783,1581,-7875,-2028,-1,2,2,0
18787,1572,-7875,-2027,-1,2,2,0
18791,1567,-7880,-2025,-1,2,2,0
18797,1562,-7880,-2016,-1,1,2,0
18802,1562,-7883,-2011,-1,1,2,0
18806,1555,-7883,-2005,-2,1,2,0
18811,1540,-7885,-1998,-2,0,2,0
18816,1512,-7888,-1985,-2,-1,2,0
18821,1473,-7891,-1976,-2,-1,2,0
18826,1426,-7894,-1968,-2,-2,2,0
18830,1378,-7895,-1958,-2,-2,2,0
18835,1337,-7895,-1953,-2,-2,2,0
18840,1303,-7897,-1958,-2,-1,1,0
18845,1283,-7898,-1964,-2,-1,1,0
18850,1274,-7897,-1975,-2,-1,1,0
18855,1272,-7898,-1992,-2,-2,1,0
18860,1278,-7899,-2015,-2,-2,1,0
18865,1290,-7899,-2035,-2,-2,1,0
18870,1309,-7899,-2056,-2,-2,1,0
18875,1334,-7897,-2075,-2,-2,1,0
18880,1363,-7899,-2086,-2,-2,1,0
18885,1390,-7901,-2093,-2,-2,1,0
18890,1412,-7898,-2093,-2,-2,1,0
18896,1427,-7898,-2085,-2,-2,1,0
18900,1436,-7902,-2074,-2,-2,0,0
18905,1435,-7901,-2071,-2,-2,0,0
18910,1427,-7901,-2071,-2,-2,0,0
18915,1418,-7897,-2077,-2,-2,0,0
18920,1406,-7893,-2084,-2,-2,0,0
18925,1395,-7894,-2094,-2,-1,0,0
18930,1395,-7895,-2102,-2,-1,0,0
18935,1401,-7895,-2106,-2,-1,0,0
18940,1409,-7896,-2101,-2,-1,0,0
18945,1420,-7896,-2097,-2,-1,0,0
18950,1433,-7895,-2081,-2,-1,0,0
18955,1447,-7893,-2071,-2,-1,0,0
18960,1461,-7893,-2060,-2,-1,0,0
18965,1469,-7891,-2053,-2,-1,0,0
18970,1474,-7893,-2050,-2,-1,0,0
18975,1467,-7894,-2053,-2,-2,0,0
18980,1454,-7894,-2059,-2,-1,0,0
18985,1436,-7896,-2063,-2,-1,0,0
18990,1412,-7898,-2064,-2,-1,0,0
18995,1389,-7897,-2058,-2,-1,0,0
19000,1371,-7899,-2049,-2,-1,0,0
19005,1360,-7898,-2043,-2,-1,0,0
19010,1358,-7898,-2028,-2,-1,0,0
19015,1364,-7898,-2015,-2,-1,0,0
19020,1375,-7900,-2008,-2,-1,-1,0
19025,1385,-7901,-2007,-2,-1,-1,0
19030,1396,-7901,-2011,-2,-1,-1,0
19035,1410,-7902,-2018,-2,-1,-1,0
19040,1420,-7902,-2030,-2,-1,-1,0
19045,1424,-7901,-2039,-2,-1,-1,0
19050,1430,-7901,-2045,-2,-2,-1,0
19055,1435,-7901,-2047,-2,-2,-1,0
19060,1436,-7900,-2044,-2,-2,-1,0
19065,1432,-7900,-2037,-2,-2,-1,0
19070,1420,-7897,-2024,-2,-2,-1,0
19075,1410,-7897,-2013,-2,-2,-1,0
19080,1398,-7897,-2003,-2,-2,-1,0
19085,1383,-7896,-1999,-2,-2,-1,0
19090,1380,-7897,-1993,-2,-2,-1,0
19095,1383,-7895,-1988,-2,-2,-1,0
19100,1395,-7896,-1984,-2,-2,-1,0
19105,1415,-7897,-1973,-2,-2,-1,0
19110,1439,-7898,-1967,-2,-2,-1,0
19115,1467,-7898,-1960,-2,-2,-1,0
19121,1500,-7897,-1959,-2,-2,-1,0
19127,1532,-7897,-1963,-2,-2,-1,0
19132,1559,-7896,-1974,-2,-2,-1,0
19136,1583,-7897,-1993,-2,-2,-1,0
19141,1601,-7899,-2014,-2,-2,-1,0
19145,1608,-7902,-2032,-2,-2,-1,0
19150,1608,-7902,-2050,-2,-2,-2,0
19155,1604,-7901,-2053,-2,-2,-1,0
19160,1603,-7898,-2055,-2,-2,-1,0
19165,1603,-7898,-2053,-2,-2,-1,0
19170,1611,-7900,-2050,-2,-1,-1,0
19175,1629,-7900,-2049,-2,-1,-1,0
19180,1649,-7898,-2054,-2,-1,-1,0
19185,1669,-7896,-2065,-2,-2,-1,0
19190,1685,-7897,-2073,-2,-2,-1,0
19195,1699,-7898,-2084,-2,-2,-1,0
19200,1704,-7900,-2095,-2,-2,-1,0
19205,1703,-7898,-2104,-2,-2,-1,0
19210,1701,-7898,-2111,-2,-1,-1,0
19215,1700,-7898,-2110,-2,-1,-1,0
19220,1698,-7897,-2106,-2,-1,-1,0
19225,1699,-7898,-2097,-2,-1,-1,0
19230,1707,-7897,-2088,-2,-1,-1,0
19235,1716,-7898,-2078,-2,-1,-1,0
19240,1724,-7896,-2068,-2,0,-1,0
19245,1738,-7898,-2056,-2,0,-1,0
19250,1756,-7900,-2047,-2,0,-1,0
19255,1773,-7903,-2032,-2,0,-1,0
19260,1789,-7902,-2012,-2,1,0,0
19265,1811,-7904,-1988,-2,1,0,0
19270,1835,-7905,-1957,-2,1,0,0
19275,1859,-7906,-1919,-2,1,0,0
19280,1876,-7902,-1874,-3,1,0,0
19285,1888,-7901,-1821,-3,1,0,0
19290,1896,-7903,-1771,-3,2,0,0
19295,1896,-7902,-1721,-3,2,0,0
19300,1891,-7902,-1675,-3,2,0,0
19305,1883,-7905,-1642,-3,2,0,0
19310,1866,-7909,-1613,-3,3,0,0
19315,1849,-7912,-1592,-4,3,0,0
19320,1839,-7912,-1571,-4,4,1,0
19325,1832,-7911,-1547,-4,6,1,0
19330,1828,-7908,-1522,-4,7,1,0
19335,1829,-7906,-1488,-5,8,1,0
19340,1830,-7905,-1445,-5,8,1,0
19344,1834,-7904,-1403,-5,9,1,0
19350,1840,-7902,-1360,-5,8,1,0
19355,1845,-7901,-1314,-6,8,1,0
19360,1849,-7900,-1277,-6,7,1,0
19365,1850,-7900,-1254,-6,7,1,0
19370,1852,-7902,-1234,-6,7,1,0
19375,1858,-7900,-1223,-7,7,1,0
19380,1863,-7897,-1217,-7,8,1,0
19386,1876,-7893,-1224,-7,8,1,0
19390,1894,-7890,-1231,-7,8,2,0
19395,1913,-7889,-1245,-8,8,2,0
19400,1936,-7887,-1253,-8,9,2,0
19405,1960,-7883,-1255,-8,9,2,0
19410,1982,-7880,-1254,-8,11,2,0
19414,2004,-7880,-1253,-9,12,2,0
19420,2028,-7878,-1252,-9,13,2,0
19425,2048,-7874,-1258,-9,15,3,0
19430,2064,-7868,-1274,-9,16,3,0
19434,2070,-7862,-1294,-10,17,3,0
19439,2061,-7858,-1327,-10,18,3,0
19445,2051,-7861,-1366,-10,18,3,0
19450,2032,-7861,-1405,-10,17,3,0
19455,1996,-7860,-1437,-10,16,3,0
19460,1950,-7861,-1451,-11,13,3,0
19465,1896,-7861,-1447,-11,12,3,0
19469,1827,-7860,-1430,-11,11,3,0
19474,1753,-7858,-1399,-12,11,3,0
19479,1677,-7857,-1356,-12,10,3,0
19484,1605,-7855,-1311,-12,10,3,0
19489,1534,-7856,-1264,-12,8,2,0
19494,1473,-7856,-1228,-12,6,2,0
19499,1419,-7857,-1213,-13,4,2,0
19504,1382,-7858,-1204,-13,3,2,0
19509,1357,-7855,-1207,-13,1,2,0
19514,1343,-7849,-1210,-13,0,2,0
19519,1343,-7843,-1215,-14,-1,2,0
19524,1352,-7838,-1220,-14,-2,1,0
19530,1371,-7833,-1225,-14,-4,1,0
19535,1390,-7829,-1230,-15,-6,1,0
19540,1407,-7823,-1242,-15,-6,1,0
19545,1431,-7815,-1266,-15,-5,1,0
19551,1459,-7808,-1304,-15,-4,1,0
19555,1501,-7799,-1364,-15,-3,1,0
19561,1556,-7792,-1438,-15,-3,2,0
19566,1624,-7784,-1523,-16,-4,2,0
19571,1697,-7778,-1608,-16,-5,2,0
19576,1772,-7766,-1687,-16,-5,2,0
19581,1851,-7761,-1750,-16,-6,2,0
19586,1933,-7757,-1802,-16,-6,2,0
19590,2015,-7750,-1849,-16,-7,2,0
19595,2094,-7744,-1902,-16,-8,3,0
19600,2173,-7734,-1961,-16,-10,3,0
19605,2251,-7727,-2038,-16,-12,3,0
19610,2316,-7721,-2126,-16,-14,3,0
19616,2366,-7714,-2223,-16,-17,3,0
19620,2400,-7706,-2305,-16,-21,3,0
19625,2413,-7699,-2384,-16,-26,4,0
19631,2406,-7683,-2443,-16,-31,4,0
19635,2398,-7670,-2488,-16,-37,4,0
19640,2383,-7670,-2536,-16,-44,4,0
19645,2356,-7673,-2570,-15,-48,5,0
19649,2325,-7675,-2593,-15,-50,5,0
19654,2297,-7664,-2613,-15,-51,5,0
19659,2279,-7660,-2624,-15,-52,5,0
19665,2257,-7662,-2649,-15,-56,5,0
19670,2225,-7659,-2673,-15,-61,5,0
19674,2195,-7646,-2712,-14,-67,6,0
19679,2155,-7644,-2755,-14,-72,6,0
19684,2090,-7653,-2819,-14,-75,6,0
19689,2004,-7648,-2884,-14,-73,6,0
19694,1907,-7646,-2957,-14,-68,6,0
19699,1794,-7656,-3033,-14,-59,7,0
19704,1679,-7654,-3105,-14,-48,7,0
19709,1574,-7655,-3178,-13,-36,8,0
19714,1476,-7655,-3259,-13,-25,8,0
19719,1392,-7652,-3347,-13,-14,8,0
19724,1331,-7647,-3446,-13,-4,8,0
19730,1287,-7642,-3558,-13,3,9,0
19734,1261,-7642,-3665,-12,7,9,0
19739,1244,-7641,-3767,-12,9,9,0
19744,1217,-7649,-3847,-12,11,9,0
19749,1199,-7644,-3901,-12,14,9,0
19754,1156,-7637,-3934,-12,18,9,0
19759,1100,-7633,-3940,-11,21,9,0
19764,1028,-7633,-3928,-11,27,9,0
19769,936,-7632,-3898,-11,33,9,0
19774,831,-7618,-3864,-11,39,8,0
19779,723,-7627,-3838,-11,45,8,0
19784,619,-7625,-3823,-11,49,8,0
19789,522,-7626,-3824,-10,52,8,0
19794,435,-7631,-3857,-10,53,8,0
19799,356,-7633,-3898,-10,55,8,0
19804,298,-7639,-3959,-10,56,7,0
19809,239,-7632,-4019,-9,56,7,0
19814,180,-7640,-4068,-9,58,6,0
19819,119,-7641,-4098,-9,59,6,0
19824,67,-7643,-4089,-9,62,5,0
19830,21,-7647,-4048,-9,66,5,0
19835,-27,-7656,-3970,-9,69,5,0
19839,-73,-7657,-3860,-9,70,4,0
19844,-101,-7669,-3747,-9,71,4,0
19849,-116,-7672,-3632,-9,70,3,0
19855,-133,-7674,-3538,-8,68,3,0
19860,-144,-7678,-3486,-8,65,2,0
19865,-140,-7677,-3476,-7,61,2,0
19870,-124,-7695,-3505,-7,56,1,0
19874,-77,-7693,-3602,-7,50,1,0
19879,-40,-7697,-3699,-6,46,1,0
19884,38,-7693,-3812,-6,46,0,0
19889,161,-7700,-3921,-6,48,0,0
19894,297,-7683,-3996,-6,50,0,0
19899,462,-7668,-4047,-5,51,0,0
19904,644,-7657,-4061,-5,53,0,0
19909,824,-7658,-4014,-5,56,0,0
19914,1013,-7668,-3917,-5,59,0,0
19919,1185,-7678,-3771,-5,61,0,0
19924,1313,-7646,-3604,-5,58,-1,0
19929,1404,-7642,-3463,-5,50,-1,0
19934,1454,-7646,-3327,-4,39,-1,0
19939,1469,-7654,-3225,-4,25,-2,0
19945,1427,-7680,-3137,-4,11,-2,0
19951,1359,-7681,-3028,-4,-2,-2,0
19956,1265,-7677,-2908,-4,-11,-3,0
19962,1150,-7676,-2771,-4,-17,-3,0
19967,1053,-7667,-2613,-4,-18,-3,0
19972,1003,-7669,-2466,-5,-19,-3,0
19978,984,-7670,-2325,-5,-20,-3,0
19983,993,-7668,-2201,-5,-23,-4,0
19989,1026,-7663,-2096,-5,-25,-4,0
19994,1073,-7664,-2023,-6,-25,-4,0
20000,1119,-7668,-1980,-6,-23,-4,0
20005,1152,-7675,-1960,-6,-18,-4,0
20011,1207,-7676,-1975,-7,-9,-4,0
20016,1285,-7672,-2022,-7,-1,-4,0
20022,1378,-7666,-2113,-7,4,-3,0
20026,1483,-7655,-2231,-7,6,-3,0
20032,1584,-7649,-2365,-7,5,-3,0
20037,1674,-7641,-2509,-7,1,-3,0
20041,1740,-7633,-2641,-7,-4,-4,0
20046,1777,-7628,-2752,-7,-7,-4,0
20052,1795,-7626,-2830,-7,-10,-4,0
20057,1803,-7621,-2885,-7,-11,-3,0
20061,1816,-7615,-2924,-7,-12,-3,0
20065,1835,-7612,-2953,-7,-14,-3,0
20070,1860,-7607,-2980,-7,-17,-3,0
20075,1893,-7599,-3011,-7,-21,-3,0
20079,1919,-7594,-3055,-7,-26,-3,0
20083,1939,-7590,-3099,-7,-28,-3,0
20088,1949,-7588,-3126,-7,-28,-3,0
20092,1934,-7586,-3146,-7,-26,-3,0
20096,1897,-7584,-3166,-7,-23,-3,0
20100,1843,-7576,-3194,-6,-20,-3,0
20104,1763,-7576,-3257,-6,-17,-3,0
20109,1672,-7578,-3345,-6,-14,-3,0
20114,1587,-7582,-3461,-6,-11,-2,0
20119,1518,-7587,-3586,-6,-7,-2,0
20124,1478,-7583,-3690,-6,-1,-2,0
20129,1477,-7579,-3777,-6,4,-2,0
20134,1505,-7574,-3832,-5,8,-2,0
20139,1563,-7571,-3859,-5,10,-2,0
20144,1625,-7567,-3871,-5,10,-2,0
20149,1683,-7564,-3874,-5,10,-2,0
20154,1724,-7563,-3869,-4,11,-2,0
20159,1747,-7562,-3848,-4,11,-2,0
20164,1750,-7559,-3803,-4,11,-2,0
20169,1726,-7564,-3730,-4,10,-2,0
20174,1683,-7564,-3625,-4,10,-2,0
20179,1633,-7564,-3502,-4,9,-2,0
20184,1578,-7569,-3390,-4,8,-2,0
20189,1528,-7572,-3298,-4,5,-2,0
20195,1483,-7572,-3253,-4,3,-2,0
20199,1448,-7574,-3250,-3,1,-2,0
20204,1424,-7574,-3289,-3,1,-2,0
20209,1412,-7572,-3356,-3,1,-3,0
20214,1414,-7570,-3429,-3,1,-3,0
20219,1420,-7569,-3509,-3,2,-3,0
20224,1439,-7564,-3580,-3,3,-3,0
20229,1462,-7558,-3640,-3,4,-3,0
20234,1488,-7555,-3689,-3,5,-3,0
20239,1512,-7553,-3725,-2,5,-3,0
20244,1528,-7555,-3752,-2,5,-3,0
20249,1536,-7558,-3760,-2,5,-3,0
20254,1533,-7560,-3760,-2,4,-3,0
20259,1518,-7561,-3747,-2,3,-3,0
20264,1502,-7561,-3717,-2,2,-3,0
20269,1482,-7561,-3679,-1,0,-4,0
20274,1462,-7558,-3635,-1,-3,-4,0
20279,1440,-7557,-3602,-1,-5,-4,0
20285,1414,-7554,-3576,-1,-7,-4,0
20289,1386,-7554,-3567,0,-7,-4,0
20294,1368,-7553,-3571,0,-8,-4,0
20299,1364,-7555,-3582,0,-8,-4,0
20304,1375,-7555,-3597,0,-8,-4,0
20309,1404,-7553,-3613,0,-7,-4,0
20314,1446,-7555,-3630,0,-7,-4,0
20319,1502,-7555,-3648,0,-7,-4,0
20324,1561,-7555,-3658,1,-7,-4,0
20329,1603,-7556,-3661,1,-7,-4,0
20334,1632,-7555,-3656,1,-6,-4,0
20339,1644,-7554,-3641,1,-5,-5,0
20344,1636,-7555,-3608,1,-3,-5,0
20349,1619,-7555,-3561,1,-1,-5,0
20354,1595,-7557,-3497,1,1,-4,0
20359,1571,-7556,-3424,1,3,-4,0
20364,1549,-7559,-3347,1,4,-5,0
20369,1528,-7560,-3265,1,5,-5,0
20374,1515,-7557,-3185,1,4,-5,0
20379,1508,-7554,-3123,1,4,-5,0
20384,1514,-7558,-3069,1,3,-5,0
20389,1540,-7558,-3030,1,3,-5,0
20394,1588,-7561,-3003,1,1,-5,0
20399,1650,-7561,-2988,1,-1,-5,0
20404,1722,-7561,-2990,1,-3,-4,0
20409,1797,-7562,-2995,1,-4,-4,0
20414,1875,-7564,-3005,1,-4,-4,0
20419,1952,-7564,-3015,1,-3,-4,0
20424,2017,-7567,-3018,0,-3,-4,0
20429,2068,-7571,-3012,0,-3,-4,0
20434,2107,-7570,-2983,0,-4,-4,0
20439,2127,-7569,-2923,0,-5,-4,0
20444,2129,-7571,-2844,0,-7,-4,0
20449,2124,-7575,-2750,0,-7,-4,0
20454,2105,-7579,-2657,-1,-6,-3,0
20459,2073,-7580,-2566,-1,-5,-3,0
20464,2040,-7582,-2492,-1,-4,-3,0
20469,2007,-7588,-2436,-1,-2,-3,0
20474,1981,-7588,-2396,-1,-1,-3,0
20479,1961,-7591,-2380,-2,2,-3,0
20484,1947,-7587,-2391,-2,3,-3,0
20489,1939,-7584,-2421,-2,5,-3,0
20494,1933,-7577,-2470,-2,7,-3,0
20499,1928,-7572,-2529,-2,9,-3,0
20504,1919,-7567,-2588,-2,12,-3,0
20509,1905,-7565,-2641,-2,16,-3,0
20514,1894,-7562,-2689,-3,21,-3,0
20519,1887,-7561,-2727,-3,26,-3,0
20524,1889,-7555,-2761,-3,31,-3,0
20529,1899,-7549,-2790,-3,35,-2,0
20534,1923,-7547,-2825,-3,38,-2,0
20539,1956,-7545,-2857,-3,40,-2,0
20544,1995,-7548,-2887,-3,39,-2,0
20549,2042,-7554,-2908,-3,37,-2,0
20553,2085,-7560,-2911,-3,34,-2,0
20558,2133,-7561,-2910,-3,30,-2,0
20563,2180,-7560,-2896,-3,26,-2,0
20569,2224,-7564,-2895,-3,23,-2,0
20574,2263,-7565,-2882,-3,21,-2,0
20578,2295,-7562,-2870,-3,20,-2,0
20583,2317,-7554,-2847,-3,21,-2,0
20589,2328,-7549,-2823,-3,23,-2,0
20594,2328,-7551,-2805,-3,27,-1,0
20599,2331,-7551,-2781,-3,32,-1,0
20605,2334,-7541,-2752,-3,39,-1,0
20609,2343,-7534,-2741,-4,47,-1,0
20614,2344,-7528,-2727,-4,55,-1,0
20619,2345,-7533,-2726,-4,61,-1,0
20623,2334,-7544,-2711,-4,64,-1,0
20628,2314,-7553,-2693,-4,63,-1,0
20633,2280,-7553,-2668,-5,60,-1,0
20638,2249,-7559,-2629,-4,57,-1,0
20644,2229,-7560,-2583,-4,53,-1,0
20649,2215,-7556,-2535,-4,48,-1,0
20653,2201,-7554,-2486,-4,42,-1,0
20658,2197,-7563,-2436,-5,36,-1,0
20664,2188,-7565,-2378,-5,30,-2,0
20668,2173,-7564,-2309,-5,24,-2,0
20673,2161,-7566,-2234,-5,20,-2,0
20678,2136,-7570,-2158,-5,17,-2,0
20683,2116,-7570,-2097,-5,14,-2,0
20688,2107,-7574,-2057,-5,13,-2,0
20693,2100,-7574,-2040,-5,12,-2,0
20698,2104,-7570,-2045,-6,10,-3,0
20704,2114,-7566,-2064,-6,8,-3,0
20708,2126,-7566,-2096,-6,5,-3,0
20714,2146,-7565,-2140,-6,3,-3,0
20719,2170,-7561,-2186,-6,1,-3,0
20724,2198,-7558,-2241,-6,-1,-3,0
20729,2234,-7552,-2304,-6,-2,-3,0
20735,2263,-7547,-2359,-6,-3,-3,0
20740,2276,-7541,-2409,-6,-5,-3,0
20746,2276,-7537,-2442,-7,-5,-3,0
20750,2259,-7533,-2466,-7,-5,-3,0
20754,2230,-7530,-2471,-7,-5,-4,0
20758,2198,-7529,-2462,-7,-5,-4,0
20763,2166,-7527,-2442,-7,-6,-4,0
20769,2133,-7524,-2414,-7,-8,-4,0
20774,2113,-7523,-2389,-7,-8,-4,0
20780,2098,-7519,-2373,-7,-8,-4,0
20785,2093,-7518,-2368,-7,-9,-4,0
20790,2095,-7511,-2370,-8,-12,-4,0
20795,2093,-7505,-2382,-8,-17,-5,0
20801,2088,-7499,-2401,-8,-24,-5,0
20806,2072,-7479,-2415,-8,-30,-5,0
20812,2056,-7483,-2436,-8,-36,-5,0
20817,2032,-7483,-2452,-8,-39,-5,0
20822,2002,-7478,-2468,-8,-40,-6,0
20828,1976,-7480,-2510,-8,-41,-6,0
20833,1939,-7483,-2547,-8,-39,-6,0
20839,1898,-7478,-2597,-8,-36,-6,0
20844,1860,-7477,-2653,-8,-32,-6,0
20849,1824,-7484,-2714,-8,-27,-6,0
20854,1791,-7485,-2784,-8,-21,-6,0
20859,1765,-7478,-2851,-9,-14,-6,0
20864,1755,-7474,-2928,-9,-9,-6,0
20869,1754,-7467,-3002,-8,-6,-6,0
20873,1762,-7459,-3077,-8,-5,-6,0
20878,1776,-7454,-3147,-8,-5,-6,0
20883,1790,-7445,-3207,-8,-6,-6,0
20888,1809,-7436,-3262,-8,-5,-6,0
20893,1834,-7429,-3308,-8,-4,-7,0
20899,1851,-7427,-3350,-8,-2,-7,0
20903,1873,-7419,-3390,-8,2,-7,0
20908,1899,-7409,-3423,-8,6,-7,0
20913,1912,-7398,-3440,-8,10,-7,0
20918,1916,-7385,-3434,-8,15,-7,0
20923,1906,-7381,-3412,-8,21,-7,0
20928,1877,-7368,-3362,-8,27,-7,0
20933,1831,-7350,-3294,-8,32,-7,0
20937,1789,-7360,-3224,-8,36,-7,0
20942,1738,-7350,-3136,-9,38,-8,0
20947,1696,-7333,-3051,-9,40,-8,1
20952,1684,-7354,-2974,-9,41,-8,1
20956,1685,-7368,-2882,-9,40,-8,1
20961,1720,-7364,-2803,-9,37,-8,1
20966,1764,-7352,-2714,-9,32,-9,1
20972,1848,-7375,-2662,-9,26,-9,1
20977,1935,-7376,-2601,-9,21,-9,1
20982,2031,-7365,-2572,-9,16,-9,1
20987,2135,-7364,-2576,-9,10,-9,1
20991,2237,-7362,-2604,-9,5,-9,1
20996,2317,-7353,-2659,-9,0,-10,1
21001,2367,-7345,-2730,-9,-4,-10,1
21006,2395,-7325,-2815,-9,-8,-10,1
21012,2409,-7304,-2911,-9,-10,-10,1
21018,2414,-7303,-3018,-9,-10,-10,1
21023,2419,-7293,-3103,-9,-10,-10,1
21029,2425,-7284,-3160,-9,-10,-10,1
21035,2438,-7289,-3201,-9,-10,-9,1
21039,2450,-7293,-3215,-9,-10,-9,1
21045,2451,-7293,-3211,-9,-10,-9,1
21050,2445,-7284,-3207,-9,-8,-9,1
21055,2446,-7261,-3202,-9,-6,-9,1
21060,2478,-7243,-3208,-9,-3,-8,1
21065,2489,-7237,-3268,-9,-2,-8,1
21070,2574,-7252,-3342,-10,-2,-7,1
21076,2970,-7236,-3360,-9,1,-8,1
21080,3284,-7216,-3384,-9,7,-8,1
21084,3621,-7186,-3378,-9,9,-9,1
21089,3894,-7126,-3346,-8,9,-9,1
21094,4022,-7095,-3363,-8,3,-9,1
21099,4096,-7036,-3375,-8,-6,-9,1
21105,4076,-7014,-3425,-8,-15,-8,1
21110,4030,-7060,-3492,-8,-22,-8,1
21115,3958,-7073,-3494,-8,-24,-7,1
21120,3894,-7051,-3526,-8,-24,-7,1
21124,3870,-7063,-3549,-8,-21,-6,1
21129,3849,-7097,-3568,-8,-18,-6,1
21134,3825,-7086,-3564,-8,-16,-6,1
21140,3810,-7021,-3559,-8,-18,-6,1
21145,3805,-6998,-3580,-8,-21,-6,1
21151,3768,-6975,-3552,-8,-24,-6,1
21156,3722,-6919,-3547,-8,-28,-6,1
21162,3658,-6837,-3550,-8,-31,-6,1
21167,3579,-6764,-3561,-8,-34,-6,1
21172,3499,-6701,-3576,-9,-38,-6,1
21178,3399,-6611,-3554,-9,-41,-7,1
21182,3316,-6496,-3556,-10,-43,-7,1
21186,3236,-6385,-3541,-10,-44,-7,1
21191,3171,-6319,-3545,-11,-43,-7,1
21195,3085,-6301,-3517,-11,-40,-8,1
21199,3012,-6289,-3527,-12,-38,-8,1
21204,2959,-6267,-3537,-12,-37,-8,1
21208,2937,-6268,-3567,-13,-36,-8,1
21212,2953,-6261,-3592,-13,-36,-8,1
21217,2963,-6227,-3671,-13,-37,-8,1
21222,2975,-6196,-3774,-13,-38,-8,1
21226,2990,-6211,-3857,-14,-38,-8,1
21230,2974,-6326,-3933,-14,-37,-8,1
21234,2950,-6536,-3944,-15,-33,-7,1
21238,2901,-6738,-3905,-15,-26,-7,1
21243,2885,-6761,-3855,-14,-18,-7,1
21248,2875,-6613,-3859,-15,-11,-7,1
21253,2879,-6467,-3861,-15,-5,-7,1
21258,2858,-6422,-3838,-15,-1,-6,1
21263,2854,-6470,-3764,-16,3,-6,1
21268,2841,-6548,-3671,-16,8,-6,1
21273,2879,-6608,-3644,-16,9,-7,1
21278,2918,-6641,-3688,-16,5,-7,1
21283,2955,-6651,-3806,-16,-5,-7,1
21288,2976,-6654,-3959,-16,-20,-6,1
21293,2989,-6727,-4177,-15,-34,-6,1
21298,2970,-6900,-4304,-15,-43,-6,1
21303,2912,-7168,-4427,-14,-43,-6,1
21308,2811,-7392,-4494,-14,-35,-6,1
21313,2708,-7500,-4521,-13,-24,-6,1
21319,2626,-7513,-4483,-13,-13,-5,1
21324,2587,-7480,-4416,-13,-3,-5,1
21329,2548,-7433,-4336,-12,7,-4,1
21334,2512,-7427,-4273,-12,15,-3,1
21338,2440,-7509,-4212,-12,22,-3,1
21343,2359,-7652,-4152,-11,27,-2,1
21348,2341,-7769,-4066,-11,32,-2,1
21354,2361,-7825,-4015,-11,36,-2,1
21358,2407,-7834,-3981,-10,36,-2,1
21363,2429,-7832,-3956,-10,31,-2,1
21368,2439,-7841,-3928,-9,25,-2,1
21373,2448,-7857,-3877,-9,21,-2,1
21378,2456,-7876,-3860,-8,21,-2,1
21383,2454,-7897,-3846,-7,24,-2,1
21388,2469,-7902,-3855,-7,28,-2,1
21393,2493,-7885,-3877,-6,33,-2,1
21398,2541,-7857,-3914,-6,35,-2,1
21403,2638,-7807,-3912,-5,36,-2,1
21408,2741,-7716,-3916,-5,35,-2,1
21413,2824,-7606,-3959,-4,31,-2,1
21418,2899,-7506,-4007,-4,27,-2,1
21423,2960,-7412,-4060,-4,23,-2,1
21428,2999,-7320,-4106,-4,19,-2,1
21433,3027,-7237,-4144,-4,15,-3,1
21438,3042,-7164,-4171,-4,13,-3,1
21443,3047,-7110,-4180,-4,10,-3,1
21448,3057,-7077,-4185,-3,7,-3,1
21453,3078,-7052,-4193,-3,4,-3,1
21458,3103,-7036,-4202,-3,1,-2,1
21463,3127,-7024,-4210,-3,-2,-2,1
21468,3149,-7016,-4206,-3,-5,-2,1
21473,3168,-7003,-4190,-3,-8,-2,1
21478,3182,-6991,-4162,-3,-10,-2,1
21483,3199,-6978,-4131,-3,-11,-2,1
21488,3206,-6968,-4104,-3,-12,-2,1
21493,3190,-6956,-4091,-2,-12,-2,1
21499,3158,-6935,-4086,-2,-12,-2,1
21504,3112,-6907,-4082,-2,-13,-2,1
21508,3061,-6877,-4085,-2,-13,-2,1
21514,3005,-6851,-4083,-2,-12,-3,1
21519,2944,-6840,-4069,-3,-9,-3,1
21523,2878,-6838,-4047,-3,-7,-3,1
21527,2821,-6841,-4023,-3,-4,-3,1
21532,2776,-6846,-4004,-3,-3,-3,1
21537,2760,-6856,-3978,-3,-2,-2,1
21542,2771,-6865,-3946,-3,1,-2,1
21548,2795,-6865,-3919,-3,6,-2,1
21552,2836,-6858,-3894,-3,12,-2,1
21557,2892,-6850,-3873,-3,17,-2,1
21562,2964,-6841,-3864,-3,22,-2,1
21567,3040,-6835,-3863,-3,24,-2,1
21572,3113,-6833,-3874,-3,25,-2,1
21577,3175,-6834,-3900,-3,24,-2,1
21582,3216,-6837,-3932,-3,20,-2,1
21587,3235,-6840,-3971,-3,14,-2,1
21592,3244,-6845,-4010,-3,7,-2,1
21597,3240,-6846,-4045,-3,1,-2,1
21602,3230,-6841,-4075,-2,-2,-2,1
21607,3216,-6827,-4090,-2,-4,-2,1
21612,3206,-6815,-4101,-2,-5,-2,1
21617,3205,-6816,-4112,-2,-6,-2,1
21622,3217,-6824,-4111,-2,-5,-2,1
21627,3236,-6839,-4118,-2,-4,-2,1
21632,3244,-6843,-4117,-2,-3,-2,1
21637,3245,-6839,-4122,-2,-2,-2,1
21642,3240,-6823,-4125,-2,0,-2,1
21647,3243,-6801,-4125,-2,2,-2,1
21652,3272,-6771,-4101,-2,3,-2,1
21657,3311,-6721,-4040,-2,2,-1,1
21662,3371,-6663,-4010,-2,0,-1,1
21667,3426,-6635,-3992,-2,-1,-2,1
21672,3457,-6650,-3978,-3,-3,-2,1
21677,3466,-6676,-3970,-3,-7,-2,1
21682,3467,-6692,-3983,-3,-12,-2,1
21687,3464,-6708,-4018,-3,-17,-2,1
21692,3457,-6726,-4078,-3,-21,-2,1
21697,3461,-6761,-4163,-2,-23,-2,1
21702,3487,-6797,-4244,-2,-22,-1,1
21707,3533,-6820,-4341,-2,-21,-1,1
21712,3638,-6829,-4467,-1,-20,0,1
21717,3792,-6842,-4620,-1,-20,0,1
21722,3974,-6870,-4800,0,-23,1,1
21727,4151,-6903,-4971,1,-27,1,1
21732,4322,-6925,-5107,1,-34,2,1
21737,4293,-6987,-5010,2,-44,2,1
21742,3725,-7046,-4304,-3,-65,-4,1
21747,3739,-7064,-4803,-9,-89,-9,1
21753,3291,-6970,-4249,-8,-92,-9,1
21758,2662,-6907,-3787,-6,-97,-8,1
21763,2435,-6934,-3723,-5,-88,-8,1
21769,2164,-7037,-3611,-3,-62,-7,1
21774,1990,-7094,-3950,-5,-46,-6,1
21780,1944,-7065,-4104,-6,-35,-5,1
21785,2014,-7002,-4312,-7,-29,-5,1
21790,2098,-6951,-4266,-7,-23,-5,1
21795,2201,-6934,-4292,-7,-21,-5,1
21801,2247,-6926,-4264,-7,-20,-4,1
21806,2257,-6914,-4322,-8,-23,-4,1
21812,2246,-6906,-4392,-8,-26,-4,1
21817,2190,-6894,-4441,-9,-25,-4,1
21822,2115,-6875,-4445,-10,-22,-4,1
21827,2099,-6865,-4437,-10,-19,-4,1
21832,2097,-6857,-4491,-11,-16,-3,1
21837,2125,-6860,-4535,-11,-16,-3,1
21842,2176,-6871,-4655,-12,-14,-3,1
21846,2210,-6875,-4699,-13,-13,-3,1
21852,2213,-6873,-4751,-13,-13,-3,1
21856,2223,-6863,-4770,-14,-13,-2,1
21861,2202,-6848,-4819,-14,-13,-2,1
21867,2182,-6824,-4851,-15,-15,-2,1
21873,2186,-6814,-4907,-15,-15,-2,1
21878,2157,-6796,-4914,-16,-16,-1,1
21883,2139,-6770,-4932,-16,-18,-1,1
21889,2138,-6749,-4946,-17,-17,-1,1
21894,2108,-6733,-4972,-18,-18,-1,1
21899,2083,-6712,-5024,-18,-19,-1,1
21905,2065,-6695,-5081,-19,-19,-1,1
21910,1997,-6677,-5107,-19,-20,0,1
21914,1944,-6662,-5140,-20,-21,0,1
21919,1909,-6666,-5140,-20,-21,0,1
21924,1856,-6664,-5152,-21,-21,1,1
21929,1870,-6662,-5162,-22,-21,1,1
21935,1930,-6660,-5167,-22,-20,1,1
21940,1979,-6649,-5181,-23,-21,2,1
21945,2068,-6630,-5199,-24,-23,2,1
21951,2088,-6606,-5208,-25,-25,3,1
21956,2056,-6576,-5220,-25,-26,3,1
21961,2017,-6562,-5254,-26,-26,4,1
21966,1943,-6562,-5292,-27,-27,4,1
21970,1881,-6567,-5329,-27,-27,5,1
21976,1850,-6576,-5378,-28,-26,5,1
21980,1839,-6586,-5406,-29,-26,5,1
21986,1852,-6594,-5433,-29,-28,6,1
21991,1856,-6609,-5473,-30,-30,6,1
21996,1825,-6629,-5528,-30,-31,6,1
22002,1778,-6644,-5588,-31,-30,7,1
22007,1720,-6652,-5641,-31,-28,7,1
22012,1657,-6646,-5662,-32,-25,8,1
22018,1617,-6640,-5676,-32,-21,8,1
22022,1605,-6635,-5696,-33,-18,9,1
22028,1602,-6616,-5713,-33,-18,9,1
22033,1622,-6571,-5734,-34,-20,10,1
22038,1610,-6534,-5745,-34,-25,10,1
22043,1546,-6529,-5728,-34,-27,10,1
22049,1490,-6524,-5717,-35,-25,11,1
22054,1445,-6490,-5715,-35,-23,11,1
22058,1379,-6430,-5741,-35,-22,11,1
22064,1304,-6373,-5801,-35,-19,12,1
22069,1249,-6322,-5855,-36,-16,12,1
22074,1195,-6236,-5864,-36,-14,12,1
22079,1155,-6115,-5858,-36,-8,12,1
22084,1070,-6001,-5881,-36,1,12,1
22088,975,-5917,-5935,-36,6,12,1
22091,879,-5826,-5992,-36,9,12,1
22095,808,-5721,-5998,-36,16,11,1
22099,792,-5648,-5957,-36,25,11,1
22103,853,-5639,-5904,-36,26,11,1
22108,951,-5681,-5858,-36,18,11,1
22112,1072,-5745,-5849,-35,10,11,1
22118,1174,-5826,-5851,-35,6,10,1
22123,1210,-5935,-5813,-35,3,10,1
22129,1187,-6067,-5735,-35,-1,11,1
22134,1151,-6196,-5651,-35,-2,11,1
22140,1138,-6303,-5575,-34,-2,11,1
22145,1162,-6397,-5514,-34,-4,12,1
22150,1224,-6487,-5485,-34,-4,13,1
22155,1313,-6562,-5460,-34,-4,14,1
22159,1407,-6614,-5446,-33,-6,15,1
22165,1507,-6647,-5416,-33,-8,16,1
22170,1587,-6666,-5375,-32,-11,16,1
22175,1634,-6671,-5336,-32,-15,17,1
22179,1629,-6666,-5306,-31,-18,18,1
22184,1599,-6647,-5285,-30,-20,19,1
22189,1569,-6615,-5282,-29,-21,20,1
22194,1548,-6574,-5287,-29,-20,21,1
22200,1556,-6529,-5293,-28,-18,22,1
22204,1586,-6477,-5294,-27,-16,22,1
22209,1604,-6415,-5269,-26,-15,23,1
22214,1605,-6344,-5229,-25,-14,24,1
22219,1587,-6262,-5182,-25,-15,24,1
22224,1553,-6179,-5133,-24,-15,25,1
22228,1534,-6103,-5085,-23,-16,25,1
22234,1528,-6035,-5043,-22,-17,26,1
22239,1529,-5977,-5009,-21,-17,26,1
22243,1541,-5926,-4969,-20,-16,27,1
22249,1543,-5876,-4937,-20,-15,27,1
22253,1531,-5834,-4909,-19,-14,28,1
22258,1512,-5794,-4895,-18,-12,28,1
22263,1483,-5759,-4886,-17,-11,28,1
22267,1456,-5730,-4883,-16,-11,29,1
22273,1440,-5703,-4877,-15,-10,29,1
22277,1434,-5683,-4863,-14,-8,29,1
22282,1436,-5666,-4843,-13,-6,29,1
22288,1438,-5654,-4827,-12,-4,30,1
22293,1431,-5645,-4819,-12,-3,30,1
22298,1422,-5639,-4808,-11,-3,30,1
22302,1417,-5629,-4790,-10,-2,30,1
22306,1412,-5617,-4771,-9,-1,30,1
22310,1405,-5610,-4760,-8,-1,30,1
22314,1401,-5603,-4766,-7,1,30,1
22318,1399,-5588,-4787,-7,2,30,1
22322,1393,-5574,-4814,-6,2,30,1
22327,1391,-5562,-4831,-5,2,30,1
22332,1386,-5551,-4834,-4,1,29,1
22337,1359,-5537,-4833,-3,1,29,1
22342,1318,-5533,-4834,-2,1,29,1
22347,1287,-5530,-4850,-2,2,29,1
22352,1278,-5534,-4874,-1,4,29,1
22357,1288,-5543,-4894,0,7,28,1
22362,1309,-5555,-4906,0,10,28,1
22367,1332,-5576,-4902,1,12,28,1
22372,1344,-5602,-4891,2,13,27,1
22377,1351,-5637,-4886,2,13,27,1
22382,1361,-5679,-4885,3,13,27,1
22387,1378,-5722,-4890,3,13,26,1
22392,1396,-5761,-4899,4,12,26,1
22397,1411,-5797,-4907,4,12,25,1
22402,1420,-5829,-4915,5,12,25,1
22407,1428,-5864,-4924,5,12,24,1
22412,1440,-5899,-4929,6,11,24,1
22417,1465,-5930,-4934,6,11,23,1
22422,1498,-5958,-4938,7,10,23,1
22427,1533,-5981,-4938,7,8,22,1
22432,1553,-6001,-4941,8,7,22,1
22437,1561,-6014,-4951,8,7,21,1
22442,1560,-6027,-4977,8,7,21,1
22447,1557,-6042,-5000,9,7,20,1
22452,1555,-6055,-5018,9,6,20,1
22457,1558,-6062,-5023,10,6,19,1
22462,1559,-6067,-5030,10,5,19,1
22467,1562,-6077,-5050,11,3,18,1
22472,1558,-6090,-5082,11,1,18,1
22477,1547,-6103,-5116,12,0,17,1
22482,1537,-6113,-5141,12,-1,17,1
22487,1521,-6118,-5161,13,-1,16,1
22492,1491,-6121,-5179,13,-1,16,1
22497,1455,-6123,-5205,14,0,16,1
22502,1418,-6123,-5245,14,2,15,1
22507,1387,-6123,-5288,15,3,15,1
22512,1367,-6122,-5320,15,5,15,1
22517,1351,-6120,-5339,16,7,15,1
22522,1332,-6121,-5355,16,8,14,1
22527,1304,-6124,-5379,17,9,14,1
22532,1274,-6124,-5407,17,11,14,1
22537,1250,-6120,-5426,18,14,14,1
22541,1238,-6115,-5429,18,17,14,1
22546,1231,-6110,-5417,19,18,13,1
22552,1222,-6100,-5399,19,18,13,1
22557,1212,-6087,-5385,20,18,13,1
22562,1200,-6069,-5373,20,18,13,1
22567,1189,-6047,-5367,21,19,13,1
22572,1176,-6026,-5357,21,20,13,1
22577,1161,-6009,-5342,22,20,12,1
22582,1141,-5993,-5319,22,20,12,1
22587,1118,-5978,-5295,22,21,12,1
22592,1097,-5972,-5273,22,21,12,1
22597,1082,-5969,-5256,23,23,12,1
22602,1068,-5973,-5251,23,24,12,1
22607,1052,-5992,-5252,23,24,12,1
22611,1036,-6028,-5257,24,25,11,1
22617,1026,-6086,-5272,24,25,11,1
22622,1033,-6155,-5284,24,26,11,1
22627,1058,-6230,-5290,25,27,11,1
22632,1093,-6310,-5293,25,28,11,1
22637,1118,-6393,-5309,25,28,11,1
22641,1130,-6463,-5326,26,26,11,1
22647,1131,-6515,-5345,26,25,11,1
22652,1134,-6550,-5353,26,23,11,1
22657,1145,-6576,-5352,26,20,11,1
22662,1164,-6589,-5350,26,17,11,1
22666,1182,-6600,-5356,26,16,11,1
22671,1193,-6610,-5386,27,17,10,1
22676,1185,-6625,-5427,27,19,10,1
22681,1165,-6642,-5471,26,21,10,1
22686,1086,-7626,-5460,27,28,9,1
22691,464,-8094,-3000,35,36,13,1
22696,1081,-8034,-4912,1,29,-1,1
22702,2957,-7622,-6550,-5,42,-4,1
22706,4166,-7760,-7954,-4,4,-1,1
22712,4487,-7772,-9158,-11,-47,0,1
22717,4892,-7369,-10190,-17,-52,-2,1
22721,5181,-7147,-10432,-5,-38,1,1
22726,4061,-7383,-7645,-9,-44,1,1
22732,3108,-7459,-6406,-25,-51,-8,1
22736,2541,-7142,-5843,-24,-26,-9,1
22741,1303,-6920,-3515,-17,-22,-6,1
22746,804,-6921,-3716,-12,-25,-4,1
22751,1136,-6785,-4350,-9,1,-5,1
22756,1562,-6584,-5035,-10,-14,-5,1
22761,1823,-6513,-5689,-11,-25,-5,1
22766,1906,-6495,-6160,-12,-23,-7,1
22771,1855,-6475,-6379,-14,-12,-9,1
22776,1909,-6415,-6555,-16,-5,-10,1
22781,1739,-6379,-6149,-15,-6,-9,1
22786,1099,-6395,-5248,-11,-9,-8,1
22791,816,-6423,-4910,-8,-2,-8,1
22796,826,-6422,-5142,-6,11,-7,1
22801,1165,-6403,-5775,-7,5,-7,1
22806,1644,-6396,-6209,-8,2,-8,1
22811,1807,-6435,-6325,-8,-2,-9,1
22816,1618,-6499,-5952,-8,-3,-9,1
22821,1390,-6554,-5576,-6,9,-9,1
22826,1153,-6605,-5433,-4,19,-8,1
22831,1149,-6631,-5621,-3,20,-8,1
22836,1403,-6629,-5930,-4,19,-8,1
22841,1651,-6634,-6128,-4,12,-8,1
22846,1788,-6653,-6034,-4,7,-9,1
22851,1803,-6683,-5815,-4,10,-9,1
22856,1637,-6711,-5644,-3,15,-9,1
22861,1517,-6714,-5652,-2,17,-9,1
22866,1525,-6689,-5798,-2,19,-9,1
22871,1576,-6659,-5918,-2,15,-9,1
22876,1707,-6629,-5871,-2,12,-10,1
22881,1823,-6619,-5726,-2,13,-11,1
22886,1825,-6627,-5567,-2,13,-11,1
22891,1814,-6622,-5515,-1,13,-12,1
22896,1786,-6607,-5582,-1,12,-12,1
22901,1740,-6585,-5677,-2,7,-12,1
22906,1765,-6557,-5668,-2,4,-13,1
22911,1815,-6543,-5575,-2,5,-13,1
22916,1863,-6537,-5456,-2,5,-14,1
22921,1920,-6526,-5391,-1,6,-15,1
22926,1924,-6515,-5429,-1,5,-15,1
22931,1891,-6500,-5509,-2,1,-16,1
22936,1868,-6481,-5524,-2,-2,-16,1
22941,1835,-6467,-5462,-2,-2,-17,0
22946,1834,-6461,-5370,-2,-3,-18,0
22951,1879,-6450,-5304,-2,-1,-18,0
22956,1906,-6446,-5325,-2,-2,-19,0
22961,1906,-6445,-5387,-2,-4,-20,0
22967,1884,-6444,-5415,-3,-5,-21,0
22972,1836,-6455,-5390,-3,-4,-21,0
22978,1815,-6472,-5324,-3,-3,-22,0
22984,1839,-6491,-5243,-3,0,-22,0
22989,1890,-6508,-5224,-3,0,-23,0
22995,1952,-6521,-5230,-3,-2,-24,0
23000,1986,-6531,-5234,-4,-6,-24,0
23006,1985,-6544,-5225,-4,-9,-25,0
23011,1973,-6553,-5180,-4,-10,-25,0
23016,1977,-6555,-5121,-5,-10,-25,0
23021,2006,-6557,-5109,-5,-10,-26,0
23026,2049,-6548,-5123,-5,-12,-26,0
23032,2082,-6533,-5152,-5,-15,-27,0
23038,2093,-6523,-5183,-6,-18,-27,0
23042,2073,-6511,-5174,-6,-20,-28,0
23047,2056,-6498,-5148,-6,-21,-28,0
23051,2054,-6487,-5148,-6,-20,-28,0
23057,2056,-6475,-5161,-6,-20,-29,0
23062,2067,-6467,-5191,-6,-21,-29,0
23068,2075,-6459,-5239,-7,-22,-30,0
23072,2059,-6448,-5250,-7,-22,-30,0
23077,2045,-6439,-5254,-7,-21,-30,0
23082,2037,-6426,-5260,-7,-21,-31,0
23088,2031,-6407,-5269,-7,-20,-31,0
23092,2038,-6388,-5292,-7,-20,-31,0
23097,2048,-6371,-5325,-7,-20,-32,0
23102,2057,-6356,-5341,-7,-20,-32,0
23106,2073,-6342,-5353,-7,-20,-32,0
23110,2084,-6329,-5356,-7,-20,-33,0
23115,2087,-6318,-5352,-7,-21,-33,0
23120,2096,-6309,-5366,-7,-21,-34,0
23125,2104,-6302,-5390,-7,-21,-34,0
23130,2107,-6291,-5404,-7,-21,-34,0
23135,2117,-6287,-5417,-6,-20,-34,0
23140,2122,-6285,-5426,-6,-20,-35,0
23145,2113,-6283,-5428,-6,-20,-35,0
23150,2107,-6284,-5451,-6,-19,-35,0
23155,2102,-6282,-5480,-5,-19,-35,0
23160,2101,-6278,-5503,-5,-19,-35,0
23165,2105,-6266,-5527,-5,-18,-36,0
23170,2100,-6249,-5543,-4,-17,-36,0
23174,2083,-6233,-5544,-4,-16,-36,0
23180,2078,-6213,-5558,-3,-15,-36,0
23185,2068,-6188,-5570,-3,-14,-36,0
23191,2053,-6163,-5577,-2,-14,-36,0
23196,2052,-6138,-5588,-2,-14,-36,0
23201,2051,-6115,-5580,-1,-14,-36,0
23206,2050,-6096,-5565,-1,-14,-36,0
23212,2053,-6081,-5556,0,-14,-36,0
23216,2040,-6063,-5538,0,-14,-36,0
23221,2021,-6050,-5528,1,-14,-36,0
23226,2011,-6039,-5523,1,-13,-36,0
23231,1999,-6032,-5493,1,-11,-36,0
23237,2009,-6030,-5459,2,-10,-35,0
23241,2032,-6031,-5440,2,-9,-35,0
23246,2038,-6033,-5419,3,-9,-35,0
23251,2046,-6030,-5416,3,-9,-35,0
23256,2044,-6019,-5419,3,-8,-35,0
23261,2021,-6004,-5403,4,-9,-35,0
23267,2018,-5985,-5381,4,-9,-35,0
23272,2014,-5962,-5362,4,-9,-35,0
23276,1999,-5939,-5342,5,-10,-34,0
23282,2001,-5915,-5342,5,-10,-34,0
23288,1995,-5890,-5336,5,-10,-34,0
23292,1981,-5871,-5320,6,-11,-34,0
23297,1978,-5857,-5306,6,-11,-34,0
23302,1972,-5846,-5285,6,-10,-34,0
23307,1975,-5833,-5258,6,-9,-34,0
23313,1994,-5824,-5241,7,-8,-34,0
23318,1996,-5809,-5223,7,-8,-34,0
23323,1998,-5785,-5207,7,-9,-34,0
23327,2004,-5760,-5199,7,-9,-34,0
23332,1991,-5734,-5183,7,-9,-34,0
23337,1984,-5705,-5166,7,-10,-34,0
23342,1984,-5676,-5153,8,-11,-34,0
23347,1978,-5649,-5138,8,-13,-33,0
23352,1985,-5622,-5132,8,-14,-34,0
23357,2004,-5598,-5133,8,-14,-34,0
23362,2016,-5580,-5123,8,-15,-34,0
23367,2028,-5567,-5115,9,-16,-34,0
23371,2034,-5565,-5112,9,-16,-33,0
23375,2038,-5570,-5106,9,-17,-33,0
23380,2062,-5578,-5100,9,-17,-33,0
23385,2090,-5587,-5092,9,-16,-33,0
23391,2113,-5602,-5081,9,-17,-33,0
23396,2139,-5614,-5061,9,-17,-33,0
23401,2151,-5634,-5042,9,-18,-32,0
23405,2150,-5665,-5032,10,-19,-32,0
23410,2161,-5694,-5034,10,-20,-32,0
23414,2173,-5715,-5042,10,-20,-31,0
23418,2186,-5735,-5043,10,-21,-31,0
23422,2196,-5751,-5035,10,-22,-31,0
23426,2186,-5766,-5027,10,-23,-30,0
23431,2168,-5776,-5023,11,-24,-30,0
23436,2156,-5777,-5029,11,-24,-30,0
23441,2138,-5776,-5036,11,-25,-30,0
23446,2136,-5773,-5036,11,-24,-29,0
23451,2140,-5766,-5034,11,-24,-29,0
23456,2129,-5761,-5020,11,-24,-29,0
23461,2121,-5758,-4997,12,-24,-29,0
23466,2118,-5757,-4975,12,-24,-29,0
23471,2111,-5758,-4947,12,-25,-28,0
23476,2107,-5763,-4926,12,-26,-28,0
23481,2113,-5767,-4912,12,-26,-28,0
23486,2103,-5769,-4911,12,-26,-28,0
23491,2090,-5770,-4923,12,-25,-28,0
23496,2071,-5773,-4938,13,-23,-27,0
23501,2042,-5780,-4942,13,-22,-27,0
23506,2028,-5786,-4949,13,-21,-27,0
23511,2026,-5794,-4956,13,-20,-27,0
23516,2031,-5797,-4958,14,-20,-27,0
23521,2050,-5801,-4964,14,-20,-26,0
23526,2056,-5807,-4967,14,-21,-26,0
23531,2038,-5812,-4966,15,-21,-26,0
23536,2021,-5815,-4965,15,-21,-26,0
23541,1997,-5822,-4964,15,-20,-26,0
23546,1980,-5833,-4972,15,-19,-25,0
23551,1980,-5856,-4977,16,-18,-25,0
23556,1983,-5891,-4982,16,-17,-25,0
23561,2000,-5933,-4997,16,-16,-24,0
23566,2029,-5979,-5016,17,-15,-24,0
23571,2050,-6025,-5033,17,-16,-23,0
23576,2068,-6071,-5044,18,-16,-23,0
23581,2082,-6111,-5053,18,-15,-23,0
23586,2085,-6147,-5063,18,-15,-22,0
23591,2096,-6171,-5072,19,-15,-21,0
23596,2110,-6185,-5077,19,-14,-21,0
23601,2119,-6193,-5081,19,-15,-20,0
23606,2131,-6193,-5072,20,-17,-20,0
23611,2131,-6187,-5059,20,-18,-20,0
23616,2110,-6178,-5052,20,-19,-19,0
23621,2089,-6166,-5056,21,-19,-19,0
23626,2067,-6157,-5057,21,-18,-18,0
23631,2058,-6143,-5053,21,-16,-18,0
23636,2061,-6133,-5037,21,-14,-18,0
23641,2063,-6126,-5008,21,-12,-17,0
23646,2069,-6123,-4982,21,-11,-17,0
23651,2074,-6122,-4957,21,-10,-16,0
23656,2077,-6123,-4937,21,-11,-16,0
23661,2079,-6126,-4913,21,-12,-15,0
23666,2083,-6130,-4883,21,-12,-15,0
23671,2086,-6141,-4858,21,-13,-14,0
23676,2088,-6153,-4844,21,-14,-14,0
23681,2092,-6166,-4838,21,-14,-13,0
23686,2088,-6186,-4839,21,-15,-13,0
23691,2085,-6210,-4832,21,-17,-12,0
23696,2077,-6232,-4824,21,-18,-12,0
23701,2070,-6260,-4813,21,-19,-12,0
23706,2070,-6287,-4803,21,-20,-11,0
23711,2068,-6310,-4793,21,-20,-11,0
23716,2054,-6334,-4784,20,-20,-10,0
23721,2035,-6358,-4784,20,-19,-10,0
23725,2018,-6382,-4789,20,-19,-9,0
23731,2013,-6406,-4785,20,-18,-9,0
23736,2018,-6428,-4779,20,-17,-8,0
23741,2031,-6450,-4773,20,-17,-8,0
23745,2035,-6470,-4767,20,-17,-7,0
23751,2036,-6484,-4764,20,-17,-7,0
23755,2037,-6496,-4758,20,-17,-7,0
23760,2039,-6507,-4748,20,-18,-6,0
23765,2047,-6513,-4728,20,-18,-6,0
23770,2046,-6516,-4713,20,-19,-6,0
23775,2028,-6519,-4715,20,-19,-5,0
23781,2006,-6525,-4730,20,-19,-5,0
23786,1990,-6533,-4742,21,-18,-5,0
23791,1986,-6544,-4746,21,-17,-4,0
23796,1994,-6557,-4740,21,-16,-4,0
23801,2000,-6568,-4737,21,-15,-4,0
23806,2000,-6579,-4744,22,-15,-3,0
23811,2010,-6669,-4761,22,-15,-3,0
23816,2076,-7370,-4395,23,-21,-2,0
23822,2355,-7712,-2860,29,-29,-2,0
23827,2526,-7746,-4102,4,-12,4,0
23831,2633,-7664,-5856,-3,-18,-4,0
23836,3422,-7761,-7359,-1,-38,-7,0
23841,3896,-7742,-8305,-8,-68,-5,0
23847,4111,-7436,-8786,-13,-87,-4,0
23852,4313,-7190,-8611,-10,-71,-2,0
23858,3641,-7213,-7334,-6,-61,-5,0
23863,3428,-7178,-6729,-12,-55,-11,0
23867,2983,-6993,-6170,-13,-22,-11,0
23872,2335,-6785,-5411,-10,-29,-10,0
23877,2068,-6679,-5246,-7,-22,-9,0
23882,1728,-6599,-5215,-5,-19,-7,0
23887,1663,-6479,-5186,-3,-27,-7,0
23892,1717,-6371,-5275,-2,-21,-7,0
23897,2024,-6316,-5391,0,-17,-7,0
23901,2069,-6299,-5395,1,-8,-7,0
23906,1921,-6302,-5356,2,-6,-7,0
23911,1756,-6374,-5216,4,5,-7,0
23916,1652,-6537,-5045,5,9,-6,0
23921,1723,-6630,-5248,5,6,-5,0
23925,1948,-6628,-5432,5,6,-4,0
23930,2056,-6663,-5666,4,-1,-3,0
23935,2137,-6713,-5913,3,-7,-3,0
23940,2298,-6740,-6146,1,-1,-3,0
23945,2407,-6742,-6198,1,3,-4,0
23950,2486,-6756,-6163,0,2,-4,0
23955,2507,-6789,-6157,-1,6,-4,0
23960,2447,-6801,-6161,-2,7,-3,0
23965,2416,-6789,-6254,-2,7,-3,0
23970,2313,-6744,-6447,-2,9,-3,0
23975,2160,-6723,-6252,1,9,-5,0
23980,2101,-6722,-5982,1,12,-4,0
23985,2118,-6747,-5720,1,21,-4,0
23990,2218,-6757,-5600,1,25,-2,0
23995,2306,-6739,-5694,1,29,-1,0
24000,2341,-6703,-5591,1,29,-1,0
24005,2382,-6689,-5573,1,28,-1,0
24010,2325,-6691,-5492,1,27,0,0
24015,2218,-6684,-5514,1,25,0,0
24020,2118,-6664,-5497,1,26,1,0
24025,2061,-6653,-5530,0,26,2,0
24030,1997,-6642,-5487,-1,26,2,0
24035,2020,-6622,-5466,-1,26,3,0
24040,2061,-6603,-5406,-2,26,3,0
24045,2085,-6591,-5381,-2,24,3,0
24050,2100,-6581,-5360,-3,22,4,0
24055,2083,-6574,-5362,-4,21,4,0
24060,2050,-6563,-5354,-5,19,4,0
24065,2040,-6549,-5352,-6,19,5,0
24070,2029,-6536,-5318,-7,19,5,0
24075,2051,-6525,-5298,-8,18,5,0
24080,2079,-6516,-5283,-9,17,5,0
24085,2085,-6508,-5293,-9,14,6,0
24090,2094,-6496,-5310,-10,11,6,0
24095,2090,-6485,-5307,-12,9,6,0
24100,2070,-6486,-5295,-12,7,6,0
24105,2068,-6489,-5286,-13,6,6,0
24110,2061,-6491,-5271,-14,6,6,0
24115,2060,-6491,-5282,-15,6,6,0
24120,2079,-6493,-5308,-16,6,7,0
24125,2082,-6494,-5328,-17,6,7,0
24130,2086,-6498,-5355,-18,5,7,0
24135,2092,-6504,-5366,-18,5,7,0
24140,2085,-6516,-5364,-19,5,7,0
24145,2093,-6521,-5376,-20,5,8,0
24150,2106,-6525,-5384,-20,5,8,0
24155,2120,-6531,-5391,-21,4,8,0
24160,2144,-6540,-5410,-22,4,8,0
24165,2146,-6545,-5410,-22,2,9,0
24170,2153,-6547,-5401,-23,1,9,0
24175,2162,-6548,-5397,-23,2,9,0
24180,2153,-6546,-5388,-24,2,10,0
24185,2159,-6538,-5394,-24,3,10,0
24190,2166,-6530,-5400,-25,4,10,0
24195,2158,-6521,-5397,-25,4,11,0
24200,2167,-6508,-5393,-26,5,11,0
24205,2171,-6495,-5381,-26,5,12,0
24210,2181,-6480,-5364,-26,6,12,0
24215,2205,-6468,-5352,-26,7,13,0
24220,2212,-6454,-5341,-27,6,13,0
24225,2217,-6442,-5338,-27,5,14,0
24230,2222,-6430,-5330,-27,5,14,0
24235,2219,-6423,-5320,-27,4,15,0
24240,2233,-6415,-5313,-27,4,15,0
24245,2244,-6408,-5305,-27,6,16,0
24250,2238,-6398,-5297,-27,7,16,0
24255,2230,-6389,-5312,-28,8,17,0
24260,2207,-6384,-5317,-28,9,17,0
24265,2188,-6381,-5311,-28,10,18,0
24270,2201,-6380,-5294,-28,11,18,0
24275,2216,-6375,-5273,-27,12,19,0
24280,2230,-6371,-5264,-27,12,19,0
24285,2240,-6364,-5280,-27,12,20,0
24290,2219,-6361,-5300,-27,11,20,0
24295,2198,-6359,-5316,-27,10,21,0
24300,2193,-6356,-5308,-27,12,21,0
24306,2198,-6354,-5284,-27,14,22,0
24310,2223,-6351,-5261,-26,16,22,0
24316,2242,-6343,-5243,-26,17,22,0
24321,2243,-6335,-5237,-26,16,23,0
24325,2242,-6321,-5230,-26,16,23,0
24331,2224,-6304,-5208,-26,15,24,0
24336,2219,-6287,-5178,-26,14,24,0
24340,2235,-6262,-5141,-25,15,24,0
24345,2237,-6233,-5107,-25,15,25,0
24350,2239,-6200,-5093,-25,15,25,0
24355,2236,-6170,-5069,-25,15,25,0
24360,2225,-6139,-5043,-25,14,25,0
24365,2223,-6109,-5017,-24,12,25,0
24370,2223,-6087,-4984,-24,11,25,0
24375,2217,-6060,-4949,-24,9,26,0
24380,2219,-6035,-4941,-24,9,26,0
24385,2212,-6017,-4931,-24,9,26,0
24390,2212,-6002,-4936,-23,10,26,0
24395,2217,-5996,-4935,-23,11,26,0
24400,2224,-5994,-4929,-23,11,26,0
24405,2244,-5995,-4913,-23,11,27,0
24410,2260,-5989,-4901,-22,11,27,0
24415,2267,-5984,-4892,-22,10,27,0
24420,2277,-5976,-4894,-22,9,27,0
24425,2278,-5973,-4880,-22,8,27,0
24430,2276,-5969,-4869,-21,7,27,0
24435,2285,-5966,-4871,-21,7,27,0
24440,2286,-5965,-4875,-21,6,27,0
24446,2285,-5969,-4887,-20,6,28,0
24451,2287,-5976,-4895,-20,6,28,0
24456,2278,-5978,-4907,-19,6,28,0
24460,2267,-5978,-4922,-19,8,28,0
24465,2259,-5975,-4945,-19,12,28,0
24470,2254,-5971,-4962,-18,14,28,0
24475,2262,-5967,-4982,-18,17,28,0
24480,2271,-5967,-4988,-17,18,28,0
24485,2287,-5967,-4981,-17,19,29,0
24491,2309,-5966,-4969,-17,19,29,0
24495,2325,-5964,-4974,-16,19,29,0
24500,2340,-5964,-4987,-16,18,29,0
24505,2352,-5964,-5000,-15,18,29,0
24510,2350,-5964,-5001,-15,18,29,0
24515,2345,-5971,-4999,-15,19,29,0
24520,2346,-5983,-4998,-14,19,29,0
24525,2349,-5996,-5001,-14,19,29,0
24530,2371,-6010,-4987,-13,19,29,0
24535,2397,-6027,-4997,-13,19,29,0
24540,2423,-6046,-4989,-13,19,29,0
24545,2437,-6061,-4989,-12,19,29,0
24550,2438,-6077,-4982,-12,19,29,0
24555,2435,-6086,-4980,-12,19,29,0
24560,2434,-6087,-4969,-11,19,29,0
24565,2443,-6081,-4965,-11,19,29,0
24570,2460,-6077,-4963,-11,19,30,0
24575,2467,-6072,-4964,-10,18,29,0
24580,2462,-6073,-4962,-10,17,29,0
24585,2457,-6071,-4962,-10,17,29,0
24590,2443,-6068,-4957,-10,17,29,0
24595,2429,-6067,-4969,-9,17,29,0
24600,2418,-6067,-4985,-9,19,29,0
24605,2406,-6070,-4996,-9,20,29,0
24610,2407,-6074,-4999,-9,21,30,0
24615,2416,-6078,-4997,-8,22,30,0
24620,2418,-6077,-4980,-8,22,30,0
24625,2420,-6072,-4969,-8,23,30,0
24630,2413,-6062,-4955,-8,23,29,0
24635,2403,-6043,-4939,-8,22,29,0
24640,2393,-6019,-4928,-7,21,29,0
24645,2380,-5991,-4910,-7,20,29,0
24650,2372,-5963,-4892,-7,18,29,0
24655,2367,-5936,-4879,-7,18,29,0
24660,2359,-5912,-4870,-7,17,29,0
24665,2352,-5895,-4868,-7,17,29,0
24670,2343,-5887,-4871,-7,16,29,0
24674,2335,-5884,-4877,-6,15,28,0
24680,2328,-5889,-4888,-6,15,28,0
24685,2324,-5897,-4904,-6,16,28,0
24690,2327,-5909,-4915,-6,17,28,0
24694,2341,-5921,-4921,-6,19,28,0
24699,2347,-5929,-4923,-5,19,28,0
24704,2352,-5937,-4920,-5,18,28,0
24709,2348,-5945,-4914,-5,17,28,0
24715,2335,-5955,-4905,-5,16,28,0
24720,2327,-5958,-4898,-5,16,28,0
24724,2322,-5957,-4899,-5,16,28,0
24730,2322,-5956,-4903,-4,15,28,0
24735,2318,-5959,-4912,-4,14,27,0
24740,2311,-5968,-4920,-4,13,27,1
24744,2306,-5981,-4929,-4,12,27,1
24749,2311,-5994,-4933,-4,12,27,1
24755,2313,-6010,-4932,-4,12,27,1
24759,2318,-6028,-4928,-4,12,27,1
24764,2323,-6050,-4926,-3,12,26,1
24769,2318,-6073,-4926,-3,11,26,1
24774,2319,-6101,-4923,-3,10,26,1
24780,2317,-6128,-4919,-3,9,26,1
24785,2315,-6159,-4923,-3,8,26,1
24790,2317,-6188,-4933,-3,8,26,1
24794,2316,-6216,-4951,-2,8,26,1
24800,2319,-6238,-4975,-2,7,25,1
24805,2324,-6253,-4991,-2,7,25,1
24809,2322,-6262,-5001,-2,7,25,1
24815,2319,-6263,-5011,-1,8,25,1
24819,2316,-6257,-5014,-1,8,25,1
24824,2309,-6252,-5019,-1,7,25,1
24829,2309,-6240,-5026,0,7,24,1
24834,2312,-6228,-5029,0,8,24,1
24839,2315,-6214,-5031,0,8,24,1
24844,2322,-6196,-5025,1,8,24,1
24849,2324,-6179,-5018,1,8,24,1
24854,2321,-6161,-5015,2,7,24,1
24859,2318,-6141,-5013,2,6,24,1
24864,2312,-6118,-5014,2,6,24,1
24869,2313,-6095,-5016,3,6,24,1
24874,2309,-6075,-5015,4,6,23,1
24879,2304,-6059,-5016,4,6,23,1
24884,2301,-6046,-5023,5,6,23,1
24889,2301,-6039,-5036,5,5,23,1
24894,2297,-6038,-5048,6,4,23,1
24899,2293,-6034,-5054,7,3,22,1
24904,2277,-6037,-5061,7,2,22,1
24909,2255,-6046,-5070,8,2,22,1
24915,2228,-6065,-5092,9,2,22,1
24920,2207,-6091,-5115,10,2,22,1
24924,2195,-6113,-5146,11,2,21,1
24929,2182,-6131,-5177,11,3,21,1
24934,2159,-6148,-5203,12,6,21,1
24939,2129,-6171,-5230,13,10,21,1
24944,2088,-6195,-5258,14,14,20,1
24949,2048,-6222,-5285,14,18,20,1
24954,2024,-6244,-5312,15,22,20,1
24959,2018,-6263,-5336,16,24,19,1
24964,2020,-6279,-5360,16,26,19,1
24969,2021,-6298,-5378,17,26,19,1
24974,2021,-6321,-5394,18,27,18,1
24979,2019,-6342,-5400,18,27,18,1
24984,2017,-6360,-5397,19,28,17,1
24989,2016,-6378,-5391,19,29,17,1
24994,2015,-6395,-5386,19,30,17,1
24999,2009,-6413,-5385,20,32,16,1
25004,2011,-6431,-5378,20,33,16,1
25009,2025,-6449,-5364,20,35,16,1
25014,2050,-6481,-5339,20,36,15,1
25019,1982,-7201,-4940,20,42,15,1
25024,1189,-7385,-3650,26,42,20,1
25029,1842,-7416,-5250,10,38,7,1
25034,3108,-7594,-6840,-4,46,-4,1
25039,4554,-7415,-8203,-6,16,-4,1
25044,5533,-7308,-9198,-5,-6,0,1
25049,6135,-7265,-9964,-3,-22,3,1
25054,6363,-7223,-9363,0,-30,4,1
25059,5558,-7371,-8071,-12,-46,0,1
25065,4795,-7363,-7013,-19,-48,-6,1
25071,4050,-7131,-6531,-17,-30,-7,1
25075,3162,-6987,-4958,-12,-13,-6,1
25081,2323,-6982,-4668,-8,-13,-4,1
25086,2060,-6902,-4963,-7,4,-4,1
25091,2331,-6680,-5610,-8,3,-5,1
25096,2723,-6558,-6195,-10,-7,-5,1
25101,2810,-6515,-6392,-11,-21,-5,1
25106,2526,-6477,-6156,-12,-24,-6,1
25111,2103,-6427,-5504,-10,-12,-5,1
25117,1771,-6423,-5097,-8,3,-4,1
25122,1676,-6435,-5137,-6,11,-4,1
25127,1954,-6412,-5612,-6,13,-4,1
25132,2274,-6395,-5981,-7,6,-4,1
25136,2371,-6414,-6038,-8,-9,-4,1
25141,2320,-6449,-5730,-8,-10,-4,1
25146,2122,-6500,-5349,-7,-1,-4,1
25151,1890,-6540,-5237,-5,7,-3,1
25155,1883,-6540,-5492,-5,16,-2,1
25159,1963,-6517,-5798,-5,19,-2,1
25164,2092,-6496,-5910,-6,13,-2,1
25169,2235,-6493,-5745,-6,10,-2,1
25174,2187,-6507,-5453,-6,9,-2,1
25179,2097,-6514,-5275,-5,10,-2,1
25184,2063,-6501,-5348,-4,16,-2,1
25189,2006,-6471,-5538,-4,16,-2,1
25194,2072,-6431,-5691,-5,13,-2,1
25199,2159,-6399,-5631,-6,13,-2,1
25204,2147,-6385,-5389,-6,10,-2,1
25209,2190,-6376,-5179,-5,10,-2,1
25214,2199,-6363,-5133,-5,13,-2,1
25219,2156,-6338,-5262,-4,9,-2,1
25224,2201,-6296,-5438,-5,7,-2,1
25229,2219,-6262,-5460,-6,6,-3,1
25234,2191,-6246,-5330,-6,2,-3,1
25239,2223,-6231,-5162,-6,4,-3,1
25244,2221,-6223,-5085,-5,7,-4,1
25249,2219,-6209,-5172,-5,5,-4,1
25254,2255,-6180,-5327,-5,5,-4,1
25259,2242,-6153,-5414,-6,2,-5,1
25264,2217,-6136,-5391,-6,-2,-5,1
25269,2214,-6126,-5275,-6,0,-6,1
25274,2190,-6120,-5166,-6,2,-6,1
25279,2211,-6119,-5184,-5,1,-6,1
25284,2251,-6110,-5282,-5,1,-7,1
25289,2252,-6099,-5370,-6,-2,-7,1
25294,2256,-6092,-5380,-6,-5,-8,1
25299,2244,-6091,-5296,-6,-5,-8,1
25304,2209,-6098,-5209,-6,-6,-9,1
25309,2214,-6105,-5190,-5,-4,-9,1
25314,2232,-6108,-5233,-5,-3,-9,1
25319,2248,-6107,-5308,-5,-4,-10,1
25324,2272,-6109,-5336,-6,-6,-10,1
25329,2262,-6118,-5285,-6,-6,-10,1
25334,2236,-6132,-5207,-6,-7,-11,1
25339,2231,-6151,-5160,-6,-5,-11,1
25344,2239,-6170,-5169,-5,-4,-11,1
25349,2267,-6189,-5227,-5,-4,-12,1
25354,2306,-6207,-5261,-6,-5,-12,1
25359,2329,-6227,-5238,-6,-7,-12,1
25364,2327,-6252,-5180,-6,-8,-12,1
25369,2327,-6280,-5129,-5,-9,-13,1
25375,2337,-6301,-5116,-5,-9,-13,1
25380,2357,-6317,-5146,-5,-9,-13,1
25385,2386,-6327,-5178,-5,-10,-13,1
25391,2405,-6335,-5173,-5,-12,-13,1
25396,2406,-6345,-5133,-5,-13,-14,1
25402,2402,-6353,-5084,-5,-14,-14,1
25406,2394,-6359,-5053,-5,-13,-14,1
25410,2390,-6362,-5058,-5,-13,-14,1
25414,2411,-6354,-5085,-5,-13,-14,1
25419,2420,-6343,-5094,-5,-14,-14,1
25425,2409,-6329,-5095,-5,-15,-15,1
25431,2397,-6317,-5087,-5,-15,-15,1
25436,2358,-6305,-5091,-5,-14,-15,1
25442,2329,-6290,-5122,-4,-14,-15,1
25447,2320,-6269,-5164,-4,-12,-16,1
25452,2305,-6246,-5191,-4,-11,-16,1
25457,2304,-6221,-5201,-4,-10,-16,1
25461,2299,-6199,-5186,-4,-10,-17,1
25466,2279,-6183,-5168,-3,-10,-17,1
25471,2275,-6169,-5179,-3,-10,-17,1
25476,2275,-6154,-5192,-3,-9,-18,1
25481,2268,-6140,-5201,-3,-9,-18,1
25487,2282,-6128,-5205,-2,-8,-18,1
25492,2280,-6123,-5183,-2,-7,-19,1
25498,2271,-6123,-5173,-2,-7,-19,1
25504,2288,-6128,-5176,-2,-6,-19,1
25509,2294,-6135,-5177,-1,-5,-19,1
25514,2295,-6146,-5139,-1,-6,-20,1
25519,2325,-6142,-5129,-1,-6,-20,1
25524,2342,-6152,-5099,-1,-7,-20,1
25528,2341,-6162,-5072,0,-9,-20,1
25533,2344,-6170,-5043,0,-9,-20,1
25539,2332,-6180,-5016,0,-9,-20,1
25543,2359,-6193,-5020,0,-9,-20,1
25548,2392,-6207,-5007,1,-9,-20,1
25553,2411,-6222,-4988,1,-11,-21,1
25559,2443,-6235,-4980,1,-12,-21,1
25564,2439,-6252,-4942,1,-12,-21,1
25569,2439,-6264,-4956,1,-14,-21,1
25574,2448,-6273,-4978,1,-13,-21,1
25580,2434,-6275,-4998,1,-13,-21,1
25585,2428,-6274,-5027,1,-14,-21,1
25590,2437,-6273,-5048,1,-12,-22,1
25595,2420,-6271,-5046,2,-13,-22,1
25600,2428,-6270,-5051,2,-13,-22,1
25605,2420,-6257,-5039,2,-13,-22,1
25610,2403,-6240,-5039,2,-15,-22,1
25615,2409,-6225,-5054,2,-15,-22,1
25620,2399,-6206,-5055,2,-16,-23,1
25625,2383,-6186,-5042,3,-17,-23,1
25630,2377,-6174,-5047,3,-17,-23,1
25635,2366,-6166,-5051,3,-16,-23,1
25640,2364,-6150,-5072,3,-16,-23,1
25644,2373,-6140,-5089,3,-15,-24,1
25649,2360,-6128,-5089,3,-15,-24,1
25654,2356,-6120,-5119,3,-15,-24,1
25659,2342,-6115,-5139,3,-14,-24,1
25664,2315,-6109,-5146,4,-13,-24,1
25669,2316,-6110,-5173,4,-12,-25,1
25673,2321,-6109,-5176,4,-11,-25,1
25677,2346,-6108,-5197,4,-11,-25,1
25681,2372,-6108,-5192,5,-11,-25,1
25685,2365,-6107,-5178,5,-13,-25,1
25689,2371,-6110,-5182,5,-14,-25,1
25693,2353,-6097,-5161,5,-14,-25,1
25698,2332,-6085,-5165,5,-15,-25,1
25703,2323,-6080,-5155,5,-15,-25,1
25708,2336,-6069,-5161,6,-14,-25,1
25713,2341,-6066,-5138,6,-14,-25,1
25718,2342,-6061,-5128,6,-14,-25,1
25723,2323,-6056,-5109,6,-14,-25,1
25728,2316,-6051,-5112,6,-14,-25,1
25733,2296,-6050,-5107,6,-13,-25,1
25738,2297,-6054,-5120,7,-13,-25,1
25743,2297,-6065,-5117,7,-13,-25,1
25748,2310,-6078,-5105,7,-13,-25,1
25753,2330,-6091,-5078,7,-13,-25,1
25758,2354,-6108,-5055,7,-14,-25,1
25763,2352,-6123,-5023,7,-16,-25,1
25768,2361,-6136,-5003,7,-17,-25,1
25773,2353,-6143,-4978,7,-19,-25,1
25778,2351,-6145,-4947,7,-21,-25,1
25783,2371,-6145,-4917,7,-22,-25,1
25788,2381,-6145,-4886,7,-24,-25,1
25793,2374,-6148,-4870,8,-27,-25,1
25798,2365,-6146,-4877,8,-28,-25,1
25803,2342,-6144,-4892,8,-28,-24,1
25808,2324,-6133,-4912,8,-28,-24,1
25813,2309,-6117,-4925,8,-28,-24,1
25818,2266,-6096,-4942,8,-27,-24,1
25823,2244,-6080,-4937,8,-26,-24,1
25828,2234,-6061,-4944,8,-25,-24,1
25834,2220,-6047,-4948,8,-25,-24,1
25839,2220,-6035,-4958,8,-25,-24,1
25844,2217,-6025,-4962,9,-26,-24,1
25849,2207,-6014,-4958,9,-27,-24,1
25854,2192,-6007,-4954,9,-27,-24,1
25859,2167,-6007,-4956,9,-27,-24,1
25864,2141,-6009,-4966,9,-26,-24,1
25870,2129,-6018,-4985,10,-24,-24,1
25874,2122,-6029,-4992,10,-22,-23,1
25879,2125,-6052,-4986,10,-21,-23,1
25884,2127,-6081,-4979,10,-21,-23,1
25888,2117,-6113,-4978,10,-20,-23,1
25893,2108,-6150,-4998,11,-18,-23,1
25898,2104,-6184,-5030,11,-16,-22,1
25903,2098,-6222,-5059,11,-15,-22,1
25908,2101,-6260,-5061,11,-14,-22,1
25913,2108,-6295,-5047,12,-13,-21,1
25918,2113,-6324,-5020,12,-14,-21,1
25923,2114,-6345,-5000,12,-14,-21,1
25928,2114,-6360,-4984,12,-15,-20,1
25934,2109,-6373,-4971,12,-15,-20,1
25939,2102,-6378,-4946,13,-16,-20,1
25943,2086,-6380,-4917,13,-17,-20,1
25949,2069,-6385,-4885,13,-18,-19,1
25954,2057,-6390,-4865,13,-18,-19,1
25959,2053,-6402,-4854,13,-18,-18,1
25964,2055,-6417,-4853,13,-19,-18,1
25970,2059,-6433,-4855,13,-19,-18,1
25975,2066,-6447,-4852,13,-18,-17,1
25981,2060,-6452,-4847,13,-18,-17,1
25986,2041,-6453,-4848,13,-18,-17,1
25992,2015,-6445,-4859,13,-17,-16,1
25997,1987,-6432,-4876,13,-17,-16,1
26002,1968,-6411,-4888,13,-17,-16,1
26008,1956,-6388,-4891,13,-16,-15,1
26014,1937,-6364,-4888,13,-16,-15,1
26020,1915,-6349,-4891,13,-17,-15,1
26025,1891,-6339,-4892,13,-18,-15,1
26030,1879,-6338,-4887,13,-19,-14,1
26034,1886,-6340,-4881,13,-20,-14,1
26038,1901,-6344,-4876,13,-20,-14,1
26043,1911,-6348,-4869,13,-21,-13,1
26048,1910,-6349,-4869,13,-20,-13,1
26053,1891,-6348,-4867,13,-20,-13,1
26058,1867,-6347,-4872,13,-20,-12,1
26063,1844,-6349,-4875,13,-19,-12,1
26069,1829,-6346,-4874,13,-18,-12,1
26074,1823,-6340,-4879,13,-17,-11,1
26079,1819,-6337,-4895,13,-17,-11,1
26084,1802,-6330,-4904,13,-16,-11,1
26090,1784,-6321,-4903,13,-16,-10,1
26095,1763,-6309,-4898,13,-15,-10,1
26100,1740,-6296,-4882,13,-15,-10,1
26105,1723,-6284,-4870,13,-15,-10,1
26110,1707,-6275,-4859,13,-14,-9,1
26115,1698,-6267,-4847,13,-14,-9,1
26121,1700,-6261,-4832,13,-13,-9,1
26126,1693,-6261,-4803,14,-12,-9,1
26131,1688,-6266,-4780,14,-11,-8,1
26137,1686,-6278,-4772,14,-10,-8,1
26142,1677,-6290,-4777,14,-10,-8,1
26148,1673,-6299,-4785,14,-9,-7,1
26152,1667,-6307,-4788,15,-9,-7,1
26158,1653,-6320,-4787,15,-8,-7,1
26162,1632,-6342,-4801,15,-7,-6,1
26167,1612,-6368,-4826,16,-6,-6,1
26171,1596,-6396,-4855,17,-5,-6,1
26176,1588,-6424,-4884,17,-3,-5,1
26181,1580,-6451,-4906,18,1,-5,1
26186,1575,-6486,-4922,18,5,-5,1
26191,1574,-6525,-4926,19,8,-4,1
26196,1578,-6562,-4914,19,12,-4,1
26201,1594,-6599,-4896,20,13,-3,1
26206,1620,-6634,-4875,20,14,-3,1
26210,1804,-7379,-4844,21,12,-2,1
26215,2193,-7471,-1929,26,-7,-2,1
26220,2580,-7653,-2632,15,9,3,1
26224,2355,-7792,-4596,-5,5,4,1
26229,2391,-7672,-6279,-1,-26,-1,1
26235,2342,-7617,-7388,-6,-51,1,1
26241,2196,-7516,-8597,-15,-68,1,1
26246,2485,-7239,-9069,-14,-55,4,1
26251,2156,-7163,-7766,-7,-50,2,1
26256,2259,-7234,-6989,-13,-59,-3,1
26261,2110,-7181,-6261,-17,-29,-1,1
26266,1876,-6971,-5287,-14,-32,-1,1
26272,1900,-6829,-5461,-11,-26,-1,1
26277,1743,-6755,-4799,-7,-18,-1,1
26282,1680,-6692,-5283,-6,-23,-1,1
26287,1556,-6615,-5241,-4,-15,0,1
26291,1721,-6525,-5802,-4,-14,-1,1
26296,1668,-6492,-5712,-3,-4,-1,1
26301,1562,-6473,-5762,-3,-3,-1,1
26306,1449,-6464,-5472,-1,12,0,1
26310,1422,-6456,-5456,0,20,0,1
26315,1380,-6465,-5376,2,22,1,1
26320,1547,-6464,-5664,2,20,1,1
26325,1651,-6481,-5637,3,17,1,1
26329,1676,-6553,-5507,3,11,1,1
26334,1754,-6593,-5534,3,14,1,1
26339,1883,-6598,-5949,2,17,1,1
26344,2064,-6615,-6226,1,16,1,1
26349,2217,-6665,-6386,-1,16,1,1
26353,2155,-6683,-6380,-2,13,0,1
26357,2168,-6688,-6190,-1,12,-1,1
26361,2223,-6710,-5939,-1,18,0,1
26365,2182,-6722,-5745,-1,18,1,1
26369,2266,-6724,-5526,0,19,1,1
26373,2334,-6714,-5548,0,21,2,1
26378,2310,-6692,-5528,0,16,2,1
26383,2310,-6652,-5580,-1,14,3,1
26388,2247,-6620,-5552,-1,15,3,1
26393,2152,-6588,-5507,-1,13,4,1
26398,2107,-6558,-5454,-1,16,4,1
26403,2088,-6522,-5454,-1,19,4,1
26408,2106,-6483,-5454,-1,18,5,1
26413,2167,-6444,-5495,-2,17,5,1
26418,2152,-6405,-5497,-2,14,5,1
26423,2135,-6367,-5454,-3,9,5,1
26428,2125,-6335,-5408,-3,9,5,1
26433,2074,-6308,-5400,-3,8,5,1
26438,2055,-6281,-5425,-4,7,6,1
26443,2063,-6257,-5479,-4,10,6,1
26448,2046,-6234,-5508,-5,12,6,1
26453,2062,-6217,-5501,-5,13,6,1
26458,2062,-6209,-5483,-6,14,6,1
26463,2042,-6208,-5474,-6,12,6,1
26468,2049,-6207,-5477,-7,11,6,1
26473,2049,-6207,-5496,-7,10,6,1
26478,2050,-6210,-5528,-8,8,6,1
26483,2070,-6210,-5540,-8,7,6,1
26488,2058,-6219,-5535,-9,7,6,1
26493,2048,-6231,-5532,-9,6,6,1
26498,2049,-6246,-5527,-10,5,6,1
26503,2048,-6259,-5536,-10,4,6,1
26508,2064,-6268,-5549,-11,3,6,1
26513,2080,-6282,-5549,-12,2,6,1
26518,2077,-6305,-5548,-12,0,6,1
26523,2083,-6334,-5549,-13,-3,7,1
26528,2074,-6361,-5529,-13,-4,7,1
26533,2078,-6389,-5536,-13,-6,7,1
26538,2095,-6419,-5548,-14,-7,7,1
26543,2090,-6450,-5548,-14,-8,7,1
26548,2082,-6491,-5558,-15,-9,8,1
26553,2071,-6532,-5556,-15,-10,8,1
26558,2065,-6573,-5557,-15,-11,9,1
26563,2076,-6607,-5572,-16,-10,9,1
26568,2075,-6639,-5585,-16,-9,9,1
26573,2072,-6659,-5612,-16,-9,10,1
26578,2061,-6677,-5642,-16,-7,10,1
26583,2023,-6690,-5658,-17,-7,11,1
26588,2003,-6695,-5673,-17,-5,12,1
26593,1994,-6694,-5679,-17,-4,12,1
26598,1985,-6679,-5677,-17,-3,12,1
26604,1994,-6655,-5690,-17,-3,13,1
26609,1981,-6629,-5690,-17,-4,13,1
26614,1954,-6597,-5680,-17,-5,13,1
26620,1941,-6559,-5680,-17,-4,14,1
26625,1909,-6519,-5673,-17,-4,14,1
26630,1884,-6468,-5660,-17,-3,14,1
26636,1870,-6412,-5657,-17,0,14,1
26642,1835,-6358,-5639,-16,2,15,1
26646,1818,-6305,-5632,-16,3,15,1
26651,1801,-6262,-5623,-16,4,15,1
26656,1766,-6216,-5601,-16,4,15,1
26660,1760,-6172,-5571,-16,6,15,1
26665,1756,-6131,-5546,-16,7,15,1
26670,1744,-6097,-5519,-16,7,15,1
26675,1750,-6068,-5505,-16,8,15,1
26680,1739,-6044,-5492,-15,8,16,1
26684,1731,-6018,-5474,-15,7,16,1
26689,1745,-5993,-5447,-15,7,16,1
26693,1741,-5971,-5408,-15,6,16,1
26698,1745,-5950,-5380,-15,5,16,1
26703,1746,-5935,-5357,-15,5,16,1
26708,1724,-5920,-5348,-15,4,16,1
26713,1713,-5905,-5350,-14,4,16,1
26717,1706,-5896,-5338,-14,5,16,1
26723,1691,-5891,-5315,-14,6,17,1
26728,1702,-5884,-5290,-14,6,17,1
26733,1699,-5887,-5269,-14,7,17,1
26738,1683,-5896,-5268,-14,8,17,0
26743,1679,-5907,-5280,-14,10,17,0
26748,1667,-5921,-5294,-13,12,17,0
26754,1666,-5941,-5297,-13,14,18,0
26759,1686,-5961,-5281,-13,16,18,0
26763,1701,-5978,-5249,-13,16,18,0
26768,1719,-5988,-5219,-13,16,18,0
26772,1731,-5994,-5198,-13,15,18,0
26777,1726,-5995,-5187,-13,13,18,0
26783,1731,-5995,-5179,-12,12,19,0
26787,1731,-5995,-5163,-12,11,19,0
26793,1730,-5988,-5144,-12,10,19,0
26797,1738,-5978,-5122,-12,9,19,0
26802,1729,-5973,-5103,-12,9,19,0
26807,1725,-5970,-5104,-12,9,19,0
26812,1729,-5965,-5112,-12,8,19,0
26817,1727,-5963,-5122,-12,8,19,0
26822,1735,-5957,-5127,-12,8,19,0
26827,1736,-5954,-5120,-12,9,19,0
26832,1735,-5958,-5103,-11,9,19,0
26837,1745,-5963,-5101,-11,10,20,0
26842,1755,-5971,-5100,-11,10,20,0
26847,1762,-5982,-5096,-11,9,20,0
26852,1771,-5999,-5103,-11,8,20,0
26857,1775,-6015,-5098,-11,7,20,0
26862,1783,-6038,-5095,-11,7,20,0
26867,1786,-6063,-5091,-11,7,20,0
26872,1783,-6087,-5097,-10,8,21,0
26877,1790,-6110,-5109,-10,10,21,0
26882,1796,-6130,-5113,-10,11,21,0
26887,1806,-6148,-5105,-10,10,21,0
26892,1821,-6164,-5093,-10,10,21,0
26897,1822,-6185,-5083,-10,9,22,0
26902,1824,-6205,-5077,-10,8,22,0
26907,1833,-6222,-5084,-10,9,22,0
26912,1837,-6236,-5097,-10,9,23,0
26918,1843,-6249,-5106,-10,10,23,0
26923,1850,-6261,-5113,-9,10,23,0
26929,1847,-6276,-5110,-9,10,23,0
26934,1856,-6290,-5104,-9,10,24,0
26938,1866,-6305,-5094,-9,10,24,0
26943,1875,-6312,-5089,-9,9,24,0
26948,1893,-6317,-5085,-9,9,24,0
26953,1893,-6319,-5078,-9,8,24,0
26958,1882,-6322,-5080,-9,7,25,0
26962,1869,-6324,-5079,-9,8,25,0
26967,1854,-6322,-5084,-8,9,25,0
26972,1852,-6320,-5082,-8,9,25,0
26977,1855,-6315,-5079,-8,10,25,0
26983,1852,-6310,-5075,-8,9,25,0
26987,1852,-6304,-5070,-8,8,25,0
26992,1847,-6304,-5057,-8,7,25,0
26997,1840,-6302,-5061,-8,7,25,0
27002,1841,-6298,-5060,-7,7,25,0
27007,1838,-6294,-5061,-7,6,25,0
27012,1827,-6288,-5059,-7,6,25,0
27017,1816,-6285,-5046,-7,7,25,0
27022,1798,-6282,-5034,-7,7,25,0
27027,1788,-6284,-5022,-6,7,25,0
27032,1787,-6286,-5009,-6,8,25,0
27038,1786,-6287,-4999,-6,7,24,0
27042,1786,-6290,-5001,-6,6,24,0
27047,1774,-6297,-5004,-6,6,24,0
27052,1758,-6303,-5008,-5,6,24,0
27057,1754,-6310,-5022,-5,7,24,0
27062,1754,-6311,-5020,-5,8,24,0
27068,1756,-6310,-5026,-5,8,24,0
27072,1754,-6308,-5021,-5,8,24,0
27077,1744,-6309,-5014,-4,7,24,0
27083,1735,-6309,-4997,-4,7,23,0
27088,1731,-6317,-4993,-4,7,23,0
27092,1731,-6326,-4996,-4,7,23,0
27098,1739,-6337,-5003,-3,7,23,0
27103,1742,-6348,-4998,-3,7,23,0
27108,1742,-6361,-4994,-3,7,23,0
27113,1739,-6377,-4992,-3,7,23,0
27118,1726,-6389,-4990,-2,6,23,0
27123,1719,-6403,-4990,-2,6,23,0
27128,1725,-6411,-4988,-2,6,23,0
27132,1729,-6416,-4981,-2,6,23,0
27137,1737,-6420,-4974,-1,6,23,0
27143,1731,-6420,-4964,-1,5,23,0
27148,1716,-6420,-4951,-1,4,23,0
27153,1702,-6417,-4947,-1,4,23,0
27158,1688,-6411,-4942,-1,3,23,0
27162,1680,-6406,-4932,0,3,23,0
27167,1675,-6402,-4924,0,3,23,0
27172,1686,-6402,-4918,0,2,22,0
27177,1711,-6408,-4913,0,2,22,0
27182,1783,-6403,-4879,1,4,22,0
27187,1840,-6415,-4818,1,4,21,0
27192,1827,-6440,-4849,2,3,21,0
27197,1760,-6455,-4900,2,2,21,0
27202,1675,-6455,-4961,2,1,21,0
27207,1627,-6453,-4948,2,0,21,0
27212,1622,-6451,-4918,3,1,20,0
27217,1644,-6447,-4880,3,2,20,0
27222,1668,-6441,-4889,3,1,20,0
27227,1649,-6436,-4931,4,-1,19,0
27232,1595,-6431,-4979,4,-3,19,0
27237,1542,-6422,-4984,4,-3,19,0
27242,1501,-6417,-4971,4,-2,19,0
27247,1486,-6410,-4943,5,0,19,0
27252,1497,-6403,-4941,5,2,19,0
27257,1518,-6399,-4957,6,2,18,0
27262,1535,-6389,-4977,6,1,18,0
27267,1529,-6379,-4978,6,0,18,0
27272,1504,-6367,-4961,6,0,18,0
27277,1478,-6357,-4929,7,1,17,0
27282,1466,-6348,-4907,7,2,17,0
27287,1470,-6334,-4912,7,2,17,0
27292,1486,-6315,-4921,8,2,16,0
27297,1496,-6292,-4916,8,1,16,0
27302,1492,-6271,-4900,8,-1,15,0
27307,1478,-6252,-4868,9,-2,15,0
27312,1462,-6233,-4843,9,-1,14,0
27317,1442,-6222,-4839,10,-2,14,0
27322,1416,-6215,-4847,10,-2,14,0
27327,1400,-6210,-4862,10,-3,13,0
27332,1396,-6206,-4864,11,-3,13,0
27337,1401,-6207,-4846,11,-3,12,0
27342,1414,-6209,-4814,11,-3,12,0
27347,1429,-6212,-4791,12,-3,11,0
27352,1430,-6217,-4779,12,-4,10,0
27357,1424,-6219,-4790,13,-6,10,0
27362,1407,-6227,-4810,13,-7,9,0
27367,1376,-6239,-4826,13,-7,8,0
27372,1338,-6265,-4848,14,-6,8,0
27377,1296,-6302,-4871,14,-3,7,0
27382,1274,-6350,-4902,15,0,7,0
27387,1277,-6404,-4940,15,3,6,0
27392,1293,-6464,-4971,16,4,5,0
27397,1312,-6530,-5000,16,6,5,0
27402,1318,-6599,-5026,17,9,4,0
27407,1243,-7232,-5002,17,13,4,0
27412,1108,-7454,-3990,19,22,4,0
27417,1552,-7504,-4547,21,18,4,0
27422,2332,-7783,-5555,10,20,0,0
27427,3106,-8117,-7102,-5,2,-3,0
27432,3916,-7759,-8304,-4,-13,-3,0
27438,4255,-7881,-8909,-2,-22,1,0
27442,3474,-8016,-8320,-4,-26,-3,0
27447,3250,-7859,-7941,-9,-28,-11,0
27453,2643,-7708,-7290,-12,-11,-10,0
27458,2269,-7604,-6548,-10,-21,-10,0
27462,1491,-7394,-6306,-10,-17,-7,0
27467,903,-7179,-5479,-6,-22,-6,0
27472,995,-7023,-5355,-4,-5,-7,0
27477,1371,-6889,-5480,-4,-1,-7,0
27482,1848,-6750,-5860,-5,-12,-8,0
27488,2094,-6620,-5959,-5,-15,-9,0
27493,2020,-6544,-5769,-5,-16,-10,0
27499,1607,-6521,-5432,-4,-12,-10,0
27504,1197,-6490,-5214,-3,-5,-10,0
27509,988,-6440,-5214,-2,4,-9,0
27514,1095,-6395,-5418,-2,7,-9,0
27520,1320,-6367,-5658,-2,5,-10,0
27525,1515,-6362,-5770,-2,1,-11,0
27531,1569,-6380,-5634,-2,-1,-11,0
27536,1455,-6415,-5424,-2,2,-11,0
27541,1328,-6444,-5244,-1,7,-10,0
27545,1269,-6456,-5268,0,11,-10,0
27550,1303,-6453,-5404,0,12,-10,0
27554,1396,-6452,-5541,-1,9,-10,0
27558,1491,-6465,-5539,-1,6,-10,0
27562,1522,-6498,-5423,-1,6,-10,0
27567,1491,-6533,-5299,-1,8,-10,0
27572,1436,-6557,-5257,0,10,-10,0
27577,1421,-6569,-5339,0,11,-10,0
27582,1422,-6573,-5416,0,9,-10,0
27587,1459,-6575,-5423,-1,7,-10,0
27592,1519,-6587,-5347,-1,6,-10,0
27597,1549,-6604,-5241,-1,6,-10,0
27601,1559,-6623,-5185,-1,6,-10,0
27606,1549,-6636,-5212,-1,5,-10,0
27611,1529,-6638,-5264,-1,3,-10,0
27616,1535,-6632,-5292,-2,1,-10,0
27621,1544,-6629,-5249,-2,0,-11,0
27626,1565,-6632,-5161,-2,-1,-11,0
27631,1595,-6640,-5090,-2,-1,-11,0
27636,1602,-6645,-5072,-2,-1,-12,0
27641,1593,-6640,-5098,-3,-3,-12,0
27646,1582,-6636,-5142,-3,-5,-12,0
27651,1556,-6632,-5150,-4,-7,-13,0
27656,1549,-6630,-5119,-4,-7,-13,0
27661,1553,-6636,-5067,-4,-6,-13,0
27666,1555,-6649,-5041,-4,-7,-14,0
27671,1573,-6658,-5047,-5,-7,-14,0
27676,1588,-6669,-5065,-5,-9,-14,0
27681,1594,-6674,-5072,-6,-11,-15,0
27686,1606,-6679,-5053,-6,-12,-15,0
27691,1608,-6689,-5015,-6,-13,-16,0
27696,1609,-6702,-4985,-7,-13,-16,0
27701,1616,-6712,-4984,-7,-13,-16,0
27706,1625,-6718,-5002,-7,-14,-16,0
27711,1638,-6725,-5020,-8,-16,-17,0
27716,1647,-6732,-4998,-8,-17,-17,0
27721,1650,-6745,-4975,-8,-17,-17,0
27726,1659,-6759,-4913,-8,-18,-18,0
27731,1663,-6777,-4883,-8,-18,-18,0
27736,1664,-6795,-4899,-9,-19,-18,0
27741,1670,-6808,-4957,-9,-21,-18,0
27746,1666,-6819,-4999,-9,-22,-18,0
27751,1665,-6831,-5003,-9,-23,-19,0
27756,1671,-6844,-4971,-10,-23,-19,0
27761,1676,-6856,-4940,-10,-23,-19,0
27766,1690,-6865,-4938,-10,-23,-19,0
27772,1689,-6866,-4965,-10,-24,-19,0
27777,1677,-6864,-5000,-10,-25,-19,0
27781,1660,-6855,-5029,-10,-26,-19,0
27787,1641,-6844,-5021,-10,-25,-19,0
27792,1636,-6836,-5004,-11,-25,-19,0
27797,1642,-6831,-5005,-11,-24,-19,0
27802,1643,-6822,-5022,-11,-25,-20,0
27808,1638,-6814,-5056,-11,-25,-20,0
27813,1630,-6807,-5092,-11,-25,-20,0
27818,1617,-6798,-5114,-11,-24,-20,0
27824,1611,-6786,-5122,-11,-23,-20,0
27829,1609,-6777,-5130,-11,-22,-20,0
27835,1607,-6762,-5139,-11,-22,-20,0
27840,1608,-6745,-5158,-11,-22,-20,0
27845,1601,-6720,-5181,-11,-22,-20,0
27851,1587,-6694,-5192,-11,-23,-21,0
27855,1583,-6666,-5200,-11,-22,-21,0
27860,1575,-6637,-5198,-10,-22,-21,0
27866,1572,-6608,-5195,-10,-22,-21,0
27872,1576,-6579,-5201,-10,-22,-21,0
27877,1577,-6545,-5207,-10,-21,-21,0
27882,1583,-6509,-5206,-10,-21,-22,0
27888,1584,-6480,-5204,-10,-21,-22,0
27893,1581,-6453,-5193,-10,-21,-22,0
27899,1577,-6429,-5180,-10,-21,-22,0
27904,1580,-6403,-5183,-9,-21,-23,0
27910,1593,-6375,-5184,-9,-21,-23,0
27914,1615,-6348,-5186,-9,-20,-23,0
27918,1622,-6321,-5178,-9,-20,-23,0
27922,1611,-6292,-5176,-9,-20,-24,0
27926,1599,-6264,-5169,-8,-20,-24,0
27930,1592,-6236,-5166,-8,-21,-24,0
27935,1594,-6206,-5160,-8,-21,-24,0
27939,1609,-6178,-5151,-8,-21,-25,0
27943,1615,-6158,-5146,-7,-21,-25,0
27947,1613,-6144,-5145,-7,-22,-25,0
27951,1600,-6139,-5142,-7,-21,-26,0
27956,1579,-6144,-5145,-7,-20,-26,0
27961,1573,-6156,-5152,-6,-19,-26,0
27966,1585,-6176,-5159,-6,-18,-26,0
27971,1607,-6197,-5168,-6,-17,-26,0
27976,1639,-6221,-5171,-5,-16,-26,0
27981,1656,-6248,-5172,-5,-16,-26,0
27986,1655,-6276,-5174,-5,-16,-26,0
27991,1653,-6312,-5175,-4,-17,-26,0
27996,1660,-6348,-5179,-4,-16,-26,0
28001,1679,-6385,-5185,-4,-16,-26,0
28006,1707,-6418,-5182,-3,-16,-26,0
28011,1736,-6444,-5177,-3,-16,-26,0
28016,1749,-6461,-5178,-3,-16,-26,0
28021,1743,-6473,-5181,-2,-17,-26,0
28026,1725,-6481,-5182,-2,-16,-26,0
28031,1706,-6478,-5186,-1,-16,-26,0
28037,1700,-6464,-5193,-1,-14,-26,0
28042,1704,-6444,-5204,-1,-13,-26,0
28047,1714,-6424,-5210,0,-12,-26,0
28052,1719,-6397,-5210,0,-12,-26,0
28056,1720,-6365,-5205,0,-12,-26,0
28061,1710,-6332,-5198,1,-12,-26,0
28066,1702,-6302,-5196,1,-11,-25,0
28071,1703,-6277,-5200,2,-10,-25,0
28077,1713,-6251,-5201,2,-10,-26,0
28082,1725,-6224,-5195,2,-10,-25,0
28087,1724,-6199,-5181,2,-10,-25,0
28092,1728,-6177,-5164,3,-10,-25,0
28096,1733,-6158,-5145,3,-10,-25,0
28102,1734,-6141,-5130,3,-11,-25,0
28107,1728,-6130,-5122,3,-11,-25,0
28112,1728,-6124,-5119,4,-11,-25,0
28117,1732,-6122,-5111,4,-11,-25,0
28121,1748,-6121,-5097,4,-11,-25,0
28127,1772,-6120,-5079,4,-10,-25,0
28132,1787,-6118,-5058,4,-11,-25,0
28137,1794,-6119,-5044,4,-12,-25,0
28143,1799,-6122,-5040,4,-13,-25,0
28148,1797,-6128,-5039,5,-14,-25,0
28153,1804,-6130,-5037,5,-15,-25,0
28159,1813,-6123,-5031,5,-15,-25,0
28164,1819,-6117,-5026,5,-16,-25,0
28169,1817,-6111,-5026,5,-16,-25,0
28175,1802,-6105,-5027,5,-17,-25,0
28179,1781,-6102,-5030,5,-18,-25,0
28184,1771,-6095,-5036,5,-18,-25,0
28188,1766,-6089,-5041,5,-17,-25,0
28192,1768,-6087,-5046,5,-17,-25,0
28196,1762,-6090,-5050,5,-16,-25,0
28202,1758,-6093,-5056,5,-16,-25,0
28208,1753,-6100,-5062,5,-16,-25,0
28213,1749,-6105,-5059,6,-16,-24,0
28218,1748,-6111,-5056,6,-16,-24,0
28224,1757,-6114,-5057,6,-16,-24,0
28229,1760,-6115,-5061,6,-17,-24,0
28234,1759,-6114,-5074,6,-17,-24,0
28238,1750,-6114,-5091,6,-17,-24,0
28244,1734,-6114,-5106,7,-17,-24,0
28249,1716,-6114,-5123,7,-17,-24,0
28254,1705,-6107,-5130,7,-17,-23,0
28259,1700,-6097,-5134,7,-16,-23,0
28264,1699,-6088,-5141,8,-15,-23,0
28269,1689,-6078,-5144,8,-15,-23,0
28274,1668,-6066,-5154,8,-15,-23,0
28278,1652,-6055,-5162,8,-14,-23,0
28283,1644,-6046,-5165,9,-13,-23,0
28288,1636,-6040,-5163,9,-12,-22,0
28293,1641,-6033,-5161,9,-11,-22,0
28297,1656,-6024,-5158,10,-10,-22,0
28302,1671,-6024,-5154,10,-10,-22,0
28307,1677,-6020,-5148,10,-10,-22,0
28311,1675,-6022,-5137,10,-11,-22,0
28316,1664,-6030,-5129,11,-12,-21,0
28321,1651,-6035,-5123,11,-12,-21,0
28326,1643,-6045,-5112,11,-11,-21,0
28331,1655,-6060,-5102,11,-10,-20,0
28336,1671,-6078,-5087,12,-8,-20,0
28341,1693,-6098,-5070,12,-7,-20,0
28346,1710,-6116,-5053,12,-7,-20,0
28351,1721,-6131,-5035,12,-7,-19,0
28356,1734,-6138,-5019,12,-6,-19,0
28361,1743,-6143,-5007,12,-6,-18,0
28366,1757,-6141,-4986,12,-6,-18,0
28371,1767,-6138,-4965,12,-7,-18,0
28376,1786,-6130,-4943,12,-8,-17,0
28381,1802,-6117,-4918,12,-9,-17,0
28386,1814,-6106,-4891,13,-12,-17,0
28391,1818,-6100,-4861,13,-15,-16,0
28396,1824,-6101,-4839,12,-18,-16,0
28401,1828,-6107,-4816,12,-21,-16,0
28406,1831,-6112,-4799,12,-23,-15,0
28411,1825,-6122,-4800,12,-25,-15,0
28416,1809,-6139,-4821,12,-25,-15,0
28421,1789,-6153,-4840,12,-25,-15,0
28426,1767,-6165,-4854,12,-23,-14,0
28431,1749,-6171,-4865,12,-21,-14,0
28436,1738,-6177,-4867,12,-20,-14,0
28441,1736,-6179,-4869,13,-19,-14,0
28446,1742,-6174,-4864,13,-19,-13,0
28451,1744,-6161,-4853,13,-19,-13,0
28456,1740,-6146,-4841,13,-20,-13,0
28461,1732,-6131,-4823,13,-20,-13,0
28466,1719,-6118,-4805,13,-21,-13,0
28471,1707,-6109,-4786,13,-21,-13,0
28476,1701,-6101,-4766,13,-22,-13,0
28481,1701,-6103,-4751,14,-23,-12,0
28486,1702,-6111,-4741,14,-23,-12,0
28491,1693,-6120,-4736,14,-23,-12,0
28496,1667,-6125,-4739,14,-23,-12,0
28501,1630,-6132,-4748,15,-21,-12,0
28506,1584,-6140,-4764,15,-19,-12,0
28511,1540,-6152,-4780,15,-17,-11,0
28516,1513,-6166,-4791,16,-14,-11,0
28521,1506,-6180,-4789,16,-11,-11,0
28526,1512,-6191,-4784,17,-10,-11,0
28531,1517,-6202,-4765,17,-9,-11,0
28536,1521,-6212,-4740,18,-9,-11,0
28541,1510,-6221,-4706,18,-10,-10,0
28546,1497,-6235,-4676,19,-10,-10,0
28552,1487,-6257,-4656,20,-9,-10,0
28557,1490,-6279,-4644,20,-10,-10,0
28561,1508,-6308,-4624,21,-10,-10,0
28567,1520,-6346,-4610,21,-10,-9,0
28572,1519,-6397,-4607,22,-11,-9,0
28577,1517,-6467,-4612,23,-13,-9,0
28583,1503,-6549,-4630,24,-15,-9,0
28589,1487,-6635,-4655,24,-15,-8,0
28593,1485,-6716,-4689,25,-13,-8,0
28599,1497,-6802,-4729,26,-11,-7,0
28603,1506,-6886,-4767,26,-9,-7,0
28608,1512,-6964,-4795,27,-8,-6,0
28613,1507,-7035,-4811,27,-7,-6,0
28618,1499,-7101,-4821,28,-5,-5,0
28622,1491,-7156,-4841,28,-1,-5,0
28627,1554,-7585,-4898,29,2,-4,0
28632,2221,-8015,-2150,33,-12,-5,0
28637,2503,-8220,-1782,27,-14,2,0
28642,1692,-8141,-3868,-1,-14,6,0
28646,1671,-8013,-5655,3,-37,1,0
28651,1847,-7993,-7179,-6,-55,4,0
28655,2090,-7843,-8493,-16,-56,5,0
28661,2372,-7555,-9185,-11,-35,7,0
28665,2032,-7540,-7120,-8,-30,4,0
28670,2150,-7522,-6792,-21,-24,0,0
28675,2118,-7390,-5711,-19,-1,2,0
28681,2003,-7064,-5087,-18,-12,2,0
28686,1785,-6909,-3585,-9,-18,2,0
28691,1780,-6916,-4200,-7,-16,2,0
28696,1736,-6804,-4608,-6,-21,2,0
28701,1825,-6618,-5498,-7,-25,2,0
28706,1844,-6534,-5953,-8,-21,3,0
28711,1767,-6509,-6310,-10,-19,3,0
28715,1526,-6454,-6007,-10,-5,3,0
28721,1368,-6386,-5505,-8,9,4,0
28726,1173,-6375,-5006,-5,19,5,0
28730,1174,-6375,-5051,-4,18,5,0
28735,1357,-6331,-5480,-3,15,5,0
28740,1569,-6270,-5890,-5,4,5,0
28746,1667,-6248,-5945,-6,-4,5,0
28750,1636,-6280,-5751,-6,0,5,0
28756,1416,-6326,-5397,-4,10,5,0
28761,1253,-6359,-5257,-3,20,6,0
28766,1239,-6370,-5406,-3,27,6,0
28771,1282,-6362,-5646,-3,23,7,0
28776,1420,-6351,-5794,-4,14,6,0
28781,1513,-6366,-5750,-5,11,6,0
28786,1446,-6401,-5525,-5,10,6,0
28791,1379,-6442,-5351,-4,16,6,0
28796,1288,-6478,-5371,-3,22,6,0
28800,1196,-6489,-5530,-4,20,7,0
28806,1241,-6480,-5686,-4,19,7,0
28810,1299,-6477,-5682,-5,17,7,0
28815,1319,-6494,-5509,-6,15,7,0
28820,1360,-6525,-5329,-6,17,6,0
28825,1335,-6559,-5264,-5,19,6,0
28830,1296,-6580,-5326,-6,16,6,0
28835,1323,-6585,-5458,-6,15,6,0
28840,1320,-6591,-5517,-7,11,6,0
28845,1339,-6606,-5441,-8,9,7,0
28850,1404,-6626,-5307,-8,12,6,0
28855,1412,-6650,-5220,-8,13,6,0
28860,1431,-6669,-5239,-8,11,7,0
28865,1464,-6683,-5351,-9,10,7,0
28870,1444,-6694,-5447,-10,6,7,0
28875,1457,-6700,-5443,-11,3,7,0
28880,1486,-6716,-5352,-11,5,7,0
28885,1485,-6734,-5255,-11,6,7,0
28890,1516,-6741,-5223,-12,6,7,0
28895,1544,-6741,-5269,-12,6,7,0
28900,1536,-6738,-5358,-13,2,7,0
28905,1543,-6733,-5399,-13,0,7,0
28910,1544,-6735,-5368,-14,0,7,0
28915,1526,-6747,-5308,-14,0,8,0
28920,1543,-6755,-5263,-14,2,8,0
28925,1567,-6755,-5286,-15,2,8,0
28930,1578,-6751,-5356,-15,0,8,0
28935,1590,-6740,-5420,-16,-1,8,0
